"Time (s)","Linear Acceleration x (m/s^2)","Linear Acceleration y (m/s^2)","Linear Acceleration z (m/s^2)","Absolute acceleration (m/s^2)"
1.938925000E-2,2.989745317E-3,-2.803945472E-3,1.024163210E-1,1.024983098E-1
2.942625000E-2,-1.166202037E-2,-8.971236795E-3,-1.838130713E-2,2.354481387E-2
3.946425000E-2,2.400746148E-2,-2.342071166E-2,-2.257259130E-2,4.042783472E-2
4.950125000E-2,1.842469072E-2,-9.255242455E-3,3.370861351E-2,3.951454626E-2
5.953825000E-2,1.775722649E-2,4.860388376E-3,1.155409813E-2,2.173567692E-2
6.957525000E-2,2.799419818E-2,4.353541216E-2,1.080623925E-2,5.287515533E-2
7.961225000E-2,5.645934847E-2,4.827732590E-2,3.505581200E-2,8.214175662E-2
8.964925000E-2,6.924069950E-2,2.668882556E-2,3.849865258E-2,8.359852946E-2
9.968625000E-2,4.172333719E-2,5.008038794E-2,2.233227074E-2,6.890292039E-2
1.097232500E-1,4.721355749E-2,4.543449644E-2,3.026577294E-2,7.217638457E-2
1.197602500E-1,4.711648914E-2,9.285031278E-3,3.640301049E-2,6.026072126E-2
1.297972500E-1,-3.596403077E-4,-1.399637504E-2,2.532604516E-2,2.893849372E-2
1.398342500E-1,-3.202433675E-2,-3.103839112E-3,6.279909611E-4,3.218052725E-2
1.498712500E-1,-2.316489598E-2,-2.329151561E-3,3.775079370E-2,4.435267497E-2
1.599082500E-1,4.129764162E-2,-1.723955604E-3,2.098624170E-2,4.635611682E-2
1.699452500E-1,2.989009847E-2,1.874086977E-2,2.936764061E-2,4.590312083E-2
1.799822500E-1,3.290233273E-2,4.441165854E-2,4.957795680E-2,7.424912601E-2
1.900192500E-1,5.338808474E-2,3.712814745E-2,2.892325222E-2,7.117121219E-2
2.000562500E-1,6.302553410E-2,5.216184139E-2,-6.552389860E-3,8.207319574E-2
2.100932500E-1,6.741315225E-2,2.302141079E-2,4.718527615E-2,8.544570637E-2
2.201302500E-1,3.387733310E-2,1.889812790E-2,8.864378929E-3,3.979183521E-2
2.301672500E-1,-1.331255687E-3,1.166377910E-3,3.565924466E-2,3.570314284E-2
2.402042500E-1,2.756258687E-3,6.506895781E-3,3.566041410E-2,3.635384145E-2
2.502412500E-1,1.201745342E-2,-6.816697712E-3,2.278835356E-2,2.664949554E-2
2.602782500E-1,4.924840224E-3,-4.627235220E-3,3.928744197E-3,7.816673716E-3
2.703152500E-1,2.007842949E-2,1.482356419E-2,4.704026520E-2,5.325099001E-2
2.803522500E-1,3.956339400E-2,3.367892062E-2,3.461844027E-2,6.243371081E-2
2.903892500E-1,6.533136989E-2,6.361741394E-2,1.471217930E-2,9.236780536E-2
3.004262500E-1,5.259769193E-2,5.281333085E-2,4.090945959E-2,8.502557848E-2
3.104642500E-1,3.082936230E-2,1.322422280E-2,4.225548863E-2,5.395234905E-2
3.205012500E-1,2.512341629E-2,1.365484740E-2,2.728603184E-2,3.952427656E-2
3.305382500E-1,2.211207282E-2,2.287542226E-2,4.988902867E-2,5.917046467E-2
3.405752500E-1,9.562573023E-4,1.020169197E-2,4.270338535E-2,4.391546502E-2
3.506122500E-1,-2.465478480E-3,1.642983545E-2,3.312447667E-2,3.705737486E-2
3.606492500E-1,2.623961322E-2,9.322211347E-3,4.465401649E-2,5.262510917E-2
3.706862500E-1,5.829223130E-2,4.037085337E-2,1.965833902E-2,7.358152163E-2
3.807232500E-1,7.458896950E-2,4.477994177E-2,1.636694133E-2,8.852476673E-2
3.907602500E-1,7.031290527E-2,6.222427370E-2,3.073822796E-2,9.879576682E-2
4.007972500E-1,3.795289265E-2,3.786435759E-2,2.041029096E-2,5.736472447E-2
4.108342500E-1,4.799330654E-2,7.563199857E-3,2.669838667E-2,5.543792308E-2
4.208712500E-1,6.285304581E-3,-1.956910046E-2,1.367605269E-2,2.468783433E-2
4.309082500E-1,-2.068080691E-2,-2.966410815E-2,2.175982833E-2,4.220361615E-2
4.409452500E-1,-3.287506095E-2,-9.656119337E-3,1.981445968E-2,3.958058976E-2
4.509822500E-1,-1.870723001E-2,-8.119238089E-3,3.732979417E-2,4.253699583E-2
4.610192500E-1,4.566847643E-2,6.755525786E-3,3.029734790E-2,5.521934587E-2
4.710562500E-1,5.894656214E-2,2.381748636E-2,1.248555958E-2,6.479088704E-2
4.810932500E-1,5.401481033E-2,5.133567093E-2,2.371396780E-2,7.820040354E-2
4.911302500E-1,7.147096917E-2,5.869184738E-2,2.431506157E-2,9.562455020E-2
5.011672500E-1,7.494479542E-2,4.261511524E-2,2.880513847E-2,9.089833007E-2
5.112042500E-1,4.525319621E-2,3.320558395E-2,2.685860038E-2,6.222416723E-2
5.212412500E-1,8.917876384E-3,2.656499706E-3,1.488174856E-2,1.755140878E-2
5.312782500E-1,2.248939639E-4,-1.104242108E-2,1.383275807E-2,1.770115353E-2
5.413152500E-1,-7.861855533E-3,-2.177472046E-2,3.359283864E-2,4.079737775E-2
5.513522500E-1,-2.068757232E-2,-1.619862832E-2,1.099159598E-2,2.848133406E-2
5.613902500E-1,4.890926373E-3,-7.723070956E-3,2.790876031E-2,2.936776954E-2
5.714272500E-1,6.417410541E-3,3.230961235E-3,4.527499080E-2,4.584154295E-2
5.814642500E-1,4.564961916E-2,3.308302083E-2,4.213386655E-2,7.038207660E-2
5.915012500E-1,7.990647767E-2,6.114521573E-2,3.001024961E-2,1.049971317E-1
6.015382500E-1,7.135013280E-2,3.594942187E-2,3.210647643E-2,8.610475139E-2
6.115752500E-1,6.005523991E-2,4.010463147E-2,2.731643736E-2,7.720881463E-2
6.216122500E-1,3.872071886E-2,2.017804229E-2,1.563954771E-2,4.637933713E-2
6.316492500E-1,8.939323789E-3,1.613477946E-2,4.662452817E-2,5.014069450E-2
6.416862500E-1,-1.889144471E-2,6.275875946E-3,3.659596860E-2,4.165979141E-2
6.517232500E-1,-2.123151869E-2,4.153359504E-3,3.031021178E-2,3.723891404E-2
6.617602500E-1,1.819052801E-2,-2.568686404E-3,1.564247131E-2,2.412841412E-2
6.717972500E-1,2.755511340E-2,1.855174433E-2,1.055539370E-2,3.485495414E-2
6.818342500E-1,4.733188595E-2,5.071895414E-2,2.732228458E-2,7.456022378E-2
6.918712500E-1,4.703141215E-2,3.271081357E-2,3.989672184E-2,6.981188629E-2
7.019082500E-1,3.921926252E-2,3.377042498E-2,2.133648992E-2,5.598069272E-2
7.119452500E-1,2.657521599E-2,2.916338549E-2,2.941968083E-2,4.921648889E-2
7.219822500E-1,2.659656746E-2,1.903217532E-2,3.660415471E-2,4.908630399E-2
7.320192500E-1,-9.448323911E-4,1.014737681E-2,2.956936955E-2,3.127634218E-2
7.420562500E-1,2.211555374E-2,-1.301687049E-2,4.199294865E-2,4.921325402E-2
7.520932500E-1,8.059450309E-3,7.669737954E-3,4.124508977E-2,4.271928194E-2
7.621302500E-1,2.544681300E-2,9.309845399E-3,1.475135565E-2,3.085151547E-2
7.721672500E-1,3.650472463E-2,2.867203209E-2,3.346419990E-2,5.722353554E-2
7.822042500E-1,4.119139132E-2,3.401546900E-2,1.699902534E-2,5.606023290E-2
7.922412500E-1,8.068006430E-2,5.090167049E-2,3.017221749E-2,1.000530636E-1
8.022782500E-1,6.713231688E-2,4.624664272E-2,4.828630686E-2,9.474738710E-2
8.123162500E-1,5.477303431E-2,3.630316928E-2,1.790008128E-2,6.810593438E-2
8.223532500E-1,4.292161440E-2,1.721976687E-2,3.391560495E-2,5.735027126E-2
8.323902500E-1,2.262858296E-2,1.329346206E-3,3.228832483E-3,2.289640337E-2
8.424272500E-1,-7.963400655E-3,-2.140199700E-2,4.184852242E-2,4.767347328E-2
8.524642500E-1,-2.295555652E-2,-2.439124439E-2,1.101264596E-2,3.525859823E-2
8.625012500E-1,-4.583310753E-2,-2.319106684E-2,1.879645944E-2,5.469740592E-2
8.725377500E-1,-1.331290862E-2,-1.661583172E-2,5.607245922E-2,5.997866356E-2
8.825747500E-1,3.715388434E-2,4.723028144E-2,-1.233411670E-2,6.134526095E-2
8.926117500E-1,5.562932250E-2,2.693954320E-2,5.442880690E-2,8.235809329E-2
9.026487500E-1,7.027622769E-2,4.376264501E-2,-2.064067125E-4,8.278864584E-2
9.126857500E-1,6.073518887E-2,5.308257686E-2,1.865378737E-2,8.279182880E-2
9.227227500E-1,5.215794477E-2,4.276430603E-2,4.499841750E-2,8.108079088E-2
9.327597500E-1,2.901690361E-2,2.797144886E-2,-6.345398426E-3,4.080008244E-2
9.427967500E-1,-3.555810610E-3,-3.330533836E-2,3.107444286E-2,4.568928049E-2
9.528337500E-1,-4.680272663E-2,-3.969783885E-2,2.164405346E-2,6.507594548E-2
9.628707500E-1,-4.345209391E-2,-9.528928692E-3,6.101335645E-2,7.550837445E-2
9.729077500E-1,-2.044604120E-2,4.880698314E-3,1.131904006E-2,2.387430595E-2
9.829447500E-1,1.692937496E-2,-1.160502372E-2,2.164931595E-2,2.983241850E-2
9.929817500E-1,4.355928068E-2,1.015591923E-2,3.153052568E-2,5.472410510E-2
1.003018750E0,6.972257403E-2,6.553028943E-2,3.422667682E-2,1.016214621E-1
1.013055750E0,9.172795800E-2,8.449239409E-2,2.659489095E-2,1.275157683E-1
1.023092750E0,8.182592670E-2,5.174736973E-2,5.518543661E-2,1.114392434E-1
1.033129750E0,4.061323873E-2,9.992137807E-3,1.072613239E-2,4.317786348E-2
1.043166750E0,3.240458393E-3,1.103086369E-3,3.632290363E-2,3.648384161E-2
1.053204750E0,-1.051989013E-2,-3.578336095E-3,4.680052936E-2,4.810158133E-2
1.063241750E0,-8.502660119E-3,-1.892993127E-2,3.213220417E-2,3.825070028E-2
1.073278750E0,-1.746446371E-2,-2.603780662E-2,1.087757528E-2,3.318578777E-2
1.083315750E0,-4.452133952E-3,-8.675491023E-3,2.225508749E-2,2.429762459E-2
1.093352750E0,1.383212310E-2,4.325414282E-2,2.480388880E-2,5.174438520E-2
1.103389750E0,5.153065274E-2,4.181860569E-2,2.420630336E-2,7.064098722E-2
1.113426750E0,4.263400905E-2,3.651278283E-2,2.824789882E-2,6.283936525E-2
1.123463750E0,4.531716841E-2,3.531453302E-2,1.657217860E-2,5.979464105E-2
1.133500750E0,5.254681202E-2,2.154076331E-2,1.776851892E-2,5.950539641E-2
1.143537750E0,2.000283139E-2,4.158082958E-3,3.153871179E-2,3.757782935E-2
1.153574750E0,-2.513736282E-2,-2.617307830E-2,1.881517053E-2,4.087698226E-2
1.163611750E0,-2.550344420E-2,-3.855758612E-2,1.686980188E-2,4.921080500E-2
1.173648750E0,-3.296974016E-2,-1.729394428E-2,3.348583460E-2,5.007379947E-2
1.183685750E0,1.981225784E-2,-1.597491293E-3,2.480505824E-2,3.178629348E-2
1.193722750E0,1.999973876E-2,5.972295818E-3,2.285968959E-2,3.095518173E-2
1.203759750E0,3.947426965E-2,3.703437730E-2,1.941801846E-2,5.750497811E-2
1.213796750E0,7.799623800E-2,6.183632464E-2,2.570669889E-2,1.028006739E-1
1.223833750E0,9.068435792E-2,6.799771850E-2,4.935810149E-2,1.236267151E-1
1.233870750E0,7.921464242E-2,5.865906186E-2,3.304144621E-2,1.039595223E-1
1.243907750E0,4.686644758E-2,2.286084990E-2,3.723214567E-2,6.407273241E-2
1.253944750E0,7.342248196E-3,-8.360686982E-3,1.956712246E-2,2.250959744E-2
1.263981750E0,-9.459739686E-3,-1.532100693E-2,2.735152066E-2,3.274638317E-2
1.274018750E0,-1.139815106E-2,-1.706184637E-2,1.866899014E-2,2.774086592E-2
1.284055750E0,-1.982448217E-2,-2.281538780E-2,4.830969572E-2,5.698577642E-2
1.294093750E0,3.204676174E-3,-2.258075913E-3,3.319288909E-2,3.342359560E-2
1.304130750E0,2.948779633E-2,4.709799732E-3,3.289585054E-2,4.442802413E-2
1.314167750E0,4.443387339E-2,2.138508119E-2,2.631363988E-2,5.589363511E-2
1.324204750E0,4.833685330E-2,4.727063636E-2,2.751231909E-2,7.299241159E-2
1.334241750E0,4.830437841E-2,4.329880550E-2,3.963710546E-2,7.602104748E-2
1.344278750E0,6.848503368E-2,2.334167832E-2,2.122597754E-2,7.540275795E-2
1.354315750E0,3.178365987E-2,2.675692735E-2,3.050609350E-2,5.154372839E-2
1.364352750E0,-7.208511410E-3,1.191814669E-2,2.795963109E-2,3.123693051E-2
1.374389750E0,-4.320535054E-3,1.297149975E-3,3.499441624E-2,3.528397354E-2
1.384426750E0,-2.109262905E-2,-9.268293623E-3,1.912799656E-2,2.994462421E-2
1.394463750E0,8.456704658E-3,4.269746505E-3,3.050492406E-2,3.194208792E-2
1.404500750E0,8.177897539E-3,-3.500193539E-3,1.987877905E-2,2.177831995E-2
1.414537750E0,3.621689087E-2,1.184511131E-2,3.095632911E-2,4.909444122E-2
1.424574750E0,4.864754145E-2,4.491365114E-3,1.673765481E-2,5.164208301E-2
1.434611750E0,5.907999286E-2,2.237802064E-2,2.616979837E-2,6.838186683E-2
1.444648750E0,5.242435397E-2,2.119417417E-2,2.751699686E-2,6.288633416E-2
1.454685750E0,4.037673713E-2,3.161274302E-3,1.898590922E-2,4.472962447E-2
1.464722750E0,1.972938269E-2,1.519393049E-2,2.452380717E-2,3.495026728E-2
1.474759750E0,8.997622356E-3,1.869232418E-2,1.539279521E-2,2.583211829E-2
1.484796750E0,-1.285537770E-3,-2.518441463E-3,4.203738749E-2,4.213237593E-2
1.494833750E0,1.129773884E-2,-2.003128175E-3,4.203738749E-2,4.357514627E-2
1.504870750E0,6.241030195E-3,6.450853874E-3,4.937330425E-2,5.018253826E-2
1.514907750E0,1.691749780E-2,1.568526105E-2,2.931676984E-2,3.730552425E-2
1.524944750E0,1.704392100E-2,2.883257013E-2,3.754964948E-2,5.031688106E-2
1.534981750E0,2.861304830E-2,3.908932643E-2,2.946762800E-2,5.670117347E-2
1.545019750E0,4.694920396E-2,2.395735358E-2,2.722346663E-2,5.932368564E-2
1.555056750E0,4.133093420E-2,3.502605972E-2,3.306191146E-2,6.346779476E-2
1.565093750E0,3.080161544E-2,3.972290422E-2,2.602537215E-2,5.660360968E-2
1.575130750E0,1.355094968E-2,5.794065376E-3,3.560545027E-2,3.853501680E-2
1.585167750E0,4.712485797E-3,-5.635381993E-3,3.710175276E-2,3.782201886E-2
1.595204750E0,-2.330590524E-3,-4.518298851E-4,2.452790022E-2,2.464251796E-2
1.605241750E0,2.636343714E-2,-1.508217101E-2,1.913969100E-2,3.590028512E-2
1.615278750E0,2.539203190E-2,7.983600958E-3,2.797249496E-2,3.861286887E-2
1.625315750E0,5.968545377E-4,9.235814167E-4,2.887062728E-2,2.889156205E-2
1.635352750E0,1.398891527E-2,9.667941676E-3,3.261343002E-2,3.678035705E-2
1.645389750E0,3.546292439E-2,2.921720272E-2,2.093829453E-2,5.049431769E-2
1.655426750E0,4.851920877E-2,1.944227070E-2,4.893125474E-2,7.159876535E-2
1.665463750E0,1.459009584E-2,4.642908499E-3,3.261401474E-2,3.602917503E-2
1.675500750E0,1.146123247E-2,-7.656855807E-3,3.096743882E-2,3.389645346E-2
1.685537750E0,2.711868727E-2,-4.829238248E-3,2.183759630E-2,3.515146303E-2
1.695574750E0,2.518593582E-2,8.121974403E-3,1.435374498E-2,3.010527904E-2
1.705611750E0,1.510111964E-2,5.077863685E-3,2.333448350E-2,2.825467456E-2
1.715648750E0,1.901397129E-2,2.158474990E-2,3.531075060E-2,4.554428220E-2
1.725685750E0,1.595722054E-2,1.841331149E-2,4.698822498E-2,5.292991795E-2
1.735722750E0,2.997010026E-2,2.203665745E-2,4.549192250E-2,5.876509332E-2
1.745759750E0,1.522316200E-2,3.570489862E-2,2.288834095E-2,4.506063246E-2
1.755796750E0,3.541986970E-2,2.297838807E-2,2.318713367E-2,4.816862730E-2
1.765833750E0,2.261878431E-2,7.213687110E-3,1.360764027E-2,2.736447622E-2
1.775870750E0,3.284122932E-2,1.309690425E-2,3.336713612E-2,4.861523442E-2
1.785907750E0,2.861060434E-2,1.865361379E-2,2.797834218E-2,4.415100926E-2
1.795944750E0,4.044583021E-3,1.352779380E-2,2.244102895E-2,2.651338600E-2
1.805981750E0,5.799423801E-3,4.684962770E-3,3.366768301E-2,3.448325784E-2
1.816019750E0,3.889001403E-3,7.474514041E-3,2.468752921E-2,2.608575838E-2
1.826056750E0,6.028205249E-3,8.322054246E-3,3.396822989E-2,3.548854022E-2
1.836093750E0,2.642719463E-2,2.167883526E-2,2.813153923E-2,4.426908643E-2
1.846130750E0,3.427342257E-2,7.250670749E-3,2.034831047E-2,4.051288017E-2
1.856167750E0,1.849095612E-2,1.388691790E-2,2.947932243E-2,3.746721765E-2
1.866204750E0,2.719159017E-2,3.559110632E-2,2.019803703E-2,4.913318761E-2
1.876242667E0,1.662771801E-2,1.939786841E-2,3.232340813E-2,4.120146864E-2
1.886279667E0,2.483421209E-2,1.135496846E-2,3.621531487E-2,4.535661396E-2
1.896316667E0,1.784419469E-2,-4.337775204E-3,3.307302117E-2,3.782930487E-2
1.906353667E0,1.461749095E-2,-9.736829186E-3,1.226628900E-2,2.142285532E-2
1.916390667E0,2.489072909E-2,1.185391411E-2,1.885317743E-2,3.339919121E-2
1.926427667E0,3.847937504E-2,1.990148726E-2,3.801391840E-2,5.763496760E-2
1.936464667E0,1.264892987E-2,1.113748401E-2,4.310333490E-2,4.628105938E-2
1.946501667E0,2.436975588E-2,1.532020294E-2,2.768539667E-2,3.993838765E-2
1.956538667E0,2.576254894E-2,8.463401548E-3,2.589030147E-2,3.749194318E-2
1.966575667E0,2.233341278E-2,2.137638803E-2,3.352501094E-2,4.560326359E-2
1.976612667E0,2.854748182E-2,1.774484227E-2,3.158022702E-2,4.612102432E-2
1.986649667E0,1.750739506E-2,-5.180610227E-3,1.316851437E-2,2.251127218E-2
1.996686667E0,2.071686321E-2,2.184254816E-3,3.232808590E-2,3.845860799E-2
2.006723667E0,3.187021694E-2,5.676641408E-4,4.130999386E-2,5.217804675E-2
2.016760667E0,8.324516471E-3,4.588282714E-4,3.487396359E-2,3.585667908E-2
2.026797667E0,2.681950169E-2,-6.727710399E-3,3.532361448E-2,4.485872823E-2
2.036834667E0,3.487272106E-2,-4.625755143E-3,3.068384886E-2,4.667979076E-2
2.046871667E0,5.147134918E-3,5.429203687E-3,3.218132079E-2,3.303947121E-2
2.056908667E0,8.817879860E-3,2.212084821E-2,2.424898803E-2,3.398676730E-2
2.066945667E0,1.597280245E-2,2.375023424E-2,3.846766233E-2,4.794752434E-2
2.076982667E0,3.008572438E-2,2.453697711E-2,1.541501462E-2,4.177124289E-2
2.087020667E0,1.794479877E-2,1.676634728E-2,2.888641477E-2,3.791505192E-2
2.097057667E0,2.074967614E-2,3.857344212E-3,4.250750363E-2,4.745857171E-2
2.107094667E0,9.896508423E-3,1.144224272E-2,2.185046017E-2,2.657646341E-2
2.117131667E0,1.359682749E-2,1.995676172E-2,2.678960323E-2,3.606700566E-2
2.127168667E0,1.172144270E-2,-5.195018132E-3,2.484248042E-2,2.795584493E-2
2.137205667E0,1.732219821E-2,-4.293190185E-3,1.661018550E-2,2.438007989E-2
2.147242667E0,1.984217914E-2,1.204362428E-2,2.409579098E-2,3.345695895E-2
2.157279667E0,3.191979950E-2,1.861703671E-2,2.529330075E-2,4.477966859E-2
2.167316667E0,1.844268919E-2,1.736029648E-2,1.915723264E-2,3.175708174E-2
2.177353667E0,1.757903259E-2,4.480524925E-3,3.457575560E-2,3.904587514E-2
2.187390667E0,2.101924649E-2,6.813358404E-3,4.445579588E-2,4.964421782E-2
2.197427667E0,1.630778396E-2,7.163967504E-3,4.415641844E-2,4.761360664E-2
2.207464667E0,2.464028553E-2,5.353363473E-3,1.481684446E-2,2.924621431E-2
2.217501667E0,1.491213581E-3,1.758624568E-2,1.391871214E-2,2.247732864E-2
2.227538667E0,1.115877153E-2,1.179532318E-2,2.843851805E-2,3.274747532E-2
2.237575667E0,2.178475209E-2,3.146336493E-3,2.185221434E-2,3.101603018E-2
2.247612667E0,1.302142035E-2,1.162143704E-2,2.679194212E-2,3.197535534E-2
2.257649667E0,2.470800360E-3,1.121404599E-3,1.990684569E-2,2.009091606E-2
2.267686667E0,2.008585271E-2,1.226992980E-2,2.454778075E-2,3.400861944E-2
2.277723667E0,6.636014180E-3,1.148928997E-2,2.394902587E-2,2.737875651E-2
2.287760667E0,1.605412900E-2,-1.526306011E-4,1.631490111E-2,2.288961232E-2
2.297797667E0,9.779020501E-3,4.989260095E-3,2.335144043E-2,2.580332786E-2
2.307834667E0,1.976809309E-2,1.579390049E-2,1.796381593E-2,3.103100836E-2
2.317871667E0,1.568241967E-2,1.631514779E-2,2.769358277E-2,3.576390444E-2
2.327908667E0,1.780381692E-2,1.554304124E-3,8.534595966E-3,1.980482483E-2
2.337945667E0,1.362745228E-2,6.997947693E-3,3.443074465E-2,3.768494268E-2
2.347982667E0,3.246689332E-3,1.414342338E-2,1.302525759E-2,1.949960901E-2
2.358019667E0,3.075077207E-2,1.972495160E-2,2.305440187E-2,4.319941139E-2
2.368057667E0,1.734347660E-2,1.156084070E-2,3.248537600E-2,3.859726508E-2
2.378094667E0,2.188261529E-2,1.731595814E-2,2.036000490E-2,3.454303197E-2
2.388131667E0,2.572735144E-2,9.970256430E-3,2.305381715E-2,3.595526541E-2
2.398168667E0,2.056102121E-2,2.543316341E-2,3.547915041E-2,4.825320205E-2
2.408205667E0,1.653524064E-3,1.068796104E-2,3.398284793E-2,3.566231353E-2
2.418242667E0,7.274616924E-3,1.800526720E-2,1.676806033E-2,2.565692003E-2
2.428279667E0,1.375935267E-2,2.170438942E-2,2.500093997E-2,3.585313522E-2
2.438316667E0,1.813035194E-2,3.735868307E-4,2.200833499E-2,2.851694299E-2
2.448353667E0,1.065879348E-2,8.198180068E-3,2.440335453E-2,2.786294577E-2
2.458390667E0,3.887932459E-3,2.525590598E-3,1.721829593E-2,1.783155466E-2
2.468427667E0,5.212815595E-3,1.777720752E-2,2.829526126E-2,3.382047255E-2
2.478464667E0,2.192222104E-2,1.846566692E-2,3.293619633E-2,4.366185587E-2
2.488501667E0,2.103525324E-2,7.317105168E-3,2.694806278E-2,3.496026308E-2
2.498538667E0,2.233556894E-2,8.427491421E-3,3.398460209E-2,4.153135479E-2
2.508575667E0,2.038140662E-2,1.916239921E-2,2.724860966E-2,3.905234958E-2
2.518612667E0,4.315089835E-3,1.464734830E-2,2.365783453E-2,2.815773335E-2
2.528649667E0,1.724020472E-2,1.127183293E-2,3.698013067E-2,4.232976424E-2
2.538686667E0,1.324740610E-2,1.333096647E-2,3.578379035E-2,4.041890755E-2
2.548723667E0,1.159872883E-2,6.260481323E-3,2.171363533E-2,2.540090738E-2
2.558760667E0,2.568145080E-2,-3.511572769E-4,2.725211799E-2,3.744780583E-2
2.568797667E0,6.023701066E-3,-2.722093589E-3,1.857017219E-2,1.971157181E-2
2.578834667E0,1.918695751E-2,-6.608084589E-3,1.632659554E-2,2.604541884E-2
2.588871667E0,2.306338740E-2,3.242847528E-3,3.369165659E-2,4.095807151E-2
2.598908667E0,1.017523332E-2,1.260219783E-2,3.249531627E-2,3.630835086E-2
2.608945667E0,2.822640573E-2,2.438439676E-3,1.483321667E-2,3.197968551E-2
2.618982667E0,2.625005141E-2,1.524248522E-2,4.028146863E-2,5.043803396E-2
2.629019667E0,2.003261107E-2,1.297516339E-2,1.857718885E-2,3.024520321E-2
2.639056667E0,1.502048745E-2,1.508626863E-2,3.728886366E-2,4.293797733E-2
2.649094667E0,2.081352043E-2,1.000222425E-2,3.309757948E-2,4.035711697E-2
2.659131667E0,1.336002896E-2,6.559744561E-3,2.516407728E-2,2.923613189E-2
2.669168667E0,2.495577479E-2,2.914197464E-4,2.770820081E-2,3.729101786E-2
2.679205667E0,2.153170469E-2,9.585153325E-3,2.755851209E-2,3.626239181E-2
2.689242667E0,6.558547709E-3,-3.945637168E-4,3.803555310E-2,3.859887988E-2
2.699279667E0,8.687409293E-3,5.606461116E-3,4.192804456E-2,4.318407585E-2
2.709316667E0,1.702126304E-2,2.155126546E-2,4.177835584E-2,4.999611439E-2
2.719353667E0,3.268278348E-3,1.281146420E-2,2.576166272E-2,2.895649365E-2
2.729390667E0,3.173763589E-3,2.024821802E-2,1.633302748E-2,2.620745876E-2
2.739427667E0,-4.948023520E-4,1.115457342E-2,3.130189955E-2,3.323369153E-2
2.749464667E0,1.927529158E-2,2.210860104E-2,2.052489638E-2,3.579942006E-2
2.759501667E0,1.257077818E-2,1.699728032E-2,2.307077408E-2,3.129205361E-2
2.769538667E0,1.493502217E-2,3.842273927E-3,2.621423721E-2,3.041388152E-2
2.779575667E0,1.703369294E-2,8.345347177E-3,1.064719498E-2,2.175210968E-2
2.789612667E0,2.916451382E-2,-7.417531097E-3,2.711529315E-2,4.050713217E-2
2.799649667E0,1.511154870E-2,-3.896625624E-3,2.292342424E-2,2.773131757E-2
2.809686667E0,1.382442579E-2,2.052279047E-2,3.235381365E-2,4.073166992E-2
2.819723667E0,1.622400432E-2,1.516742159E-2,3.025817156E-2,3.753433015E-2
2.829760667E0,2.950936250E-2,6.851799279E-3,3.310284197E-2,4.487257264E-2
2.839797667E0,1.996049389E-2,1.120648116E-2,4.193506122E-2,4.777610172E-2
2.849834667E0,2.166007848E-2,3.691004631E-3,1.529046893E-2,2.676902978E-2
2.859871667E0,1.981907350E-2,9.377408149E-3,2.636801898E-2,3.429291302E-2
2.869908667E0,2.760491980E-2,8.964398294E-3,3.789463520E-2,4.773254038E-2
2.879945500E0,1.752044166E-2,1.969215694E-2,3.475058734E-2,4.361594023E-2
2.889982500E0,1.177125824E-2,4.033468743E-3,2.696677387E-2,2.969912934E-2
2.900019500E0,2.079096297E-3,9.907051683E-3,2.711704731E-2,2.894488848E-2
2.910056500E0,1.350297511E-2,1.082592792E-2,2.816545308E-2,3.305788558E-2
2.920093500E0,-5.031547341E-3,1.229843498E-2,2.711821675E-2,3.019876904E-2
2.930130500E0,2.186032278E-2,1.703090181E-2,3.190884054E-2,4.226226961E-2
2.940168500E0,1.512031496E-2,-7.909090072E-3,2.427530050E-2,2.967267842E-2
2.950205500E0,2.111633768E-2,7.988598500E-3,2.861685812E-2,3.645054172E-2
2.960242500E0,-4.650066770E-3,1.256047703E-2,8.259192109E-3,1.573540462E-2
2.970279500E0,1.496761583E-2,5.766770756E-4,2.637211204E-2,3.032903515E-2
2.980316500E0,1.651330445E-2,1.143331658E-3,3.250993431E-2,3.648139608E-2
2.990353500E0,2.789750899E-2,2.125700433E-3,3.131417871E-2,4.199246835E-2
3.000390500E0,2.214190733E-2,1.009539598E-2,1.005721092E-2,2.633113312E-2
3.010427500E0,2.191410803E-2,9.571202234E-3,2.622359276E-2,3.548961623E-2
3.020464500E0,2.317897498E-2,5.842058226E-3,3.310868919E-2,4.083601138E-2
3.030501500E0,2.502663117E-3,5.385651067E-3,2.697262108E-2,2.761866847E-2
3.040538500E0,1.617382790E-2,2.755361962E-2,3.625390649E-2,4.832329044E-2
3.050575500E0,1.940091079E-2,1.300392895E-2,3.266079247E-2,4.015252012E-2
3.060612500E0,4.536790671E-3,-1.153637376E-4,3.041546166E-2,3.075217206E-2
3.070649500E0,2.364330785E-3,7.749305768E-3,2.547690332E-2,2.673414301E-2
3.080686500E0,2.482890849E-2,1.932987168E-2,2.353211939E-2,3.929222925E-2
3.090723500E0,2.902398422E-2,9.786073705E-3,3.311219752E-2,4.510628031E-2
3.100760500E0,2.459290938E-2,1.151737031E-2,2.233460963E-2,3.516099825E-2
3.110797500E0,2.081871897E-2,7.058923189E-3,3.535811305E-2,4.163464440E-2
3.120834500E0,1.490462579E-2,1.471640026E-2,4.703441799E-2,5.148744295E-2
3.130871500E0,1.483692599E-2,1.842795237E-2,3.461083889E-2,4.192414543E-2
3.140908500E0,2.260780707E-2,3.561123353E-3,4.688531399E-2,5.217305059E-2
3.150945500E0,2.644677824E-2,-1.504838050E-2,3.910208523E-2,4.954653272E-2
3.160982500E0,1.391984047E-2,-4.088907656E-3,4.404356718E-2,4.637150994E-2
3.171019500E0,1.837481123E-2,8.621682934E-3,2.877531767E-2,3.521343510E-2
3.181056500E0,1.930837403E-3,1.513196371E-2,2.518161893E-2,2.944177968E-2
3.191093500E0,1.242242793E-2,-1.452315892E-3,4.808282375E-2,4.968283282E-2
3.201130500E0,1.661310911E-2,9.461493851E-3,1.200959623E-2,2.257754774E-2
3.211167500E0,2.467222138E-2,1.414065965E-2,3.985228300E-2,4.895795363E-2
3.221204500E0,1.427075107E-2,-2.788436646E-3,1.560329497E-2,2.132820970E-2
3.231241500E0,1.817515166E-2,5.177302896E-3,3.416528106E-2,3.904365548E-2
3.241279500E0,1.705611336E-2,1.665072772E-2,2.578212798E-2,3.511233201E-2
3.251316500E0,1.701503210E-2,5.670341947E-3,2.069212675E-2,2.738299115E-2
3.261353500E0,1.523416207E-2,3.834078689E-3,2.383558989E-2,2.854671958E-2
3.271390500E0,-1.510908191E-2,6.561370818E-3,1.799656034E-2,2.439696963E-2
3.281427500E0,5.180619364E-3,-9.837026708E-3,3.551014066E-2,3.720989117E-2
3.291464500E0,1.341312898E-2,2.343052402E-3,2.652940214E-2,2.981964288E-2
3.301501500E0,2.184525250E-2,-3.095872281E-3,3.161881864E-2,3.855579300E-2
3.311538500E0,2.028648073E-2,5.136966244E-3,3.371563017E-2,3.968215519E-2
3.321575500E0,1.793937183E-2,4.818018903E-3,3.341800690E-2,3.823346116E-2
3.331612500E0,1.976960514E-2,2.406190911E-2,3.117267609E-2,4.406300593E-2
3.341649500E0,3.160629738E-2,1.370448934E-2,3.356886506E-2,4.810030939E-2
3.351686500E0,2.434501941E-2,8.752939221E-3,2.383851349E-2,3.517909380E-2
3.361723500E0,2.969371425E-3,1.144660072E-2,3.012602448E-2,3.236385617E-2
3.371760500E0,1.451074729E-2,9.315907317E-3,1.904905915E-2,2.569464089E-2
3.381797500E0,1.171557721E-2,4.134803731E-4,5.278281569E-3,1.285635920E-2
3.391834500E0,1.381292779E-2,-3.226986956E-3,2.354030550E-2,2.748374795E-2
3.401871500E0,1.758672990E-2,4.089158904E-3,3.416820467E-2,3.864557542E-2
3.411908500E0,7.089127712E-3,1.119604297E-2,3.386882722E-2,3.636900559E-2
3.421945500E0,2.650096091E-2,3.014742164E-3,3.925762117E-2,4.746104107E-2
3.431982500E0,2.211171194E-2,6.170146409E-3,2.234221101E-2,3.203393364E-2
3.442019500E0,2.054106759E-2,2.589358139E-2,2.563594759E-2,4.182839733E-2
3.452056500E0,9.039827376E-3,1.886496779E-2,3.431730866E-2,4.019058550E-2
3.462093500E0,8.104186077E-3,9.434477887E-3,2.249306917E-2,2.570263344E-2
3.472130500E0,1.441562497E-2,1.246354116E-2,2.084649324E-2,2.824405038E-2
3.482167500E0,1.343943232E-2,2.916001878E-3,2.728427768E-2,3.055410310E-2
3.492204500E0,4.613224743E-4,1.041707964E-2,2.713458896E-2,2.906912941E-2
3.502241500E0,9.707291611E-4,1.601990452E-2,1.471100986E-2,2.177139102E-2
3.512279500E0,-5.476086480E-3,-1.629440845E-3,2.638731480E-2,2.699875891E-2
3.522316500E0,2.502468057E-2,8.359161224E-3,2.923373938E-2,3.937920431E-2
3.532353500E0,2.166930155E-2,1.714206286E-2,2.608910680E-2,3.800066371E-2
3.542390500E0,2.255688148E-2,-5.828120839E-4,3.072887242E-2,3.812369568E-2
3.552427500E0,3.635233157E-2,1.040507914E-2,3.986046910E-2,5.494192097E-2
3.562464500E0,2.660531087E-2,6.006004103E-4,2.114996374E-2,3.399300301E-2
3.572501500E0,1.512218332E-2,1.532411783E-2,3.072945714E-2,3.752077494E-2
3.582538500E0,6.740661068E-3,4.285314716E-3,2.159902990E-2,2.302864578E-2
3.592575500E0,1.433848284E-2,9.033436552E-3,2.249657750E-2,2.816542322E-2
3.602612500E0,2.292040927E-2,8.194644330E-4,2.459280431E-2,3.362770743E-2
3.612649500E0,2.789209574E-2,-7.811514661E-6,3.028214514E-2,4.117010299E-2
3.622686500E0,1.942032994E-2,-2.614509389E-3,2.025417030E-2,2.818184325E-2
3.632723500E0,2.644349375E-2,6.889618887E-3,2.474424720E-2,3.686465759E-2
3.642760500E0,7.673237147E-3,1.292761822E-2,2.684105873E-2,3.076433511E-2
3.652797500E0,2.340406537E-2,1.827011866E-2,3.103234291E-2,4.294826910E-2
3.662834500E0,3.823448634E-2,1.378865270E-2,2.130257607E-2,4.588902522E-2
3.672871500E0,2.328823111E-2,7.623965219E-3,2.219953895E-2,3.306487689E-2
3.682908500E0,1.674616981E-2,9.193581739E-3,2.654109657E-2,3.270146718E-2
3.692945500E0,1.011435375E-2,3.814901649E-3,3.342677772E-2,3.513122678E-2
3.702982500E0,1.121628438E-2,-9.827936115E-4,3.477456093E-2,3.655189470E-2
3.713019500E0,1.372487237E-2,-1.570351990E-3,2.893787026E-2,3.206615759E-2
3.723056500E0,2.130189084E-2,9.980562148E-3,1.711187661E-2,2.908949115E-2
3.733093500E0,2.617021864E-2,9.475568281E-3,4.136203408E-2,4.985463470E-2
3.743130500E0,2.382253415E-2,-3.867955995E-3,3.807063639E-2,4.507601992E-2
3.753167500E0,9.607253973E-3,4.766079183E-3,2.474775553E-2,2.697158214E-2
3.763204500E0,1.359354299E-2,4.337743227E-3,3.058561563E-2,3.375026387E-2
3.773241500E0,3.330990650E-2,1.984545449E-2,2.953837931E-2,4.874328453E-2
3.783278500E0,2.385135453E-2,1.736722634E-2,4.016686320E-2,4.983858508E-2
3.793315500E0,9.936187263E-3,4.815538405E-3,1.696452677E-2,2.024135361E-2
3.803352500E0,1.862087395E-2,4.773109546E-4,2.115464151E-2,2.818658599E-2
3.813390500E0,1.478406808E-2,5.590495476E-3,2.878993571E-2,3.284330536E-2
3.823427500E0,1.513581465E-2,1.056556694E-2,2.819118083E-2,3.369668776E-2
3.833464500E0,2.921310053E-3,1.299931970E-3,3.358055949E-2,3.373244508E-2
3.843501500E0,-6.534062494E-3,2.879566415E-3,2.924075603E-2,3.009996161E-2
3.853538500E0,2.278662681E-2,4.102548114E-3,3.403137982E-2,4.116061315E-2
3.863575500E0,3.650480686E-3,-1.028301851E-2,2.205628216E-2,2.460784553E-2
3.873612500E0,9.643091010E-3,4.011377231E-3,1.651838422E-2,1.954321797E-2
3.883649750E0,1.570223625E-2,2.010012814E-2,3.133815229E-2,4.040612780E-2
3.893686750E0,2.721587896E-2,1.170262654E-2,3.253683150E-2,4.400341963E-2
3.903723750E0,3.421000312E-2,7.247463916E-3,2.684866011E-2,4.408741994E-2
3.913760750E0,2.000477741E-2,3.127579722E-3,3.268652022E-2,3.844972664E-2
3.923797750E0,1.205714140E-3,1.471937412E-2,4.211690962E-2,4.463124239E-2
3.933834750E0,4.223882407E-3,1.593504680E-2,3.283620894E-2,3.674212183E-2
3.943871750E0,2.101975812E-2,-5.905011725E-3,2.834437788E-2,3.577852921E-2
3.953908750E0,-4.436232266E-3,-6.572284098E-3,1.726799726E-2,1.900154742E-2
3.963945750E0,1.061605856E-2,-1.406167199E-2,3.508095503E-2,3.925690671E-2
3.973982750E0,3.379852816E-2,3.158119546E-2,-5.437910557E-4,4.626022180E-2
3.984019750E0,3.759935995E-2,1.957159010E-2,3.657784224E-2,5.598836977E-2
3.994056750E0,2.293385330E-2,9.345449461E-3,9.525114298E-4,2.478318646E-2
4.004093750E0,2.513443464E-2,1.410885171E-2,1.771764815E-2,3.383363057E-2
4.014130750E0,-1.015268499E-4,5.714908694E-3,2.550204635E-2,2.613474425E-2
4.024167750E0,-2.952657524E-2,-1.085140442E-2,2.415601730E-2,3.966213302E-2
4.034204750E0,-1.946896689E-2,-2.224457164E-2,3.448453903E-2,4.542075596E-2
4.044241750E0,-1.161165666E-3,-9.814126636E-3,2.700010300E-2,2.875188601E-2
4.054278750E0,1.537785740E-3,1.713696938E-2,2.310878098E-2,2.881069702E-2
4.064315750E0,2.184196344E-2,1.623870458E-2,1.278259814E-2,3.006928181E-2
4.074352750E0,3.238432880E-2,1.134866443E-2,2.071610034E-2,4.008358454E-2
4.084390750E0,4.817637920E-2,2.338241697E-2,1.263290942E-2,5.502082639E-2
4.094427750E0,2.984882535E-2,1.670174468E-2,2.161423266E-2,4.046079218E-2
4.104464750E0,2.846959508E-2,9.573851754E-3,2.505707324E-2,3.911564138E-2
4.114501750E0,-6.001253240E-4,-8.425522554E-3,2.011676073E-2,2.181819523E-2
4.124538750E0,-6.341218580E-3,-2.692127979E-2,3.807940722E-2,4.706386738E-2
4.134575750E0,-8.438619403E-3,-2.433366759E-2,2.146454394E-2,3.352706850E-2
4.144612750E0,-5.300902985E-3,-2.294938954E-2,2.266263843E-2,3.268591796E-2
4.154649750E0,-1.761591116E-2,-1.098864497E-2,2.116633594E-2,2.964935786E-2
4.164686750E0,8.801425430E-3,1.806807452E-2,3.403956592E-2,3.952989318E-2
4.174723750E0,2.034625481E-2,1.730508140E-2,2.371104419E-2,3.571623642E-2
4.184760750E0,1.537407498E-2,1.883304565E-2,3.374018848E-2,4.158660973E-2
4.194797750E0,3.301224668E-2,1.573663433E-2,3.104696095E-2,4.797253250E-2
4.204834750E0,3.802135076E-2,5.681972424E-3,2.475944996E-2,4.572677866E-2
4.214871750E0,2.327470486E-2,-2.397824368E-3,4.212275684E-2,4.818493636E-2
4.224908750E0,4.427735531E-3,3.878805321E-3,1.547757983E-2,1.655915004E-2
4.234945750E0,1.307982399E-2,1.461443030E-3,2.610372484E-2,2.923391971E-2
4.244982750E0,-5.201925156E-3,-4.710932630E-3,2.610314012E-2,2.703010979E-2
4.255019750E0,-2.221144808E-2,-1.073951247E-2,2.206154466E-2,3.309678695E-2
4.265056750E0,-5.433918005E-3,3.893720289E-3,2.280940354E-2,2.376883279E-2
4.275093750E0,1.188761783E-3,1.096955015E-2,3.208951950E-2,3.393348563E-2
4.285130750E0,2.008756577E-2,1.724698840E-2,2.625341356E-2,3.728552844E-2
4.295167750E0,3.492650631E-2,2.031483973E-2,1.008703172E-2,4.164494885E-2
4.305204750E0,3.112785352E-2,3.195294133E-2,8.538221240E-2,9.633304687E-2
4.315241750E0,3.171097167E-2,3.365230209E-2,-6.077595949E-3,4.663689883E-2
4.325278750E0,2.275148869E-2,-4.941322063E-3,4.301913500E-2,4.891516000E-2
4.335315750E0,-2.263877448E-3,-1.581802483E-2,2.730064988E-2,3.163321884E-2
4.345352750E0,-8.560666326E-3,-3.444923647E-3,-1.027121902E-2,1.380762278E-2
4.355389750E0,3.092450746E-3,-1.886843957E-2,9.720528245E-2,9.906789692E-2
4.365427750E0,-3.426695866E-2,-1.518389429E-2,1.697505176E-2,4.114520001E-2
4.375464750E0,-9.223037087E-3,-1.926789577E-2,2.236443043E-2,3.092707501E-2
4.385501750E0,3.214906517E-2,-1.634443412E-2,7.278906405E-2,8.123392618E-2
4.395538750E0,1.664847746E-1,3.142997185E-3,3.312611389E-1,3.707573341E-1
4.405575750E0,1.113583126E-1,-5.219462235E-3,3.460861695E-1,3.635980656E-1
4.415612750E0,6.706767317E-1,-6.215579275E-1,-4.777993798E-1,1.031714003E0
4.425649750E0,1.441731591E0,-8.825451822E-1,-1.317091173E-1,1.695530381E0
4.435686750E0,6.917136980E-1,8.840482821E-1,-5.081195319E-1,1.232150422E0
4.445723750E0,-1.124218060E0,1.049684187E0,-8.411915535E-1,1.753084815E0
4.455760750E0,-1.979956682E0,-1.438321861E-1,1.686808864E0,2.605041325E0
4.465797750E0,6.614369432E-2,-1.982561142E-1,-3.142434025E-1,3.773981864E-1
4.475834750E0,1.013724834E-1,3.709249086E-2,4.929787517E-3,1.080580218E-1
4.485871750E0,9.466952775E-3,8.380439607E-2,3.458920419E-2,9.115488491E-2
4.495908750E0,-9.525900017E-3,5.594476699E-1,8.284112942E-1,9.996688004E-1
4.505945750E0,9.914436534E-2,-1.592841843E-1,5.475841445E-1,5.788345634E-1
4.515982750E0,-2.269986326E-1,9.354403010E-2,1.371500684E0,1.393302907E0
4.526019750E0,-8.086563300E-1,-5.860814083E-1,1.298464867E0,1.638117056E0
4.536056750E0,-5.896597216E-1,-1.335966862E0,8.632840884E-1,1.696397790E0
4.546093750E0,-5.478610832E-1,-1.144885409E0,2.440926021E-1,1.292476524E0
4.556130750E0,-7.927763155E-1,-5.456389220E-1,3.773909926E-1,1.033750493E0
4.566167750E0,-5.598930451E-1,3.836952778E-1,1.294970571E0,1.462070815E0
4.576204750E0,-4.757595786E-1,1.276006735E0,1.298775355E0,1.881849566E0
4.586241750E0,1.265859331E-1,1.874639265E0,1.078256972E0,2.166318183E0
4.596278750E0,2.520034464E-1,2.018152449E0,1.797493733E0,2.714300788E0
4.606315750E0,-1.290772855E-1,1.004332452E0,1.068595617E0,1.472155295E0
4.616352750E0,2.874470749E-1,1.265529841E0,-1.382153141E-1,1.305103472E0
4.626389750E0,-3.996887648E-1,7.652702822E-1,3.776090938E-1,9.423260270E-1
4.636426750E0,-2.421747154E-1,3.172190140E-1,-8.469621706E-1,9.362806278E-1
4.646464750E0,4.519508860E-1,2.243812727E-1,-1.521580583E0,1.603063951E0
4.656501750E0,-1.598286697E-1,-2.826394212E-2,-1.155394610E0,1.166739371E0
4.666538750E0,-4.028266731E-1,-7.486633126E-1,-1.024730390E0,1.331479800E0
4.676575750E0,-5.066515884E-1,-2.047574176E0,-1.521099358E0,2.600576685E0
4.686612750E0,-1.285316234E0,-2.761245850E0,-1.459008944E0,3.377162058E0
4.696649750E0,-1.134150214E0,-9.335008161E-1,-1.252149657E0,1.930181143E0
4.706686750E0,-5.845449793E-1,1.700521170E0,-1.685427167E0,2.464574977E0
4.716723750E0,-5.099684215E-1,2.131750547E0,-1.009375602E0,2.413144689E0
4.726760750E0,-1.463952765E-1,1.747835377E0,4.969051570E-1,1.822985139E0
4.736797750E0,-2.716078448E-1,9.418189189E-1,1.677507699E0,1.942891087E0
4.746834750E0,-1.052796733E0,-4.516046577E-1,2.910885454E0,3.128191467E0
4.756871750E0,-6.495920375E-1,-1.351032359E0,6.450264730E0,6.622172857E0
4.766908750E0,1.808017552E-2,-3.502762111E-1,7.906420818E0,7.914196767E0
4.776945750E0,7.281642902E-1,8.133583684E-1,8.554670627E0,8.624045722E0
4.786982750E0,1.790063676E0,1.888496070E-1,8.720581863E0,8.904411276E0
4.797019750E0,2.706704777E0,-1.142948519E0,7.887757090E0,8.417202266E0
4.807056750E0,2.847777918E0,-1.848132813E0,6.321531261E0,7.175457578E0
4.817093750E0,2.067184861E0,-2.366932723E0,4.964209490E0,5.875287195E0
4.827130750E0,1.456035635E0,-2.751990877E0,4.212624763E0,5.238291797E0
4.837167750E0,1.866729152E0,-2.394850693E0,3.505630317E0,4.637826159E0
4.847204750E0,2.778634593E0,-1.797981683E0,2.903213323E0,4.402521542E0
4.857241750E0,3.364340829E0,-1.316189532E0,2.288607808E0,4.276548818E0
4.867278750E0,3.078147397E0,-5.641346884E-1,1.933394719E0,3.678485352E0
4.877315292E0,2.149427411E0,-3.630501115E-1,1.868191833E0,2.870885630E0
4.887352292E0,2.098209164E0,-1.092800167E0,1.562638562E0,2.835230709E0
4.897389292E0,2.606192309E0,-1.751668519E0,6.395491523E-1,3.204622298E0
4.907426292E0,3.219918403E0,-2.175956813E0,-7.884876752E-1,3.965397255E0
4.917463292E0,3.231421046E0,-2.724906282E0,-2.112591414E0,4.725488197E0
4.927501292E0,2.575830642E0,-2.680382951E0,-3.408515666E0,5.043543923E0
4.937538292E0,1.423761928E0,-1.419236183E0,-4.673625092E0,5.087641976E0
4.947575292E0,-6.168754041E-2,-4.914789408E-1,-4.985296304E0,5.009843924E0
4.957612292E0,-9.850313044E-1,-6.197732842E-1,-5.134644717E0,5.264881952E0
4.967649292E0,-9.419928735E-1,-1.525346190E0,-5.403240076E0,5.692893368E0
4.977686292E0,-5.678371453E-1,-2.239826242E0,-5.274488481E0,5.758427680E0
4.987723292E0,-2.277975816E-1,-1.563407471E0,-5.245931849E0,5.478680099E0
4.997760292E0,-1.675604430E-1,-1.622035164E-1,-5.266501184E0,5.271662091E0
5.007797292E0,-3.033056009E-1,1.018270386E0,-5.064761134E0,5.175004755E0
5.017834292E0,1.377254637E-1,1.337378088E0,-4.250294280E0,4.457863829E0
5.027871292E0,2.403243640E-1,1.097935776E0,-2.812620656E0,3.028870041E0
5.037908292E0,1.006400100E0,3.564629307E-1,-2.202897567E0,2.447991967E0
5.047945292E0,1.460991589E0,-2.493109497E-1,-2.157318521E0,2.617379524E0
5.057982292E0,1.476822487E0,-4.527709579E-1,-2.436861622E0,2.885186434E0
5.068019292E0,1.221781850E0,-6.455290997E-1,-2.485511041E0,2.843804466E0
5.078056292E0,8.770700687E-1,-4.975726166E-1,-2.114966553E0,2.343056537E0
5.088093292E0,6.109527594E-1,-3.308720067E-1,-1.467709016E0,1.623856310E0
5.098130292E0,2.484245118E-1,-3.041002375E-1,-7.433272898E-1,8.406706563E-1
5.108167292E0,-6.340238258E-2,-1.062421542E-1,1.469849682E-1,1.921245386E-1
5.118204292E0,-2.530663240E-1,2.017092057E-1,9.117610145E-1,9.674902147E-1
5.128241292E0,-2.731534101E-1,5.060007933E-1,1.349426275E0,1.466833617E0
5.138278292E0,-1.798876892E-1,7.758198287E-1,1.528019537E0,1.723107569E0
5.148315292E0,-1.053788128E-1,8.457817639E-1,1.498091149E0,1.723580162E0
5.158352292E0,-6.198837966E-2,7.630180809E-1,1.499427822E0,1.683544756E0
5.168389292E0,-9.677343634E-1,-9.009126753E-2,2.807179822E0,2.970670764E0
5.178426292E0,-1.919404086E0,-1.246261511E0,4.115742831E0,4.709205756E0
5.188463292E0,-4.918326974E-2,-2.647458449E0,2.263665340E0,3.483623976E0
5.198500292E0,2.120519069E-1,-3.529349547E0,7.549223185E-1,3.615408959E0
5.208537292E0,4.311096552E-1,-1.224897539E0,1.112831558E0,1.710153090E0
5.218575292E0,-1.520103577E-1,8.348362148E-4,2.300760076E0,2.305776393E0
5.228612292E0,-1.387582281E-1,-3.590604101E-1,1.661091056E0,1.705110471E0
5.238649292E0,2.311676243E-1,-1.034346721E0,7.538897002E-1,1.300638801E0
5.248686292E0,5.270829293E-1,-1.294824099E0,2.146278977E-1,1.414373004E0
5.258723292E0,6.465181562E-1,-1.067322971E0,4.491597176E-1,1.326238479E0
5.268760292E0,9.046332586E-1,-1.147340071E0,9.628025293E-1,1.749782638E0
5.278797292E0,9.919216633E-1,-1.492140145E0,9.203371257E-1,2.014301671E0
5.288834292E0,5.691726494E-1,-1.807925458E0,8.607732940E-1,2.081701859E0
5.298871292E0,1.346643001E-2,-2.049707241E0,9.947458684E-1,2.278376716E0
5.308908292E0,-5.166330779E-1,-2.144096212E0,1.416355260E0,2.621091476E0
5.318945292E0,-9.717069617E-1,-2.259812610E0,1.983183761E0,3.159744496E0
5.328982292E0,-1.019390421E0,-2.495972879E0,2.063187119E0,3.394963701E0
5.339019292E0,-7.622263679E-1,-2.764696000E0,1.539287707E0,3.254833276E0
5.349056292E0,-4.824742287E-2,-1.737641634E0,2.222158295E-1,1.752457171E0
5.359093292E0,4.515924516E-1,-1.562547053E0,-9.620809829E-1,1.889732482E0
5.369130292E0,4.771237341E-1,-1.840409372E0,-2.406528606E0,3.066942068E0
5.379167292E0,-5.440126652E-1,-2.078891571E0,-3.110293050E0,3.780431563E0
5.389204292E0,-2.671539037E0,-1.578722498E0,-2.678343442E0,4.099147368E0
5.399241292E0,-3.599846210E0,-5.214868516E-1,-2.367704848E0,4.340146025E0
5.409278292E0,-3.035793383E0,-8.093406004E-1,-1.734501679E0,3.588811746E0
5.419315292E0,-2.256175934E0,-1.143000267E0,-6.782536268E-2,2.530094807E0
5.429352292E0,-2.357761950E0,-1.120455158E0,1.590819218E0,3.056986581E0
5.439389292E0,-1.909669642E0,-1.469300044E0,2.077984083E0,3.181776015E0
5.449426292E0,-1.159919770E0,-1.807459728E0,1.375821192E0,2.550531022E0
5.459463292E0,1.972379860E-1,-1.415374097E0,4.488217485E-1,1.497874367E0
5.469500292E0,1.565682623E0,1.718806583E-1,-4.904281962E-1,1.649674165E0
5.479537292E0,2.022356597E0,1.786406828E0,-7.411322451E-1,2.798294581E0
5.489574292E0,1.707163607E0,1.862177387E0,-8.383182317E-1,2.661745604E0
5.499611292E0,6.044997722E-1,7.233508623E-1,-1.431481422E0,1.713999856E0
5.509649292E0,-2.708985776E-2,-7.934209710E-1,-1.824611365E0,1.989838519E0
5.519686292E0,-6.036180121E-1,-1.128329018E0,-1.157216018E0,1.725291277E0
5.529723292E0,-1.041459567E0,1.718134153E-1,5.925311065E-1,1.210475523E0
5.539760292E0,-9.263714522E-1,6.488228363E-1,1.891641507E0,2.203960691E0
5.549797292E0,-4.624098006E-1,-9.933893144E-2,2.584054166E0,2.626980582E0
5.559834292E0,3.343853062E-1,-6.710995585E-1,2.740919175E0,2.841623844E0
5.569871292E0,1.050292517E0,-1.024626310E0,1.967977492E0,2.454772668E0
5.579908292E0,1.457204201E0,-9.505350709E-1,8.637185365E-1,1.942413631E0
5.589945292E0,1.606823340E0,-4.432300562E-1,1.627145630E-1,1.674756746E0
5.599982292E0,9.596529266E-1,-9.053887188E-2,-1.996923548E-1,9.843820719E-1
5.610019292E0,2.963317730E-1,5.424304086E-1,1.607995999E-1,6.386703212E-1
5.620056292E0,8.871788813E-1,7.124452204E-1,5.895589668E-1,1.281500813E0
5.630093292E0,3.983846895E-1,1.033573135E0,4.744594502E-1,1.205029276E0
5.640130292E0,-2.174385081E-1,1.618510462E0,-5.701035261E-2,1.634045838E0
5.650167292E0,2.187353913E0,9.835601449E-3,-1.670894498E-1,2.193748565E0
5.660204292E0,9.964050159E-1,3.339760011E-1,8.305145377E-1,1.339446648E0
5.670241292E0,-5.132728292E-1,9.406743264E-1,1.578915457E0,1.908216760E0
5.680278292E0,6.680297703E-3,2.554835629E-1,2.332142082E0,2.346103828E0
5.690315292E0,-2.787199594E-1,6.195247775E-1,3.909108662E0,3.967697859E0
5.700352292E0,1.739527653E-1,3.386602056E-1,5.525751523E0,5.538851884E0
5.710389292E0,6.758343413E-1,1.997286075E-1,7.133711854E0,7.168436956E0
5.720426292E0,6.158929257E-1,3.485110098E-1,7.959636328E0,7.991032129E0
5.730463292E0,7.029032222E-1,-8.556230664E-2,7.782194383E0,7.814342151E0
5.740500292E0,1.369342184E0,-1.797124189E-1,7.007862232E0,7.142655503E0
5.750537292E0,2.129487528E0,2.973695076E-1,6.231345561E0,6.591874791E0
5.760574292E0,2.380799688E0,5.565520191E-1,5.975322885E0,6.456193993E0
5.770611292E0,2.493055703E0,3.130564177E-1,6.172552977E0,6.664363534E0
5.780648292E0,2.499320702E0,-2.823503494E-1,6.106529142E0,6.604242867E0
5.790685292E0,2.189473821E0,-1.016067740E0,6.081907686E0,6.543377596E0
5.800723292E0,1.527939138E0,-1.825562122E0,6.004450790E0,6.459156629E0
5.810760292E0,1.005999420E0,-2.846883586E0,6.229920010E0,6.923054551E0
5.820797292E0,8.013722342E-1,-3.980796111E0,7.095213202E0,8.175022049E0
5.830834292E0,8.188228838E-1,-5.233913482E0,8.086745440E0,9.667459494E0
5.840871292E0,1.181025149E0,-6.232493370E0,8.516819261E0,1.061955763E1
5.850908292E0,1.401324992E0,-7.175185570E0,8.127965387E0,1.093210049E1
5.860945292E0,1.036004699E0,-8.484119877E0,6.798465838E0,1.092120568E1
5.870982292E0,4.410380447E-1,-9.286413998E0,4.253299749E0,1.022362745E1
5.881019125E0,4.231468438E-1,-9.324139649E0,1.210925617E0,9.411959110E0
5.891056125E0,9.368257256E-2,-8.542137120E0,-2.438866632E0,8.883971716E0
5.901093125E0,-1.174740342E-2,-7.495746889E0,-6.340934662E0,9.818035028E0
5.911130125E0,-5.227069828E-1,-6.583934419E0,-8.503837273E0,1.076738888E1
5.921167125E0,-8.790435040E-1,-6.737816763E0,-9.130297433E0,1.138126634E1
5.931204125E0,-6.827011652E-1,-7.230135364E0,-9.020382643E0,1.158051127E1
5.941241125E0,-4.406469025E-1,-7.227258534E0,-8.296036584E0,1.101143309E1
5.951278125E0,3.944255398E-1,-7.075489374E0,-7.117230892E0,1.004355997E1
5.961315125E0,1.388852881E0,-6.411434541E0,-6.023882257E0,8.906321499E0
5.971352125E0,1.896128660E0,-5.712595206E0,-5.163925819E0,7.930648003E0
5.981389125E0,2.373304726E0,-5.346156633E0,-4.649495387E0,7.472066209E0
5.991426125E0,2.551164747E0,-4.824659257E0,-4.652753456E0,7.171742692E0
6.001463125E0,2.432738750E0,-4.218087232E0,-5.276760124E0,7.180158433E0
6.011500125E0,2.094331436E0,-3.758776163E0,-6.194273629E0,7.542124913E0
6.021537125E0,1.599176643E0,-3.392025349E0,-7.090558233E0,8.021173104E0
6.031574125E0,1.286748509E0,-2.894034948E0,-8.130334679E0,8.725451392E0
6.041611125E0,1.384927353E0,-2.186870348E0,-9.308187860E0,9.661407088E0
6.051648125E0,1.604053806E0,-1.084428123E0,-1.062699870E1,1.080194771E1
6.061685125E0,2.364237742E0,-2.496492112E-1,-1.209589061E1,1.232730767E1
6.071722125E0,3.302019743E0,2.848763466E-1,-1.283824141E1,1.325914520E1
6.081759125E0,3.508308926E0,-1.443490434E-1,-1.196797809E1,1.247243231E1
6.091796125E0,3.077906199E0,-7.912902457E-1,-9.935740864E0,1.043161509E1
6.101833125E0,2.997728886E0,-1.562874790E0,-7.712526562E0,8.420927624E0
6.111871125E0,2.734740422E0,-2.171486324E0,-5.761237024E0,6.736913988E0
6.121908125E0,2.125788872E0,-2.160277212E0,-4.459829253E0,5.392202975E0
6.131945125E0,1.645764627E0,-1.744271207E0,-3.590978908E0,4.318119123E0
6.141982125E0,1.521777927E0,-1.477660393E0,-2.899862283E0,3.592838649E0
6.152019125E0,1.268118111E0,-1.594085473E0,-2.690319124E0,3.374470185E0
6.162056125E0,7.709299484E-1,-1.933847294E0,-2.748783095E0,3.448174422E0
6.172093125E0,2.270451911E-1,-2.317790092E0,-2.839701451E0,3.672547448E0
6.182130125E0,5.145092230E-1,-2.619818661E0,-2.624240910E0,3.743635921E0
6.192167125E0,4.883039027E-1,-2.225009982E0,-1.614726144E0,2.792212499E0
6.202204125E0,2.428341351E-1,-1.757374232E0,-2.399597901E-1,1.790227167E0
6.212241125E0,4.401105666E-1,-1.735293392E0,8.155528285E-1,1.967248556E0
6.222278125E0,4.007732771E-1,-1.530846666E0,1.310507793E0,2.054638997E0
6.232315125E0,2.897850841E-1,-1.483262025E0,1.183287291E0,1.919429718E0
6.242352125E0,1.746162781E-1,-1.601620780E0,6.450876349E-1,1.735459024E0
6.252389125E0,-6.266934639E-1,-2.454645343E0,-3.107239634E-1,2.552367105E0
6.262426125E0,-6.836295569E-1,-2.507314138E0,-1.009981958E0,2.788196033E0
6.272463125E0,2.334851682E-2,-1.728041090E0,-1.372262869E0,2.206757020E0
6.282500125E0,-4.399912834E-1,-2.138859445E0,-1.530250250E0,2.666454178E0
6.292537125E0,-8.655342431E-1,-2.982686339E0,-1.436959971E0,3.422049281E0
6.302574125E0,-8.214406823E-1,-3.334099907E0,-1.226565165E0,3.646292512E0
6.312611125E0,-3.635404006E-2,-3.332427603E0,-1.070484853E0,3.500333293E0
6.322648125E0,1.230802350E0,-3.179260374E0,3.349051237E-2,3.409353687E0
6.332685125E0,2.141885233E0,-2.614129905E0,1.803263766E0,3.830549271E0
6.342722125E0,2.523576999E0,-2.324986260E0,3.054667318E0,4.594017240E0
6.352759125E0,2.509140224E0,-2.797313815E0,4.133084503E0,5.585976795E0
6.362796125E0,2.066090847E0,-2.995889937E0,5.063790497E0,6.235868993E0
6.372833125E0,1.338069229E0,-2.839817226E0,5.085578976E0,5.976462554E0
6.382870125E0,4.957880464E-1,-2.659124229E0,4.490017258E0,5.241851050E0
6.392907125E0,-3.645428326E-1,-2.504968235E0,4.415334281E0,5.089492524E0
6.402945125E0,-8.403646110E-1,-2.245417349E0,4.489013291E0,5.089140603E0
6.412982125E0,-8.011100596E-1,-1.839234667E0,4.637510349E0,5.052827300E0
6.423019125E0,-5.048953772E-1,-1.316885351E0,5.597544807E0,5.772487699E0
6.433056125E0,2.558047213E-2,-8.948385876E-1,6.727985255E0,6.787280460E0
6.443093125E0,7.075552670E-1,-6.316141883E-1,8.176959207E0,8.231781873E0
6.453130125E0,6.938844768E-1,-7.456910267E-1,9.938525308E0,9.990586373E0
6.463167125E0,3.406692358E-1,-1.394819965E0,1.116248554E1,1.125445075E1
6.473204125E0,8.424704857E-2,-1.907731290E0,1.162075756E1,1.177660997E1
6.483241125E0,-2.404185042E-1,-2.346605755E0,1.151860319E1,1.175766044E1
6.493278125E0,-5.355640233E-2,-2.540101231E0,1.090429471E1,1.119636663E1
6.503315125E0,4.309151622E-1,-2.264933016E0,9.663330197E0,9.934563903E0
6.513352125E0,7.530130564E-1,-2.082396392E0,8.117524014E0,8.414130942E0
6.523389125E0,8.533834367E-1,-1.986841779E0,6.744924638E0,7.083065150E0
6.533426125E0,6.755864925E-1,-2.023869272E0,6.117035419E0,6.478470981E0
6.543463125E0,4.079894722E-1,-2.382975436E0,6.665518865E0,7.090427990E0
6.553500125E0,5.756022112E-1,-2.942584965E0,7.662652152E0,8.228387581E0
6.563537125E0,7.670227658E-1,-3.480788421E0,8.026630801E0,8.782426428E0
6.573574125E0,3.046017093E-1,-4.230260550E0,7.393681401E0,8.523755697E0
6.583611125E0,1.398711543E-1,-4.946631006E0,6.771597882E0,8.387088894E0
6.593648125E0,4.210920226E-1,-5.667423127E0,6.603334896E0,8.712120014E0
6.603685125E0,6.916721828E-1,-6.847784178E0,5.712951887E0,8.944740232E0
6.613722125E0,9.205947686E-1,-7.586468194E0,3.787089550E0,8.529011763E0
6.623759125E0,6.092208507E-1,-7.343059716E0,2.133521815E0,7.670957657E0
6.633796125E0,6.992356293E-1,-7.682138582E0,9.157210413E-1,7.768058232E0
6.643833125E0,8.679788178E-1,-8.210695887E0,-3.351176700E-1,8.263245006E0
6.653870125E0,9.425617345E-1,-8.388686301E0,-1.222309269E0,8.529508804E0
6.663907125E0,4.155902678E-1,-8.097330070E0,-1.834436003E0,8.312919161E0
6.673944125E0,-2.426317118E-1,-7.680025399E0,-2.443582996E0,8.063048935E0
6.683982125E0,3.657134086E-1,-7.578120124E0,-2.269909582E0,7.919225999E0
6.694019125E0,5.111468547E-1,-7.430912962E0,-1.671828298E0,7.633789912E0
6.704056125E0,-7.772754016E-3,-7.247879325E0,-1.216368206E0,7.349242596E0
6.714093125E0,2.319050313E-1,-7.486994777E0,-1.004715371E0,7.557666552E0
6.724130125E0,4.044037768E-1,-7.495804777E0,-8.466732451E-1,7.554302565E0
6.734167125E0,-6.190988079E-2,-7.570374318E0,-7.982254820E-1,7.612592467E0
6.744204125E0,-3.755910735E-1,-7.422143893E0,-1.334644368E0,7.550534035E0
6.754241125E0,4.904936850E-3,-7.106962597E0,-2.294138543E0,7.468066220E0
6.764278125E0,2.024765065E-1,-6.890006338E0,-3.246582583E0,7.619283598E0
6.774315125E0,1.794753143E-1,-6.414938777E0,-4.022096457E0,7.573698621E0
6.784352125E0,4.441448531E-1,-5.510418954E0,-4.665848587E0,7.234094604E0
6.794389125E0,1.101173672E0,-4.600079398E0,-5.393544223E0,7.173815806E0
6.804426125E0,1.813556035E0,-3.745243952E0,-6.151521127E0,7.426779243E0
6.814463125E0,2.127886561E0,-2.976070799E0,-6.768321102E0,7.693833190E0
6.824500125E0,1.956071976E0,-2.288639967E0,-7.218473092E0,7.821153640E0
6.834537125E0,1.967800906E0,-1.700218284E0,-7.440690091E0,7.882058846E0
6.844574125E0,2.345960222E0,-9.147401708E-1,-7.555177404E0,7.963729312E0
6.854611125E0,3.227039727E0,2.914410156E-1,-7.941927450E0,8.577466694E0
6.864648125E0,3.980422181E0,1.106717125E0,-8.626876139E0,9.565122867E0
6.874685125E0,4.273931357E0,1.330328100E0,-9.060940100E0,1.010628011E1
6.884723250E0,4.176089605E0,1.490905505E0,-8.784211848E0,9.839964503E0
6.894760250E0,4.000595368E0,1.420033743E0,-7.883557035E0,8.953866799E0
6.904797250E0,4.362756118E0,9.889156097E-1,-6.759781829E0,8.105938897E0
6.914834250E0,4.034496062E0,1.047487754E0,-5.708924909E0,7.068678284E0
6.924871250E0,3.458427499E0,7.389623433E-1,-5.035698718E0,6.153458190E0
6.934908250E0,3.035188488E0,4.283360285E-1,-4.845756303E0,5.733863886E0
6.944945250E0,2.025413522E0,1.216244245E-1,-5.134848200E0,5.521209874E0
6.954982250E0,1.353074061E0,-4.266789275E-1,-5.422505482E0,5.605036131E0
6.965019250E0,1.191268448E0,-4.024053812E-1,-5.094929259E0,5.247795228E0
6.975056250E0,1.358502031E0,-1.201550192E-1,-4.696879761E0,4.890873591E0
6.985094250E0,1.624226408E0,-7.198039412E-2,-4.599085371E0,4.877999473E0
6.995131250E0,1.527594445E0,-7.348722160E-2,-4.485354981E0,4.738919124E0
7.005168250E0,1.200851449E0,-2.934290689E-1,-4.093529259E0,4.276111156E0
7.015205250E0,1.050755470E0,-8.024315304E-1,-3.287681201E0,3.543561922E0
7.025242250E0,8.187607571E-1,-1.131708709E0,-2.342725397E0,2.727543962E0
7.035279250E0,3.897774419E-1,-1.224318665E0,-1.690739948E0,2.123554618E0
7.045316250E0,-7.841291606E-2,-1.373929617E0,-1.789695886E0,2.257618778E0
7.055353250E0,-3.396799600E-1,-1.644647516E0,-2.475877753E0,2.991691591E0
7.065390250E0,-4.546835822E-1,-1.903082753E0,-3.292996320E0,3.830441996E0
7.075427250E0,-6.071055838E-1,-2.288112549E0,-3.796146303E0,4.473786202E0
7.085464250E0,-2.065350589E-1,-2.905701898E0,-3.715115004E0,4.720999866E0
7.095501250E0,5.426388618E-1,-3.278776476E0,-2.526790629E0,4.174865626E0
7.105538250E0,9.540533406E-1,-3.545224153E0,-4.707020295E-1,3.701404122E0
7.115575250E0,1.169399861E0,-3.077448070E0,1.570044353E0,3.647358213E0
7.125612250E0,1.895983941E0,-2.973635434E0,4.061162581E0,5.378689832E0
7.135649250E0,2.786397648E0,-2.756769807E0,6.611346166E0,7.685941045E0
7.145686250E0,1.949367851E0,-1.979205900E0,8.153875569E0,8.614115033E0
7.155723250E0,6.966928214E-1,-1.605602149E0,8.108453813E0,8.295201166E0
7.165760250E0,2.369946671E-1,-1.742334609E0,6.660036516E0,6.888249614E0
7.175797250E0,3.122693825E-1,-1.830565000E0,4.302945241E0,4.686557173E0
7.185834250E0,8.824325502E-1,-1.675375219E0,1.865195720E0,2.657917305E0
7.195871250E0,1.548599690E0,-1.401369431E0,-6.770081699E-2,2.089636495E0
7.205908250E0,1.900954367E0,-1.346667559E0,-7.889665622E-1,2.459595344E0
7.215945250E0,1.288471830E0,-7.389880711E-1,3.939093769E-1,1.536693731E0
7.225982250E0,1.067183807E0,-3.454242647E-1,1.935150054E0,2.236739799E0
7.236019250E0,1.377522293E0,-7.392751694E-1,2.963957123E0,3.350990491E0
7.246056250E0,1.576995962E0,-8.397776967E-1,3.699122869E0,4.107998642E0
7.256093250E0,1.531612213E0,-7.902500260E-1,3.735717668E0,4.114112002E0
7.266130250E0,1.579355606E0,-9.061061722E-1,3.023150826E0,3.529140609E0
7.276168250E0,1.607786669E0,-9.296207500E-1,1.799135631E0,2.585742008E0
7.286205250E0,1.445291376E0,-7.232578915E-1,7.784690559E-1,1.793873800E0
7.296242250E0,1.036589421E0,-3.439893579E-1,9.142718089E-1,1.424338178E0
7.306279250E0,3.597356173E-1,-2.347388113E-1,2.271963124E0,2.312212892E0
7.316316250E0,-2.160433625E-1,-5.693644381E-1,4.015999272E0,4.061908511E0
7.326353250E0,-6.651016308E-1,-8.912869889E-1,5.304207539E0,5.419535985E0
7.336390250E0,-7.607974546E-1,-1.310257532E0,5.796980469E0,5.991708448E0
7.346427250E0,-7.590707718E-1,-1.357597175E0,5.446480821E0,5.664222087E0
7.356464250E0,-1.076398215E0,-9.769522065E-1,5.044084210E0,5.249367034E0
7.366501250E0,-2.035668222E0,3.082067370E-2,5.270053952E0,5.649633943E0
7.376538250E0,-1.136470974E0,-2.423314208E-1,6.581341179E0,6.683138672E0
7.386575250E0,1.733074520E-1,-1.158644493E0,8.461191190E0,8.541911314E0
7.396612250E0,9.342366151E-1,-2.517276040E0,9.730416471E0,1.009408150E1
7.406649250E0,1.047860221E0,-3.718414003E0,9.900373396E0,1.062741771E1
7.416686250E0,4.093825713E-2,-3.610880198E0,9.107352374E0,9.797142390E0
7.426723250E0,-1.319094575E0,-2.809328674E0,7.668905164E0,8.273115768E0
7.436760250E0,-1.392671990E0,-3.047516173E0,6.626564130E0,7.425512929E0
7.446797250E0,-8.973787643E-1,-3.576229599E0,6.644252542E0,7.598736647E0
7.456834250E0,-4.890540640E-1,-3.896469905E0,7.479237276E0,8.447522822E0
7.466871250E0,-2.487494343E-1,-4.579983687E0,7.871288992E0,9.110176577E0
7.476908250E0,-2.397666675E-1,-5.337975209E0,7.040745803E0,8.838753807E0
7.486945250E0,-4.611521741E-2,-5.535703484E0,5.636196656E0,7.900180531E0
7.496982250E0,8.168346112E-1,-5.618173199E0,4.678950151E0,7.356878645E0
7.507019250E0,1.803253971E0,-5.645812402E0,4.607065067E0,7.506794995E0
7.517056250E0,1.887460455E0,-5.859431071E0,4.306827208E0,7.512935514E0
7.527093250E0,1.356273657E0,-6.524789248E0,3.097380059E0,7.348885371E0
7.537130250E0,8.530421054E-1,-6.731357344E0,1.269947412E0,6.903015207E0
7.547168250E0,6.744161723E-1,-6.101114620E0,-5.615538736E-1,6.163909436E0
7.557205250E0,9.908505265E-1,-5.609733912E0,-1.545598314E0,5.902522637E0
7.567242250E0,1.280427815E0,-5.266067321E0,-1.873800482E0,5.734290598E0
7.577279250E0,1.277962483E0,-4.894552780E0,-2.088800263E0,5.472926234E0
7.587316250E0,1.266387335E0,-4.750883768E0,-1.949723654E0,5.289239622E0
7.597353250E0,8.802634525E-1,-5.064214420E0,-1.645987113E0,5.397259028E0
7.607390250E0,7.417583357E-1,-5.218006716E0,-1.262543668E0,5.419577108E0
7.617427250E0,7.912198598E-1,-5.485715053E0,-4.332377493E-1,5.559387867E0
7.627464250E0,6.993035301E-1,-5.923802483E0,4.004326768E-1,5.978361616E0
7.637501250E0,5.049319223E-1,-6.048186793E0,5.314639556E-1,6.092452189E0
7.647538250E0,6.560380080E-1,-6.086021787E0,1.180083601E-1,6.122415621E0
7.657575250E0,8.383299261E-1,-6.031252672E0,-3.919660547E-1,6.101839333E0
7.667612250E0,6.466599512E-1,-5.624910361E0,-1.354193218E0,5.821651392E0
7.677649250E0,6.112707017E-1,-5.126583745E0,-2.796925268E0,5.871822862E0
7.687686250E0,6.169069791E-1,-4.269440403E0,-4.197712316E0,6.019093309E0
7.697723250E0,1.005702381E0,-3.731084334E0,-4.921915995E0,6.257610139E0
7.707760250E0,1.106129772E0,-3.848734406E0,-5.546696835E0,6.841207889E0
7.717797250E0,8.917392710E-1,-3.852879497E0,-5.989500629E0,7.177325207E0
7.727834250E0,7.899427548E-1,-3.449288886E0,-5.839871550E0,6.828301625E0
7.737871250E0,7.722084421E-1,-3.210077539E0,-5.251211300E0,6.202912526E0
7.747908250E0,7.520586446E-1,-3.345787321E0,-4.464685950E0,5.629680776E0
7.757945250E0,7.664419180E-1,-3.854378724E0,-3.607706330E0,5.334717754E0
7.767982250E0,7.286469778E-1,-3.995915256E0,-2.982863510E0,5.039418604E0
7.778019250E0,8.584507799E-1,-3.762565159E0,-2.845953586E0,4.795131503E0
7.788056250E0,1.258349460E0,-3.310119891E0,-3.285871487E0,4.830868295E0
7.798093250E0,2.214753089E0,-2.601465420E0,-4.535041988E0,5.677971417E0
7.808130250E0,3.162843146E0,-1.799998680E0,-6.035608263E0,7.047846417E0
7.818167250E0,3.838447692E0,-1.199710658E0,-7.007956957E0,8.079879148E0
7.828205250E0,4.313067356E0,-9.199658275E-1,-7.586905566E0,8.775535494E0
7.838242250E0,4.408550049E0,-1.053815026E0,-7.676475554E0,8.914825661E0
7.848279250E0,3.960223267E0,-8.426048255E-1,-7.217745699E0,8.275820454E0
7.858316250E0,3.709439988E0,-4.757090002E-1,-6.822475090E0,7.780257736E0
7.868353250E0,3.804570386E0,-4.008143538E-1,-6.673056511E0,7.691884760E0
7.878389875E0,3.617320907E0,-8.466160154E-1,-6.384130383E0,7.386398985E0
7.888426875E0,3.081048785E0,-1.348521127E0,-5.869900510E0,6.765138790E0
7.898463875E0,2.508956914E0,-1.537679138E0,-5.252101246E0,6.020289812E0
7.908500875E0,2.057246348E0,-1.603124099E0,-4.598745941E0,5.286845339E0
7.918537875E0,1.939972837E0,-1.452678748E0,-4.191893752E0,4.842080481E0
7.928574875E0,2.210091396E0,-1.173822110E0,-4.202217596E0,4.890909430E0
7.938611875E0,2.707078706E0,-9.747355270E-1,-4.016340165E0,4.940584256E0
7.948648875E0,3.079061317E0,-5.291092819E-1,-3.251658844E0,4.509308202E0
7.958685875E0,3.178460475E0,-3.178090346E-1,-2.424379570E0,4.010140879E0
7.968722875E0,3.153374458E0,-6.070871651E-1,-1.993095961E0,3.779518065E0
7.978759875E0,2.869804087E0,-8.775384307E-1,-1.875476879E0,3.538822222E0
7.988796875E0,2.355521297E0,-9.929349858E-1,-2.059696916E0,3.282796347E0
7.998833875E0,1.774270054E0,-1.168747312E0,-2.665992368E0,3.409035027E0
8.008870875E0,1.293063794E0,-1.224725631E0,-3.525237200E0,3.949590379E0
8.018907875E0,1.189481246E0,-1.279908144E0,-3.563007290E0,3.968381463E0
8.028944875E0,1.116644527E0,-1.238378295E0,-2.078937764E0,2.665043720E0
8.038981875E0,9.760397485E-1,-1.152468663E0,3.481723098E-1,1.549858564E0
8.049018875E0,8.160897490E-1,-1.078870929E0,2.451701855E0,2.800144094E0
8.059055875E0,8.418968739E-1,-1.020862457E0,3.626927589E0,3.860771198E0
8.069092875E0,9.603440675E-1,-7.593428135E-1,3.598355755E0,3.800924411E0
8.079129875E0,9.678839059E-1,-5.065635878E-1,2.611477023E0,2.830762824E0
8.089166875E0,7.397435313E-1,-5.571846879E-1,1.453996126E0,1.723885148E0
8.099203875E0,2.917857090E-1,-7.421660328E-1,7.911206764E-1,1.123308170E0
8.109240875E0,-2.017046741E-1,-9.924286169E-1,4.157686079E-1,1.094743290E0
8.119278875E0,-3.295666158E-1,-1.276627856E0,2.235829085E-1,1.337304062E0
8.129315875E0,2.610343248E-3,-1.397496820E0,5.062946159E-1,1.486384343E0
8.139352875E0,7.416321820E-1,-1.276179959E0,1.684813794E0,2.239922120E0
8.149389875E0,1.505028139E0,-1.298399379E0,3.883006107E0,4.362188335E0
8.159426875E0,1.837462814E0,-1.408305398E0,6.820336763E0,7.202540333E0
8.169463875E0,1.698043997E0,-1.514993695E0,9.238138801E0,9.514292817E0
8.179500875E0,1.356996666E0,-1.892556011E0,9.848395157E0,1.011998495E1
8.189537875E0,6.629195961E-1,-2.036229116E0,8.562048059E0,8.825778060E0
8.199574875E0,-2.693698230E-1,-1.692348517E0,5.928349863E0,6.171056287E0
8.209611875E0,-9.774632531E-1,-1.151222622E0,3.327006065E0,3.653726494E0
8.219648875E0,-1.087487606E0,-6.747207391E-1,2.190855811E0,2.537267536E0
8.229685875E0,-8.387800886E-1,-3.007094371E-1,2.804302992E0,2.942463844E0
8.239722875E0,-4.899720403E-1,-4.541731203E-1,4.466550043E0,4.516239044E0
8.249759875E0,6.893640675E-2,-7.622623283E-1,6.693779043E0,6.737393707E0
8.259796875E0,2.093398221E-1,-8.744142634E-1,9.089439429E0,9.133801651E0
8.269833875E0,-1.252523294E-1,-9.758540994E-1,1.080861439E1,1.085330016E1
8.279870875E0,-6.308889142E-1,-1.322860621E0,1.128978293E1,1.138451491E1
8.289907875E0,-1.232900038E0,-1.733721660E0,1.063095609E1,1.084172776E1
8.299944875E0,-1.805694453E0,-1.951580145E0,9.325469890E0,9.697091636E0
8.309981875E0,-1.804771470E0,-2.128869478E0,7.992901722E0,8.466153982E0
8.320018875E0,-1.305814087E0,-2.255230731E0,6.988499177E0,7.458574718E0
8.330055875E0,-7.494091250E-1,-2.166578756E0,6.256187457E0,6.662999252E0
8.340092875E0,-1.478066116E-1,-2.079140663E0,5.635482711E0,6.008605335E0
8.350129875E0,4.723537217E-1,-2.139416100E0,5.092221413E0,5.543549243E0
8.360166875E0,9.562392490E-1,-2.240108078E0,4.662236470E0,5.260126101E0
8.370203875E0,1.156004475E0,-2.383622139E0,4.250530508E0,5.008493830E0
8.380241875E0,1.190242261E0,-2.645217796E0,4.052336794E0,4.983501512E0
8.390278875E0,1.004069985E0,-2.923718923E0,4.268824106E0,5.270592768E0
8.400315875E0,5.691656693E-1,-3.289826544E0,4.413721911E0,5.534243341E0
8.410352875E0,2.708044922E-1,-3.793318589E0,4.088731911E0,5.583934960E0
8.420389875E0,1.030405570E-1,-4.079933898E0,3.484192378E0,5.366197396E0
8.430426875E0,1.164990841E-1,-4.171318277E0,2.828021930E0,5.040949935E0
8.440463875E0,3.399022273E-1,-4.228360205E0,2.129166224E0,4.746357799E0
8.450500875E0,4.964127483E-1,-4.425379212E0,1.484695178E0,4.694116164E0
8.460537875E0,4.000117869E-1,-4.368985741E0,9.339359951E-1,4.485563764E0
8.470574875E0,2.584488505E-1,-4.227882487E0,4.436750293E-1,4.258947483E0
8.480611875E0,3.282434640E-1,-4.317265949E0,3.826363836E-1,4.346600931E0
8.490648875E0,3.661237004E-1,-4.531955243E0,8.738750770E-1,4.629937639E0
8.500685875E0,1.574038294E-1,-4.851466987E0,1.326937884E0,5.032124008E0
8.510722875E0,-1.051272547E-1,-5.246197312E0,1.348516449E0,5.417761031E0
8.520759875E0,-4.056600145E-1,-5.449722517E0,9.573131633E-1,5.548016227E0
8.530796875E0,-6.053703861E-1,-5.467333161E0,3.818875015E-1,5.513986150E0
8.540833875E0,-3.204261387E-1,-5.370162962E0,4.554162383E-2,5.379906801E0
8.550870875E0,-2.742263742E-2,-5.282554130E0,1.126128419E-1,5.283825488E0
8.560907875E0,1.992913820E-2,-5.389651732E0,4.298288226E-1,5.406800882E0
8.570944875E0,4.394026150E-1,-5.948171339E0,6.279520771E-1,5.997344475E0
8.580981875E0,7.604833129E-1,-6.273355467E0,7.934651175E-1,6.368901834E0
8.591018875E0,7.995226867E-1,-6.006948135E0,5.398816073E-1,6.083924275E0
8.601055875E0,1.342144153E0,-5.711739759E0,-3.576671648E-1,5.878201068E0
8.611092875E0,1.416504364E0,-5.327174233E0,-1.479266038E0,5.707319680E0
8.621129875E0,8.772308671E-1,-4.990358824E0,-2.555948939E0,5.675040983E0
8.631166875E0,9.175057577E-1,-4.846030245E0,-3.682548351E0,6.155240719E0
8.641203875E0,1.617635426E0,-4.602286137E0,-4.728112956E0,6.793587725E0
8.651240875E0,2.085755618E0,-3.706947028E0,-5.483727584E0,6.939964048E0
8.661278875E0,2.124481142E0,-2.961781958E0,-5.925344394E0,6.956671523E0
8.671315875E0,2.308718429E0,-2.721708148E0,-6.144709706E0,7.106006853E0
8.681352875E0,2.641888099E0,-2.809131623E0,-6.203894638E0,7.304731472E0
8.691389875E0,2.582875075E0,-2.906484840E0,-6.186195701E0,7.306703431E0
8.701426875E0,2.071505076E0,-2.899543610E0,-6.164668592E0,7.120507375E0
8.711463875E0,2.291993638E0,-2.602213864E0,-6.008908122E0,6.937703413E0
8.721500875E0,2.670380996E0,-2.483003170E0,-5.621543534E0,6.700596325E0
8.731537875E0,2.829185234E0,-2.497375041E0,-5.244522670E0,6.461129098E0
8.741574875E0,3.181227377E0,-2.373379571E0,-5.007856616E0,6.389973873E0
8.751611875E0,3.519211352E0,-2.055165909E0,-5.015828710E0,6.462746560E0
8.761648875E0,3.516543852E0,-1.554718509E0,-5.398591540E0,6.627821733E0
8.771685875E0,3.489513052E0,-1.425997319E0,-5.836959051E0,6.948399863E0
8.781722875E0,3.580345161E0,-1.688708040E0,-5.787388111E0,7.011737835E0
8.791759875E0,3.545281748E0,-1.898527772E0,-5.191918194E0,6.567301189E0
8.801796875E0,3.453252128E0,-2.010118960E0,-4.315376714E0,5.881156746E0
8.811833875E0,3.129343571E0,-1.958903198E0,-3.599230791E0,5.156021257E0
8.821870875E0,2.671006941E0,-1.766600554E0,-3.247332781E0,4.560737417E0
8.831907875E0,2.368826490E0,-1.489978137E0,-3.200185512E0,4.251183494E0
8.841944875E0,2.053909781E0,-1.269915837E0,-3.382055261E0,4.155662331E0
8.851981875E0,1.630045703E0,-9.526418227E-1,-3.797805450E0,4.241214646E0
8.862018875E0,1.271218597E0,-6.888704163E-1,-4.310178832E0,4.546227087E0
8.872055875E0,9.661380735E-1,-7.300745755E-1,-4.573291841E0,4.730901598E0
8.882092250E0,5.998326708E-1,-7.943968713E-1,-4.388178934E0,4.499664430E0
8.892129250E0,3.447564396E-1,-7.341588557E-1,-3.968877146E0,4.050905088E0
8.902166250E0,3.869069707E-1,-6.883441669E-1,-3.312083970E0,3.404910413E0
8.912203250E0,3.675738830E-1,-4.629141229E-1,-2.422569273E0,2.493640296E0
8.922240250E0,-2.255628488E-1,-4.056622803E-2,-1.732887847E0,1.747977262E0
8.932277250E0,-8.391863970E-1,9.707021177E-2,-1.505357484E0,1.726197436E0
8.942315250E0,-1.223209886E0,1.726425505E-1,-1.381024044E0,1.852909951E0
8.952352250E0,-1.585885338E0,1.911542505E-1,-1.130651606E0,1.957024605E0
8.962389250E0,-1.817465191E0,3.487045527E-2,-8.228084922E-1,1.995346958E0
8.972426250E0,-1.731779362E0,-6.023497510E-1,-2.926512431E-1,1.856752469E0
8.982463250E0,-2.042117409E0,-7.921714211E-1,3.043563455E-1,2.211427561E0
8.992500250E0,-2.843908815E0,-5.381075621E-1,5.087276423E-1,2.938737979E0
9.002537250E0,-2.871044281E0,-5.244350177E-1,2.102038944E-1,2.926108855E0
9.012574250E0,-2.103244493E0,-4.096477425E-1,-3.173690316E-1,2.166142141E0
9.022611250E0,-7.117244048E-1,-2.749419272E-1,-1.036185086E-2,7.630544278E-1
9.032648250E0,5.986213836E-1,4.080362499E-2,1.791623713E0,1.889425317E0
9.042685250E0,1.448286612E0,7.180146933E-2,4.043669466E0,4.295806364E0
9.052722250E0,1.907833908E0,-3.247052407E-1,5.577153227E0,5.903380543E0
9.062759250E0,1.508925455E0,-6.109270316E-1,5.838485175E0,6.061187755E0
9.072796250E0,3.712668382E-1,-5.797672194E-1,4.467935833E0,4.520665847E0
9.082833250E0,-4.835251196E-1,-3.531630546E-1,2.171643614E0,2.252677667E0
9.092870250E0,-5.886758910E-1,2.053126985E-1,3.183282673E-2,6.242643172E-1
9.102907250E0,2.079910156E-1,9.288155884E-1,-1.198282183E0,1.530306783E0
9.112944250E0,1.605453045E0,1.237679552E0,-7.369737053E-1,2.156956280E0
9.122981250E0,2.707689156E0,1.000324697E0,8.976616234E-1,3.022916878E0
9.133018250E0,3.640070376E0,6.711843431E-1,3.083544377E0,4.817556091E0
9.143055250E0,3.726159225E0,6.803966314E-1,5.442632183E0,6.630946179E0
9.153092250E0,2.803662137E0,4.274501753E-1,6.815613382E0,7.382128474E0
9.163129250E0,1.751223400E0,-1.501512355E-1,7.370835160E0,7.577502210E0
9.173166250E0,1.019590395E0,-6.436199838E-1,7.711194566E0,7.804891601E0
9.183203250E0,4.005018201E-1,-4.896943706E-1,8.103115305E0,8.127772139E0
9.193240250E0,1.040724718E-1,-2.433961987E-1,8.180096238E0,8.184378245E0
9.203277250E0,1.022606389E-1,-4.296592534E-2,7.924446030E0,7.925222280E0
9.213315250E0,2.567761996E-1,-1.193276381E-1,7.677705808E0,7.682925197E0
9.223352250E0,5.917984504E-1,-3.400986207E-1,7.970948936E0,8.000119962E0
9.233389250E0,7.471186244E-1,-5.464556319E-1,8.462826072E0,8.513296960E0
9.243426250E0,4.312868989E-1,-9.212294108E-1,8.733993037E0,8.793026008E0
9.253463250E0,-1.992946162E-1,-1.387344300E0,8.915315194E0,9.024815098E0
9.263500250E0,-6.596005704E-1,-1.707077653E0,9.023032016E0,9.206752619E0
9.273537250E0,-5.601632595E-1,-2.067238655E0,8.929994629E0,9.183249022E0
9.283574250E0,-7.071394203E-2,-2.426720211E0,8.706676015E0,9.038815114E0
9.293611250E0,6.662820375E-1,-2.764280555E0,8.573566489E0,9.032785898E0
9.303648250E0,1.368864905E0,-3.005941885E0,8.601308019E0,9.213684246E0
9.313685250E0,1.974142796E0,-3.513390741E0,8.479731542E0,9.388663446E0
9.323722250E0,1.970067433E0,-4.243881054E0,7.890628073E0,9.173532770E0
9.333759250E0,1.529944002E0,-4.945584354E0,6.878922356E0,8.609245381E0
9.343796250E0,1.121651498E0,-5.281968239E0,5.710101954E0,7.858915630E0
9.353833250E0,8.703245746E-1,-5.557922904E0,4.617218757E0,7.277821166E0
9.363870250E0,9.225707620E-1,-5.940050141E0,4.087431198E0,7.269279626E0
9.373907250E0,1.341629013E0,-6.219152362E0,4.395321893E0,7.732831245E0
9.383944250E0,1.679724524E0,-6.520663453E0,4.838936696E0,8.291913813E0
9.393981250E0,1.945194985E0,-6.813957451E0,4.793653226E0,8.555285555E0
9.404018250E0,2.151915255E0,-7.104934782E0,4.204867554E0,8.531808054E0
9.414055250E0,2.125511714E0,-7.157161528E0,3.438725306E0,8.219950907E0
9.424092250E0,1.952448749E0,-7.161335855E0,2.701914738E0,7.899185439E0
9.434129250E0,1.714008942E0,-7.249372703E0,2.096813287E0,7.738724521E0
9.444166250E0,1.315058388E0,-7.232674225E0,1.688320370E0,7.542637515E0
9.454203250E0,8.953407173E-1,-7.284573526E0,1.518901974E0,7.494912252E0
9.464240250E0,7.564930268E-1,-7.233147849E0,1.634150594E0,7.453935717E0
9.474278250E0,6.058645854E-1,-7.073449865E0,1.913907119E0,7.352809351E0
9.484315250E0,2.862470618E-1,-7.117671188E0,2.229902494E0,7.464291369E0
9.494352250E0,-2.637534628E-1,-7.099068856E0,2.099633253E0,7.407752986E0
9.504389250E0,-3.414287891E-1,-6.982957186E0,1.432939425E0,7.136636468E0
9.514426250E0,-2.983937936E-1,-6.956845860E0,5.070065144E-1,6.981675929E0
9.524463250E0,-4.827552971E-1,-6.565519783E0,-5.838161239E-1,6.609080417E0
9.534500250E0,-6.320025165E-1,-5.977306845E0,-1.865214138E0,6.293381292E0
9.544537250E0,-5.682224037E-1,-5.676550630E0,-2.986752493E0,6.439471579E0
9.554574250E0,-5.091815324E-1,-5.395093735E0,-4.023104224E0,6.749197719E0
9.564611250E0,-2.017967677E-1,-5.124934246E0,-5.035284151E0,7.187472396E0
9.574648250E0,4.050769740E-1,-4.969922220E0,-5.428381349E0,7.370993034E0
9.584685250E0,8.158612691E-1,-4.525783507E0,-5.065212539E0,6.841397813E0
9.594722250E0,1.015654927E0,-4.125545688E0,-4.318051815E0,6.057825817E0
9.604759250E0,1.194009476E0,-4.161725920E0,-3.599527245E0,5.630472240E0
9.614796250E0,1.451146486E0,-4.270294096E0,-3.029632464E0,5.433222861E0
9.624833250E0,1.656245614E0,-4.042440382E0,-3.010658249E0,5.305519472E0
9.634870250E0,1.981277568E0,-3.632575123E0,-3.894618677E0,5.682351403E0
9.644907250E0,2.319079987E0,-3.340699074E0,-5.117738078E0,6.536791669E0
9.654944250E0,2.720116243E0,-3.250735568E0,-6.017531011E0,7.360502264E0
9.664981250E0,2.888117566E0,-2.875176508E0,-6.393035107E0,7.581474851E0
9.675018250E0,2.808619699E0,-2.776507083E0,-6.414169868E0,7.532523568E0
9.685055250E0,2.706761787E0,-2.990570725E0,-6.424108965E0,7.585462981E0
9.695092250E0,2.660606498E0,-3.231902856E0,-6.498520047E0,7.730121979E0
9.705129250E0,2.723978914E0,-3.285736417E0,-6.509984098E0,7.784344409E0
9.715166250E0,2.704063882E0,-3.234961535E0,-6.547284656E0,7.787417671E0
9.725203250E0,2.728204112E0,-3.170324074E0,-6.525280414E0,7.750699123E0
9.735240250E0,2.872976786E0,-2.985554983E0,-6.480153358E0,7.691548720E0
9.745278250E0,3.392158080E0,-2.457859558E0,-6.403944257E0,7.652340302E0
9.755315250E0,4.157110128E0,-1.857451082E0,-6.356449664E0,7.818960383E0
9.765352250E0,4.526278181E0,-1.667909494E0,-6.158526092E0,7.822823012E0
9.775389250E0,4.578105854E0,-1.395674243E0,-5.789232323E0,7.511469277E0
9.785426250E0,4.599330077E0,-1.321709304E0,-5.539666727E0,7.320427590E0
9.795463250E0,4.419331730E0,-1.369759383E0,-5.145188416E0,6.919515702E0
9.805500250E0,3.799194456E0,-1.342095621E0,-4.514615909E0,6.051186329E0
9.815537250E0,3.205573137E0,-1.346098625E0,-3.999011064E0,5.299034831E0
9.825574250E0,2.611888374E0,-1.293225178E0,-3.768880152E0,4.764330996E0
9.835611250E0,2.126033286E0,-1.044692200E0,-3.827004691E0,4.500818173E0
9.845648250E0,1.836313398E0,-7.438827753E-1,-4.104846837E0,4.557979381E0
9.855685250E0,1.531207878E0,-7.083925152E-1,-4.370112792E0,4.684474713E0
9.865722250E0,1.354311917E0,-1.021282872E0,-4.409691718E0,4.724675705E0
9.875759250E0,1.076491697E0,-1.332759372E0,-4.205390003E0,4.540967627E0
9.885796125E0,4.961806870E-1,-1.626850930E0,-3.999028898E0,4.345695727E0
9.895833125E0,1.491975546E-2,-1.851679881E0,-3.646205567E0,4.089468916E0
9.905870125E0,-3.395260321E-1,-1.900224050E0,-3.247167013E0,3.777594866E0
9.915907125E0,-5.730744964E-1,-1.745717223E0,-2.923485035E0,3.452927417E0
9.925944125E0,-6.462433371E-1,-1.434740660E0,-2.881725390E0,3.283359931E0
9.935981125E0,-4.082894343E-1,-1.569134819E0,-2.908676961E0,3.330057958E0
9.946018125E0,1.845410496E-1,-2.076130516E0,-2.048268387E0,2.922289634E0
9.956055125E0,3.355630086E-1,-1.847606125E0,-1.580525780E-1,1.884471158E0
9.966092125E0,-2.944036536E-2,-1.394780204E0,1.662160365E0,2.170035860E0
9.976129125E0,-3.169905706E-1,-1.528453401E0,2.852409205E0,3.251598237E0
9.986166125E0,-7.386432315E-1,-1.357751541E0,3.162966230E0,3.520431571E0
9.996203125E0,-1.148999876E0,-1.001308783E0,2.730423715E0,3.126984755E0
1.000624012E1,-1.238885394E0,-1.367486570E0,1.943342003E0,2.679819897E0
1.001627813E1,-1.029751541E0,-1.917362823E0,1.465988181E0,2.624078844E0
1.002631513E1,-7.719423938E-1,-2.330004925E0,1.553968019E0,2.905104923E0
1.003635213E1,-1.565533519E-1,-2.553557428E0,2.722653058E0,3.736041242E0
1.004638913E1,-3.715627804E-2,-1.938680602E0,4.458827040E0,4.862201316E0
1.005642613E1,-1.461915010E-1,-1.809219739E0,5.551883315E0,5.841066372E0
1.006646313E1,4.951597631E-2,-2.575055301E0,5.960609536E0,6.493244773E0
1.007650013E1,3.640096396E-2,-2.825982714E0,5.850970734E0,6.497796693E0
1.008653713E1,-3.007899825E-1,-2.480597041E0,4.983509395E0,5.574872392E0
1.009657413E1,2.353362505E-1,-2.570816655E0,4.184524798E0,4.916780370E0
1.010661113E1,6.399393077E-1,-2.134255348E0,4.092532309E0,4.659762752E0
1.011664813E1,3.286667293E-1,-1.536483967E0,3.923094617E0,4.226047346E0
1.012668512E1,7.603916578E-1,-1.474598790E0,3.970000981E0,4.302736903E0
1.013672212E1,1.962483155E0,-1.079945648E0,5.552030665E0,5.986874580E0
1.014675912E1,3.200985703E0,-4.018732846E-1,7.848075546E0,8.485287349E0
1.015679612E1,3.763238758E0,-1.707971692E-1,9.324840730E0,1.005702701E1
1.016683312E1,3.109296684E0,-6.537005836E-1,9.369505856E0,9.893568128E0
1.017687012E1,1.924671112E0,-1.319480930E0,8.200224693E0,8.525788752E0
1.018690712E1,7.598485976E-1,-1.255277333E0,6.714388139E0,6.872852331E0
1.019694412E1,4.812273100E-2,-9.778731430E-1,5.595364380E0,5.680374479E0
1.020698112E1,1.453888245E-1,-8.868624008E-1,5.283442907E0,5.359331281E0
1.021701812E1,8.125669478E-1,-7.642579830E-1,5.987350023E0,6.090378938E0
1.022705512E1,1.665401331E0,-8.844445771E-1,6.885157242E0,7.138710951E0
1.023709212E1,2.233074023E0,-1.156359985E0,7.119110187E0,7.550199856E0
1.024712912E1,2.269945980E0,-1.328792621E0,6.782143335E0,7.274325591E0
1.025716712E1,1.946648311E0,-1.610384002E0,6.419143510E0,6.898418636E0
1.026720412E1,1.654847399E0,-2.060858173E0,6.263576583E0,6.798385686E0
1.027724112E1,1.670422189E0,-2.499053192E0,6.195055987E0,6.885803934E0
1.028727812E1,1.894471267E0,-3.008721651E0,6.302260008E0,7.236014688E0
1.029731512E1,2.352150085E0,-3.385440799E0,6.906659208E0,8.043367506E0
1.030735212E1,2.800122233E0,-3.770463578E0,7.605838265E0,8.939007542E0
1.031738912E1,2.804987409E0,-4.678041494E0,7.712579772E0,9.446476238E0
1.032742612E1,2.300767385E0,-5.579980940E0,6.991394134E0,9.236303903E0
1.033746312E1,1.394030006E0,-6.232038456E0,5.633536173E0,8.515770828E0
1.034750012E1,8.396343669E-1,-6.657501163E0,3.910774534E0,7.766689453E0
1.035753712E1,6.856751322E-1,-6.898085436E0,2.703844904E0,7.440733185E0
1.036757412E1,7.695183574E-1,-6.759076070E0,2.118472251E0,7.124969649E0
1.037761112E1,1.177144352E0,-6.900517877E0,1.978796595E0,7.274506977E0
1.038764812E1,1.784852930E0,-7.051300027E0,2.364443856E0,7.648341441E0
1.039768512E1,1.848929497E0,-7.225347664E0,2.666505754E0,7.920507691E0
1.040772212E1,1.574169564E0,-7.742005885E0,2.539876113E0,8.298652638E0
1.041775912E1,1.474650100E0,-7.927970147E0,2.153359371E0,8.346511855E0
1.042779612E1,1.634130422E0,-7.790233135E0,1.649420013E0,8.128880668E0
1.043783312E1,1.544935678E0,-7.573179227E0,1.558708649E0,7.884760143E0
1.044787012E1,1.129028199E0,-7.415794986E0,1.792909516E0,7.712538135E0
1.045790712E1,7.919369477E-1,-7.458895982E0,1.814232119E0,7.717106425E0
1.046794412E1,5.630429401E-1,-7.476683797E0,1.183797022E0,7.590730751E0
1.047798112E1,4.781831034E-1,-7.265528560E0,1.216586307E-2,7.281257608E0
1.048801812E1,8.710657091E-1,-7.038295820E0,-1.432345933E0,7.235190280E0
1.049805512E1,8.992634681E-1,-6.029465178E0,-3.186694231E0,6.878818594E0
1.050809212E1,1.050498046E0,-5.269571557E0,-5.091065419E0,7.402086033E0
1.051813012E1,1.242218892E0,-4.721403276E0,-6.558888456E0,8.176415745E0
1.052816712E1,1.145466330E0,-4.506224570E0,-7.187415022E0,8.560203718E0
1.053820412E1,9.900140092E-1,-4.393638187E0,-7.565335187E0,8.804458005E0
1.054824112E1,1.222841658E0,-4.116480165E0,-7.854004623E0,8.951320533E0
1.055827812E1,1.411838871E0,-3.912431050E0,-7.985727773E0,9.004013204E0
1.056831512E1,1.662497019E0,-3.667885873E0,-7.853067899E0,8.825415488E0
1.057835212E1,1.934404534E0,-3.411564404E0,-7.495938678E0,8.459892981E0
1.058838912E1,2.489334535E0,-3.349144208E0,-7.076137830E0,8.214942479E0
1.059842612E1,2.901716728E0,-3.332873161E0,-6.733021461E0,8.053668821E0
1.060846312E1,3.047067107E0,-3.272021188E0,-6.487027345E0,7.878595330E0
1.061850012E1,3.296012606E0,-3.089171153E0,-6.115996369E0,7.603426141E0
1.062853712E1,3.739361360E0,-2.842979985E0,-5.602455883E0,7.311147003E0
1.063857412E1,4.157888392E0,-2.388395221E0,-5.092978628E0,6.995062467E0
1.064861112E1,4.318406449E0,-1.724831554E0,-4.978434597E0,6.812377645E0
1.065864812E1,4.341122881E0,-1.206215100E0,-5.180108573E0,6.865408041E0
1.066868512E1,4.321018108E0,-8.014889592E-1,-5.378319243E0,6.945494937E0
1.067872212E1,4.081637484E0,-6.194166040E-1,-5.524619502E0,6.896728364E0
1.068875912E1,3.776567486E0,-6.340375668E-1,-5.437505929E0,6.650634281E0
1.069879612E1,3.381857918E0,-5.469391966E-1,-5.152782780E0,6.187671277E0
1.070883312E1,2.884970302E0,-4.456309229E-1,-4.934029087E0,5.732912313E0
1.071887012E1,2.430981369E0,-4.216854054E-1,-4.776897738E0,5.376452454E0
1.072890712E1,1.836225105E0,-5.174247909E-1,-4.731503464E0,5.101624847E0
1.073894412E1,1.309876586E0,-7.181866014E-1,-4.716442498E0,4.947362782E0
1.074898112E1,1.126820437E0,-7.874573958E-1,-4.359613824E0,4.571219328E0
1.075901812E1,1.024151516E0,-5.573612738E-1,-3.633291407E0,3.815801929E0
1.076905512E1,9.079629555E-1,-2.762470257E-1,-2.916129237E0,3.066678802E0
1.077909212E1,7.521641868E-1,1.047990614E-1,-2.565136085E0,2.675192879E0
1.078913013E1,5.268464094E-1,5.176598489E-1,-2.627335256E0,2.729181087E0
1.079916713E1,2.086309934E-1,7.613139099E-1,-2.980551521E0,3.083312039E0
1.080920413E1,9.029986694E-2,5.715167981E-1,-3.219931852E0,3.271505257E0
1.081924113E1,-7.442219138E-2,3.213705736E-1,-3.082543918E0,3.100144306E0
1.082927813E1,-2.546773781E-1,3.080196261E-2,-2.807894352E0,2.819588626E0
1.083931513E1,-3.015808184E-1,-1.937632781E-1,-2.646824026E0,2.670987200E0
1.084935212E1,-3.417460737E-1,-1.787552297E-1,-2.487370455E0,2.517092687E0
1.085938912E1,-2.814048547E-1,-2.857978678E-1,-2.352781146E0,2.386723326E0
1.086942612E1,-2.280557361E-1,-5.559567726E-1,-2.218889263E0,2.298818591E0
1.087946312E1,-1.239652111E-1,-9.587656116E-1,-2.030140557E0,2.248570558E0
1.088950000E1,5.122298321E-1,-1.430402611E0,-1.332515835E0,2.020898187E0
1.089953700E1,1.128015315E0,-1.471575195E0,1.345947182E-1,1.859050253E0
1.090957400E1,1.224282997E0,-1.133241849E0,1.885461877E0,2.517552866E0
1.091961100E1,1.155581283E0,-1.125178539E0,3.285424175E0,3.659973614E0
1.092964800E1,1.275049692E0,-1.481655795E0,3.946564464E0,4.404137450E0
1.093968500E1,1.427487920E0,-1.726109170E0,3.738093392E0,4.357811014E0
1.094972200E1,1.856909776E0,-1.804043784E0,3.006286871E0,3.967423426E0
1.095975900E1,2.302362067E0,-1.578255306E0,2.395086190E0,3.678069977E0
1.096979600E1,2.196107195E0,-1.334974297E0,1.907620193E0,3.200633998E0
1.097983300E1,2.045615652E0,-1.247084799E0,2.180948288E0,3.239799273E0
1.098987000E1,1.776683493E0,-1.383463503E0,3.519175977E0,4.177939091E0
1.099990700E1,1.314904607E0,-1.541200331E0,5.272360679E0,5.648190835E0
1.100994400E1,8.480374736E-1,-1.535304583E0,6.431712685E0,6.666577516E0
1.101998100E1,2.975917017E-1,-1.526928447E0,6.532863668E0,6.715532668E0
1.103001800E1,-3.352908938E-1,-1.394038777E0,5.734709961E0,5.911231888E0
1.104005500E1,-8.038098653E-1,-1.093921078E0,4.570591305E0,4.767921822E0
1.105009300E1,-1.171893406E0,-8.470416927E-1,3.590596207E0,3.870813210E0
1.106013000E1,-1.248581101E0,-7.700227529E-1,3.092850806E0,3.423100336E0
1.107016700E1,-5.687624672E-1,-4.780782920E-1,3.440632668E0,3.519943572E0
1.108020400E1,1.476840028E-1,-3.057573384E-1,4.521358334E0,4.534090791E0
1.109024100E1,5.019573706E-1,-5.857103294E-1,5.775536390E0,5.826820607E0
1.110027800E1,3.790703130E-1,-9.313386619E-1,6.695358376E0,6.770443840E0
1.111031500E1,-1.650508180E-2,-1.185941634E0,7.149386485E0,7.247099909E0
1.112035200E1,-3.329416287E-1,-1.321743218E0,7.489845879E0,7.612860603E0
1.113038900E1,-4.991797969E-1,-1.273179753E0,8.152395054E0,8.266299793E0
1.114042600E1,-5.251484511E-1,-1.472078056E0,8.919555595E0,9.055455080E0
1.115046300E1,-5.268972802E-1,-2.001155763E0,9.176716139E0,9.407144319E0
1.116050000E1,-3.377285249E-1,-2.504386438E0,8.990980504E0,9.339365203E0
1.117053700E1,3.025524795E-2,-2.678199016E0,8.665938463E0,9.070399925E0
1.118057400E1,4.829056802E-1,-2.983853443E0,8.156134349E0,8.698224346E0
1.119061100E1,8.761827537E-1,-3.452950412E0,7.484468195E0,8.289018454E0
1.120064800E1,1.133228912E0,-3.868308545E0,6.825597503E0,7.926966636E0
1.121068500E1,1.502446155E0,-4.293856621E0,6.195457106E0,7.686236913E0
1.122072200E1,1.650697338E0,-4.796554615E0,5.512026354E0,7.490939354E0
1.123075900E1,1.454136313E0,-5.353284389E0,4.650916260E0,7.239004644E0
1.124079600E1,1.206055033E0,-5.807200232E0,3.700979067E0,6.991093572E0
1.125083300E1,1.068752908E0,-6.071855153E0,2.714406729E0,6.736294357E0
1.126087000E1,7.951685576E-1,-6.207009450E0,1.834032984E0,6.520961304E0
1.127090700E1,8.930505091E-1,-6.401152797E0,1.267972515E0,6.586353364E0
1.128094400E1,1.294239377E0,-6.335941139E0,1.276496586E0,6.591558937E0
1.129098100E1,1.291211104E0,-6.291245023E0,1.579537016E0,6.613768006E0
1.130101900E1,1.265006807E0,-6.589078799E0,1.862706560E0,6.963180119E0
1.131105600E1,1.501839653E0,-6.787109376E0,2.022614313E0,7.239567990E0
1.132109300E1,1.590416930E0,-6.979544751E0,1.969824627E0,7.424532309E0
1.133113000E1,1.840657879E0,-7.069897097E0,1.901787595E0,7.549057057E0
1.134116700E1,1.877693851E0,-6.887097933E0,2.051547067E0,7.427428727E0
1.135120400E1,1.522749880E0,-7.044117892E0,2.210986605E0,7.538356973E0
1.136124100E1,1.258968388E0,-7.132917218E0,2.159954445E0,7.558367062E0
1.137127800E1,1.117423376E0,-7.210624959E0,1.835072765E0,7.523911174E0
1.138131500E1,9.969860099E-1,-7.014143311E0,1.366081777E0,7.215148433E0
1.139135200E1,1.000118583E0,-6.431961776E0,9.347711237E-1,6.576029693E0
1.140138900E1,1.026783348E0,-5.907603942E0,8.448954722E-1,6.055403928E0
1.141142600E1,1.182697453E0,-5.681626014E0,7.880926958E-1,5.856683150E0
1.142146300E1,1.490148730E0,-5.549466661E0,4.716086403E-1,5.765374070E0
1.143150000E1,1.459153078E0,-5.093867404E0,-6.424014241E-2,5.299126309E0
1.144153700E1,1.335642049E0,-4.319041749E0,-6.722877127E-1,4.570561462E0
1.145157400E1,1.088416217E0,-3.790409015E0,-1.451071349E0,4.202077869E0
1.146161100E1,9.314977062E-1,-3.628650472E0,-2.750484050E0,4.647575145E0
1.147164800E1,1.328352910E0,-3.149273513E0,-4.407122451E0,5.577201217E0
1.148168500E1,1.386824774E0,-2.287678685E0,-6.097629095E0,6.658666330E0
1.149172200E1,1.536564658E0,-1.875080438E0,-7.482897633E0,7.865793957E0
1.150175900E1,2.361214146E0,-1.589698307E0,-8.528790266E0,8.991258886E0
1.151179600E1,2.266863182E0,-1.486235919E0,-9.599535320E0,9.974900714E0
1.152183300E1,1.566551519E0,-2.032889771E0,-1.052069866E1,1.082921164E1
1.153187000E1,2.583543997E0,-1.729872438E0,-1.067121184E1,1.111494131E1
1.154190700E1,3.440925321E0,-1.444278054E0,-1.056945157E1,1.120888990E1
1.155194400E1,3.582841045E0,-1.679755368E0,-1.028154988E1,1.101674162E1
1.156198200E1,3.754498048E0,-1.779377890E0,-9.209212625E0,1.010307074E1
1.157201900E1,4.014670493E0,-1.687153265E0,-7.452782133E0,8.631803220E0
1.158205600E1,4.001276568E0,-1.674425631E0,-5.686033645E0,7.151565841E0
1.159209300E1,3.688678280E0,-1.405965927E0,-4.027950397E0,5.639811348E0
1.160213000E1,3.506223224E0,-1.083931110E0,-2.848360593E0,4.645607174E0
1.161216700E1,3.436185568E0,-9.094121879E-1,-2.306654947E0,4.237341009E0
1.162220400E1,3.090287971E0,-5.765693772E-1,-2.267781195E0,3.876228004E0
1.163224100E1,2.656323997E0,-2.572897679E-1,-2.788171986E0,3.859554149E0
1.164227800E1,2.311356400E0,6.507366300E-3,-3.919632188E0,4.550376605E0
1.165231500E1,2.431972472E0,2.003226846E-1,-4.865078720E0,5.442757595E0
1.166235200E1,2.275076474E0,2.962322241E-1,-5.347233106E0,5.818644892E0
1.167238900E1,1.992115090E0,2.188338000E-1,-5.558915761E0,5.909141664E0
1.168242600E1,2.217061569E0,1.707644248E-1,-5.609659068E0,6.034301728E0
1.169246300E1,1.445575843E0,1.203713661E-1,-5.565878041E0,5.751797732E0
1.170250000E1,7.816841474E-1,-4.134168577E-1,-5.028318948E0,5.105480883E0
1.171253700E1,1.030158945E0,-6.798393917E-1,-4.070683895E0,4.253689742E0
1.172257400E1,6.734273350E-1,-8.167384976E-1,-3.133273484E0,3.307260026E0
1.173261100E1,1.178687578E-1,-1.201116913E0,-2.355374094E0,2.646575524E0
1.174264800E1,-2.380209996E-1,-1.630591979E0,-1.809886322E0,2.447687214E0
1.175268500E1,-8.420439313E-1,-1.713414280E0,-1.590940840E0,2.485139681E0
1.176272200E1,-1.455840776E0,-1.655463696E0,-1.811527051E0,2.853359891E0
1.177275900E1,-2.019709270E0,-1.717406175E0,-2.513783498E0,3.653466433E0
1.178279600E1,-2.177345819E0,-2.109076068E0,-3.463215784E0,4.602488483E0
1.179283300E1,-1.505892796E0,-2.558438684E0,-3.792592365E0,4.816334546E0
1.180287000E1,-6.810711077E-1,-2.685831386E0,-2.822146356E0,3.955004190E0
1.181290800E1,-3.977289243E-1,-2.635983873E0,-9.495562470E-1,2.829886277E0
1.182294500E1,-3.246014526E-1,-2.804944432E0,7.153892934E-1,2.912878509E0
1.183298200E1,-2.057924625E-1,-3.028125052E0,1.704444213E0,3.480951299E0
1.184301900E1,-3.734229259E-1,-2.912200493E0,2.020351587E0,3.564011354E0
1.185305600E1,-6.535112800E-1,-2.696012558E0,1.772173828E0,3.291832435E0
1.186309300E1,-7.797443336E-1,-2.777463103E0,1.195319399E0,3.122673691E0
1.187313000E1,-5.856484951E-1,-2.980853822E0,4.212527114E-1,3.066908462E0
1.188316725E1,1.992163914E-1,-2.941134270E0,3.581027824E-1,2.969544674E0
1.189320425E1,3.766709080E-1,-2.846937380E0,1.055248763E0,3.059490705E0
1.190324125E1,4.638388601E-1,-2.541475326E0,2.496152388E0,3.592355783E0
1.191327825E1,7.467584360E-1,-2.026378312E0,3.778655527E0,4.352251695E0
1.192331525E1,9.562875617E-1,-1.635990713E0,4.308310938E0,4.706643672E0
1.193335225E1,9.672411507E-1,-1.379287421E0,3.970171720E0,4.312801029E0
1.194338925E1,7.533485404E-1,-1.391458985E0,2.722852448E0,3.149224918E0
1.195342625E1,7.724744904E-1,-1.445242260E0,1.232218253E0,2.050317988E0
1.196346325E1,8.042599547E-1,-1.225333157E0,8.085880637E-2,1.467928325E0
1.197350025E1,7.002245396E-1,-1.048511601E0,-5.659297836E-1,1.382015739E0
1.198353725E1,7.538493544E-1,-1.194161650E0,-6.810526890E-1,1.567846823E0
1.199357425E1,8.034220487E-1,-1.439804349E0,-4.778566825E-1,1.716645147E0
1.200361125E1,5.331789440E-1,-1.694043040E0,-2.703080088E-1,1.796420893E0
1.201364825E1,5.815055966E-1,-2.053952612E0,-4.654383659E-3,2.134687741E0
1.202368525E1,1.497016723E0,-1.928262033E0,1.144627547E0,2.696187264E0
1.203372225E1,2.655950360E0,-1.167200139E0,3.859202092E0,4.828029543E0
1.204375925E1,3.392743971E0,-7.585604560E-1,7.583682581E0,8.342563581E0
1.205379625E1,3.565970951E0,-6.806749588E-1,1.204787678E1,1.258295681E1
1.206383425E1,3.326002098E0,-7.623120296E-1,1.659317128E1,1.694038791E1
1.207387125E1,3.007517125E0,-1.376034030E0,2.048711635E1,2.075236289E1
1.208390825E1,1.823507557E0,-2.506497867E0,2.200351221E1,2.222076194E1
1.209394525E1,2.623926330E-1,-3.664705573E0,2.042648073E1,2.075427743E1
1.210398225E1,-3.692345653E-1,-4.516668282E0,1.710055874E1,1.769083762E1
1.211401925E1,5.871129303E-1,-4.955666708E0,1.423920154E1,1.508834632E1
1.212405625E1,2.058304256E0,-5.078173478E0,1.245951842E1,1.361117415E1
1.213409325E1,2.651352110E0,-5.466280078E0,1.102532857E1,1.258839767E1
1.214413025E1,2.403893266E0,-5.980423411E0,9.492730663E0,1.147414931E1
1.215416725E1,1.962478478E0,-6.227034994E0,8.020410533E0,1.034186984E1
1.216420425E1,1.533960016E0,-6.543068229E0,6.619712947E0,9.433205960E0
1.217424125E1,1.271750986E0,-6.825067161E0,5.159324060E0,8.649711965E0
1.218427825E1,1.155696838E0,-7.011864651E0,3.677480277E0,8.001608729E0
1.219431525E1,8.862242503E-1,-7.198928774E0,2.258718011E0,7.596826704E0
1.220435225E1,9.448744545E-1,-7.459234536E0,7.809207934E-1,7.559286003E0
1.221438925E1,1.389212777E0,-7.420780322E0,-2.469437045E-1,7.553732450E0
1.222442625E1,1.373673656E0,-6.990995938E0,-9.179333353E-1,7.183564932E0
1.223446325E1,1.067162684E0,-6.858723734E0,-1.693186423E0,7.144774854E0
1.224450025E1,8.227604719E-1,-7.112739646E0,-2.545746717E0,7.599264860E0
1.225453725E1,8.787265849E-1,-7.161264519E0,-3.010293968E0,7.817783554E0
1.226457425E1,8.851106481E-1,-6.792045010E0,-2.945100144E0,7.455797150E0
1.227461125E1,1.177088219E0,-6.523167815E0,-3.119186957E0,7.325747900E0
1.228464825E1,1.811045240E0,-6.283309182E0,-3.406317113E0,7.373117076E0
1.229468525E1,2.129109506E0,-6.051887496E0,-3.596304259E0,7.354716438E0
1.230472225E1,2.276347658E0,-5.805403967E0,-3.575418590E0,7.188052030E0
1.231475925E1,2.279338802E0,-5.481856475E0,-3.470715130E0,6.876917864E0
1.232479725E1,2.398350690E0,-5.323693385E0,-3.701520227E0,6.913396364E0
1.233483425E1,2.676324399E0,-5.031136136E0,-3.610057203E0,6.745928855E0
1.234487125E1,2.651434556E0,-4.749522536E0,-3.129389471E0,6.275440063E0
1.235490825E1,2.124750114E0,-4.588449286E0,-2.896098431E0,5.827161918E0
1.236494525E1,1.133357478E0,-4.398020090E0,-3.492897420E0,5.729521121E0
1.237498225E1,-1.754983306E-2,-4.069622333E0,-5.332646057E0,6.708147874E0
1.238501925E1,-4.283127858E-1,-3.627145398E0,-6.988761717E0,7.885583423E0
1.239505625E1,-8.823021573E-1,-3.164761033E0,-7.643846337E0,8.320009394E0
1.240509325E1,-9.276875143E-1,-2.917620277E0,-7.810082678E0,8.388712871E0
1.241513025E1,-8.589594877E-1,-2.860261431E0,-7.837720127E0,8.387416983E0
1.242516725E1,-7.624383295E-1,-2.694753068E0,-7.803498128E0,8.290813551E0
1.243520425E1,-2.431626025E-1,-2.566883233E0,-7.441575360E0,7.875599115E0
1.244524125E1,5.931990047E-1,-2.657833164E0,-6.409373397E0,6.963909070E0
1.245527825E1,1.632139298E0,-2.622910084E0,-5.182495406E0,6.033389978E0
1.246531525E1,2.267443226E0,-2.179093552E0,-4.407814177E0,5.414662806E0
1.247535225E1,2.684401450E0,-1.820756296E0,-3.833801202E0,5.021871792E0
1.248538925E1,3.022617559E0,-1.483445043E0,-3.413503341E0,4.794666950E0
1.249542625E1,3.058848662E0,-1.339626342E0,-3.635596964E0,4.936468288E0
1.250546325E1,2.536432688E0,-1.481150011E0,-4.465277104E0,5.344716620E0
1.251550025E1,1.766485071E0,-1.521202269E0,-5.431423071E0,5.910573781E0
1.252553725E1,9.867686583E-1,-1.643867497E0,-6.150042366E0,6.441974375E0
1.253557425E1,6.639009051E-1,-1.792299652E0,-5.844889630E0,6.149458288E0
1.254561125E1,7.673545222E-1,-1.461885774E0,-4.485143604E0,4.779378215E0
1.255564825E1,6.885153441E-1,-1.457813188E0,-3.170114744E0,3.556529229E0
1.256568525E1,5.029191644E-1,-1.689568750E0,-2.322593579E0,2.915820842E0
1.257572225E1,1.766152950E-1,-1.723279703E0,-2.017561880E0,2.659218276E0
1.258576025E1,-2.552291360E-1,-1.640604751E0,-2.154079455E0,2.719702955E0
1.259579725E1,-5.706723140E-1,-1.715615172E0,-2.692675552E0,3.243378476E0
1.260583425E1,-2.225690744E-1,-1.874129096E0,-2.932590611E0,3.487403698E0
1.261587125E1,2.628446227E-1,-1.656175886E0,-2.488421492E0,3.000707814E0
1.262590825E1,2.522954417E-1,-1.556863852E0,-1.805012814E0,2.396987547E0
1.263594525E1,-2.734338572E-1,-1.841667109E0,-1.422436803E0,2.343038683E0
1.264598225E1,-1.033938001E0,-2.301183999E0,-1.350206294E0,2.861386486E0
1.265601925E1,-1.360666963E0,-2.553270915E0,-1.286816629E0,3.166465535E0
1.266605625E1,-1.191487937E0,-2.309554873E0,-9.723124409E-1,2.774721373E0
1.267609325E1,-9.394293080E-1,-2.212076526E0,-4.384452796E-1,2.442958093E0
1.268613025E1,-9.307492626E-1,-2.468019095E0,1.633682817E-1,2.642745095E0
1.269616725E1,-1.091570643E0,-2.793787360E0,4.214749056E-1,3.028929741E0
1.270620425E1,-1.126921740E0,-2.968462987E0,3.160915612E-1,3.190868062E0
1.271624125E1,-1.085637181E0,-3.009205801E0,-3.203761084E-1,3.215053420E0
1.272627825E1,-9.285969025E-1,-3.000140862E0,-1.436897698E0,3.453666515E0
1.273631525E1,-4.205311650E-1,-3.007759784E0,-2.544389579E0,3.961992391E0
1.274635225E1,2.422397657E-1,-3.154878654E0,-3.241132978E0,4.529556536E0
1.275638925E1,1.457252733E0,-3.418058322E0,-2.795211449E0,4.649722063E0
1.276642625E1,2.776428438E0,-3.561863574E0,-6.919016129E-1,4.568824229E0
1.277646325E1,3.330705598E0,-3.732180102E0,2.292959306E0,5.502765711E0
1.278650025E1,3.229264593E0,-3.985720051E0,4.717483887E0,6.969129670E0
1.279653725E1,2.676450114E0,-4.086548853E0,5.599087887E0,7.430548560E0
1.280657425E1,1.709588447E0,-3.811604002E0,4.818117977E0,6.376933320E0
1.281661125E1,7.030771038E-1,-3.361840267E0,2.846818682E0,4.461016028E0
1.282664825E1,-1.361348748E-2,-2.945198085E0,6.664521915E-1,3.019691311E0
1.283668625E1,1.803573668E-2,-2.521728110E0,-4.219689953E-1,2.556852710E0
1.284672325E1,1.005693610E0,-1.812635098E0,1.222278571E0,2.406456013E0
1.285676025E1,1.774080020E0,-1.358701714E0,5.337179403E0,5.786096633E0
1.286679725E1,2.414265057E0,-1.444368101E0,9.850151660E0,1.024404035E1
1.287683425E1,3.130782571E0,-9.632802469E-1,1.338283354E1,1.377787871E1
1.288687162E1,2.962624250E0,-4.586339611E-1,1.512465944E1,1.541891081E1
1.289690862E1,2.023519901E0,-5.237696046E-1,1.472825915E1,1.487583896E1
1.290694562E1,8.832647552E-1,-6.654499787E-1,1.299867381E1,1.304563149E1
1.291698262E1,3.016312507E-1,-9.124088860E-1,1.121985257E1,1.126093083E1
1.292701962E1,4.603629827E-2,-1.275687039E0,9.685283568E0,9.769043687E0
1.293705662E1,2.029322970E-1,-1.622805827E0,8.781458395E0,8.932451612E0
1.294709362E1,9.129162781E-1,-1.737646896E0,8.933777778E0,9.146869314E0
1.295713062E1,1.838667195E0,-1.815214305E0,9.850998337E0,1.018419699E1
1.296716763E1,2.745646648E0,-2.158811315E0,1.084098808E1,1.138973504E1
1.297720463E1,2.946280405E0,-3.020586821E0,1.103870115E1,1.181767473E1
1.298724163E1,2.562466831E0,-4.087497856E0,9.760712650E0,1.088785500E1
1.299727863E1,2.349698932E0,-4.915719700E0,7.985135450E0,9.666838853E0
1.300731563E1,2.454658207E0,-5.249994494E0,7.092726966E0,9.159397628E0
1.301735263E1,2.110735069E0,-5.614867768E0,6.931223946E0,9.166450129E0
1.302738963E1,1.529059757E0,-6.410919401E0,6.648206429E0,9.361440062E0
1.303742663E1,1.788125617E0,-7.265991075E0,6.276986588E0,9.766912519E0
1.304746363E1,2.359442879E0,-7.815804763E0,6.290369110E0,1.030643092E1
1.305750063E1,2.365058837E0,-8.245510209E0,6.390487475E0,1.069674119E1
1.306753763E1,2.420669951E0,-8.760716566E0,6.257571493E0,1.103480851E1
1.307757463E1,2.426174373E0,-9.517611735E0,5.888168966E0,1.145171555E1
1.308761262E1,2.050290208E0,-9.740095367E0,5.218971507E0,1.123880827E1
1.309764962E1,1.683844326E0,-9.977391751E0,4.261862411E0,1.097939657E1
1.310768662E1,1.415504344E0,-1.015640309E1,2.657898945E0,1.059342263E1
1.311772362E1,1.320310504E0,-1.007548464E1,2.243811996E-1,1.016410141E1
1.312776062E1,1.459336534E0,-9.355747942E0,-2.737148890E0,9.856554506E0
1.313779762E1,1.144540935E0,-7.880140507E0,-6.038628935E0,9.993579328E0
1.314783462E1,-4.839001819E-1,-6.067350458E0,-9.648073057E0,1.140755077E1
1.315787162E1,-1.908868135E0,-4.853964332E0,-1.364949230E1,1.461209729E1
1.316790862E1,-1.917380950E0,-5.368349156E0,-1.695430818E1,1.788698097E1
1.317794562E1,-1.041928586E0,-5.866510879E0,-1.853398026E1,1.946817890E1
1.318798262E1,-2.736452340E-1,-4.564120776E0,-1.667488845E1,1.729040153E1
1.319801962E1,2.800425996E-1,-3.700066609E0,-1.258131125E1,1.311709989E1
1.320805662E1,9.683997765E-1,-4.207250002E0,-8.439547722E0,9.479700230E0
1.321809362E1,1.676061682E0,-4.030810270E0,-4.555919471E0,6.309755655E0
1.322813062E1,2.365151223E0,-3.522573794E0,-1.548130451E0,4.516544512E0
1.323816762E1,2.999800555E0,-3.322176849E0,-1.837563533E-1,4.479891604E0
1.324820462E1,3.214607085E0,-2.967819793E0,-5.821365112E-1,4.413676013E0
1.325824162E1,3.325221494E0,-2.340125286E0,-2.332626817E0,4.687689432E0
1.326827862E1,3.386702336E0,-1.785799302E0,-4.391667091E0,5.826282837E0
1.327831562E1,3.103911983E0,-1.473324682E0,-5.838628432E0,6.774550700E0
1.328835262E1,2.714565481E0,-1.282508985E0,-6.263014666E0,6.945433590E0
1.329838962E1,2.385674219E0,-1.379361096E0,-5.640383263E0,6.277579299E0
1.330842662E1,1.734355206E0,-1.579878493E0,-4.521795121E0,5.094176592E0
1.331846362E1,9.254581171E-1,-1.643797916E0,-3.418656200E0,3.904581223E0
1.332850062E1,4.729235329E-1,-1.422802985E0,-2.036173275E0,2.528641257E0
1.333853762E1,9.200871572E-2,-1.269868475E0,-6.885926735E-1,1.447477605E0
1.334857562E1,-2.931073259E-1,-1.036747003E0,-9.764265418E-3,1.077428231E0
1.335861262E1,-4.862203936E-1,-6.760907418E-1,-3.938836491E-1,9.212238009E-1
1.336864962E1,-6.863768712E-1,-3.688411939E-1,-1.951016473E0,2.100862279E0
1.337868662E1,-6.443245733E-1,-2.456994170E-1,-4.017235374E0,4.075990973E0
1.338872362E1,-1.305142388E-1,-3.732032168E-1,-5.235357159E0,5.250264678E0
1.339876062E1,5.895787011E-1,-5.235409784E-1,-5.270171481E0,5.328827793E0
1.340879762E1,1.251374024E0,-9.982623839E-1,-4.587792059E0,4.859043189E0
1.341883462E1,1.415071504E0,-1.148951563E0,-3.598291728E0,4.033636128E0
1.342887162E1,9.744565418E-1,-1.175502600E0,-2.765149451E0,3.158705970E0
1.343890862E1,5.555206434E-1,-1.230098053E0,-2.224343838E0,2.601816656E0
1.344894562E1,3.885042838E-1,-1.377241480E0,-2.155456767E0,2.587223135E0
1.345898262E1,4.766860700E-1,-1.542028297E0,-2.172620830E0,2.706540624E0
1.346901962E1,4.377936805E-1,-1.622352667E0,-2.016599429E0,2.624950426E0
1.347905662E1,4.037164000E-1,-1.604484746E0,-1.776614496E0,2.427697942E0
1.348909362E1,5.203942262E-1,-1.539004117E0,-1.589867291E0,2.273108406E0
1.349913062E1,3.759948968E-1,-1.595023951E0,-1.547412997E0,2.253876783E0
1.350916762E1,2.247991294E-1,-1.839866751E0,-1.764616594E0,2.559202226E0
1.351920462E1,2.496372244E-1,-2.286054913E0,-1.995217330E0,3.044545616E0
1.352924162E1,3.269643125E-1,-2.738517138E0,-1.659334698E0,3.218660190E0
1.353927862E1,3.493426301E-1,-2.981600511E0,-8.475715967E-1,3.119352416E0
1.354931562E1,4.325591800E-1,-3.111698136E0,-1.008893207E-1,3.143238996E0
1.355935262E1,5.834248721E-1,-3.320305156E0,2.264585692E-1,3.378771136E0
1.356938962E1,6.194938604E-1,-3.316554167E0,7.557584703E-2,3.374761605E0
1.357942662E1,6.127796488E-1,-2.957788310E0,-4.178513861E-1,3.049362288E0
1.358946362E1,8.611678348E-1,-2.517788841E0,-8.547565091E-1,2.794902391E0
1.359950062E1,1.170693119E0,-2.237235340E0,-7.491990638E-1,2.633826795E0
1.360953762E1,1.180814284E0,-2.542888598E0,-1.927797765E-1,2.810296931E0
1.361957562E1,1.131824630E0,-3.105159194E0,5.108472580E-1,3.344249622E0
1.362961262E1,1.038288768E0,-3.403598742E0,1.036993171E0,3.706465001E0
1.363964962E1,1.440600594E0,-3.525214981E0,1.744046674E0,4.188576074E0
1.364968662E1,1.943682603E0,-2.916212268E0,2.844415476E0,4.513634395E0
1.365972362E1,1.780100021E0,-2.170928500E0,3.935612336E0,4.834328402E0
1.366976062E1,1.108354784E0,-1.744707994E0,4.690642828E0,5.125874214E0
1.367979762E1,5.064149223E-1,-1.595014011E0,4.902734789E0,5.180476250E0
1.368983463E1,1.105038974E-1,-1.482735776E0,4.420636536E0,4.663983691E0
1.369987163E1,-1.178145249E-1,-1.256084833E0,3.124881268E0,3.369942479E0
1.370990863E1,-2.390236509E-1,-9.813130599E-1,1.561094313E0,1.859334042E0
1.371994563E1,-3.411796246E-1,-7.825194222E-1,4.297498852E-1,9.557327797E-1
1.372998263E1,-2.727505369E-1,-8.039997536E-1,3.455529034E-2,8.497073186E-1
1.374001963E1,-3.414174601E-2,-7.807944936E-1,3.256910813E-1,8.466878884E-1
1.375005663E1,3.453676929E-1,-5.717436701E-1,1.560124844E0,1.697103178E0
1.376009363E1,7.447350070E-1,-1.095949477E-1,3.621484124E0,3.698890177E0
1.377013063E1,9.101275948E-1,5.924866676E-2,5.801402718E0,5.872658354E0
1.378016763E1,8.307418482E-1,-2.031147301E-2,7.872391192E0,7.916128325E0
1.379020463E1,6.835263535E-1,-3.239737540E-1,9.427503803E0,9.457800761E0
1.380024163E1,3.984468162E-1,-3.743457627E-1,9.860985382E0,9.876129166E0
1.381027863E1,1.126904637E-2,-3.070612675E-1,9.214510202E0,9.219631874E0
1.382031563E1,-2.733703418E-1,-4.028515238E-1,7.974318101E0,7.989165781E0
1.383035263E1,-5.324262612E-1,-5.592183495E-1,6.629657307E0,6.674470682E0
1.384038963E1,-6.768644746E-1,-8.214922839E-1,5.804984137E0,5.901765492E0
1.385042663E1,-3.067320693E-1,-9.895371687E-1,5.736586332E0,5.829381710E0
1.386046462E1,5.255959824E-1,-7.565425819E-1,6.620957819E0,6.684735616E0
1.387050162E1,1.599058968E0,-6.078601670E-1,8.346180552E0,8.519695615E0
1.388053862E1,2.574589863E0,-9.012424582E-1,1.078839004E1,1.112789785E1
1.389057554E1,3.182029030E0,-1.679997443E0,1.297394593E1,1.346369092E1
1.390061254E1,3.556688496E0,-2.759809774E0,1.421091154E1,1.490693093E1
1.391064954E1,3.436538447E0,-4.235203786E0,1.425963522E1,1.526708696E1
1.392068654E1,2.419904696E0,-5.771105370E0,1.270256028E1,1.416038960E1
1.393072354E1,1.238499186E0,-6.852979429E0,1.034355843E1,1.246941892E1
1.394076054E1,7.612601155E-1,-7.684319594E0,8.243110512E0,1.129500578E1
1.395079754E1,1.245023655E0,-8.157067564E0,7.130820991E0,1.090579860E1
1.396083454E1,2.116184528E0,-8.151551886E0,6.800082593E0,1.082437797E1
1.397087154E1,2.791781765E0,-8.245178672E0,6.890099308E0,1.110182351E1
1.398090854E1,2.446471813E0,-8.947373723E0,6.341166211E0,1.123615191E1
1.399094554E1,2.030918967E0,-9.573876568E0,4.624180452E0,1.082436092E1
1.400098254E1,2.244034629E0,-9.561554731E0,3.195062474E0,1.032799325E1
1.401101954E1,2.281530630E0,-9.587184246E0,2.221038115E0,1.010210345E1
1.402105654E1,1.986045680E0,-9.463632579E0,3.058049932E-1,9.674618118E0
1.403109354E1,1.476046707E0,-8.831361457E0,-2.118331333E0,9.201031828E0
1.404113054E1,5.953835244E-1,-8.323838341E0,-4.204440123E0,9.344414535E0
1.405116754E1,-5.323588720E-1,-7.613189970E0,-7.567927258E0,1.074791098E1
1.406120454E1,-1.123932058E0,-6.783380606E0,-1.186375147E1,1.371226001E1
1.407124154E1,-1.154488365E0,-5.895869749E0,-1.562876076E1,1.674372379E1
1.408127854E1,-1.097232941E0,-5.314708554E0,-1.775742793E1,1.856815267E1
1.409131554E1,-3.861933911E-1,-5.217012105E0,-1.695864213E1,1.774716607E1
1.410135254E1,6.537989630E-1,-4.930918953E0,-1.392647724E1,1.478810952E1
1.411138954E1,1.877365676E0,-4.647256488E0,-9.825714977E0,1.103023887E1
1.412142754E1,2.962297098E0,-4.321139730E0,-5.403421340E0,7.526248391E0
1.413146454E1,3.617695421E0,-3.990173875E0,-1.951138680E0,5.728538196E0
1.414150154E1,3.935297464E0,-3.573463281E0,-5.435331935E-1,5.343372931E0
1.415153854E1,3.863854136E0,-3.128068001E0,-9.550713408E-1,5.062246485E0
1.416157554E1,3.479010867E0,-2.751082805E0,-2.257102425E0,4.976593672E0
1.417161254E1,3.240044812E0,-2.425556030E0,-3.749893658E0,5.517509844E0
1.418164954E1,2.996280531E0,-2.151177775E0,-4.907643526E0,6.139236745E0
1.419168654E1,2.646204221E0,-1.959228303E0,-5.373183049E0,6.301751217E0
1.420172354E1,2.367270692E0,-1.866378027E0,-4.890753259E0,5.745154907E0
1.421176054E1,2.375198347E0,-1.705383714E0,-3.701377555E0,4.717000806E0
1.422179754E1,2.260099562E0,-1.461125051E0,-2.278305598E0,3.526132846E0
1.423183454E1,1.866845804E0,-1.207054176E0,-1.161057639E0,2.508016722E0
1.424187154E1,1.397064418E0,-8.784786630E-1,-7.200793451E-1,1.800563249E0
1.425190854E1,8.778154425E-1,-6.514903361E-1,-1.149776021E0,1.586500711E0
1.426194554E1,3.870282273E-1,-6.166701669E-1,-2.229333998E0,2.345208523E0
1.427198254E1,6.060522079E-2,-6.498232949E-1,-3.542571856E0,3.602188038E0
1.428201954E1,-1.450200114E-1,-7.129077351E-1,-4.641266600E0,4.697938260E0
1.429205654E1,-3.606586003E-1,-8.972616738E-1,-5.522568299E0,5.606595558E0
1.430209354E1,-2.159533153E-1,-1.234554800E0,-5.922108545E0,6.053274404E0
1.431213054E1,5.019856565E-1,-1.758041984E0,-5.304526212E0,5.610766396E0
1.432216754E1,1.394213609E0,-1.896346761E0,-3.709503723E0,4.393219832E0
1.433220454E1,1.914423867E0,-1.597161693E0,-1.967605609E0,3.176069276E0
1.434224154E1,1.793566012E0,-1.526930201E0,-8.447601092E-1,2.502401751E0
1.435227854E1,1.533669994E0,-1.417047570E0,-3.608514123E-1,2.119051960E0
1.436231554E1,1.023123575E0,-1.333765678E0,-8.242072923E-1,1.872172640E0
1.437235254E1,2.167970686E-1,-1.321656094E0,-2.032190444E0,2.433839313E0
1.438238954E1,-5.787756778E-1,-1.426856275E0,-3.514985862E0,3.837450420E0
1.439242754E1,-1.049075419E0,-1.901681761E0,-4.695041689E0,5.173042549E0
1.440246454E1,-9.751161077E-1,-2.599539347E0,-5.112276778E0,5.817545023E0
1.441250154E1,-2.835746102E-1,-3.355408330E0,-4.424826066E0,5.560419529E0
1.442253854E1,7.029838407E-1,-3.947203857E0,-2.844913074E0,4.916109739E0
1.443257554E1,1.850492603E0,-4.184045911E0,-8.984686853E-1,4.662382336E0
1.444261254E1,2.691348527E0,-3.764670156E0,8.163332856E-1,4.699201880E0
1.445264954E1,3.055908097E0,-3.213564819E0,1.848421227E0,4.804397379E0
1.446268654E1,2.878859670E0,-2.968843056E0,2.114240329E0,4.644553181E0
1.447272354E1,2.162229305E0,-2.866228514E0,1.499507637E0,3.890889951E0
1.448276054E1,1.223600773E0,-2.867436549E0,1.798939750E-1,3.122779700E0
1.449279754E1,3.537595437E-1,-3.157354950E0,-1.569447645E0,3.543614257E0
1.450283454E1,-2.344926435E-1,-3.570264269E0,-3.185755461E0,4.790700534E0
1.451287154E1,-2.235889750E-1,-4.085890456E0,-3.689194297E0,5.509505187E0
1.452290854E1,6.794020200E-1,-4.435216568E0,-2.056149995E0,4.935634297E0
1.453294554E1,1.086405359E0,-4.438868739E0,1.028584875E0,4.684209552E0
1.454298254E1,1.227761944E0,-4.181422850E0,4.328185040E0,6.142058465E0
1.455301954E1,1.282243522E0,-3.715452973E0,6.765739557E0,7.824574812E0
1.456305654E1,8.962656006E-1,-3.300797675E0,7.742259069E0,8.464108506E0
1.457309354E1,2.029314199E-1,-2.793552886E0,7.284921436E0,7.804818974E0
1.458313054E1,-5.074254674E-1,-2.127375514E0,5.856180604E0,6.251244552E0
1.459316754E1,-1.033277996E0,-1.554822589E0,4.255148638E0,4.646657577E0
1.460320454E1,-1.230707332E0,-1.353432203E0,2.938812341E0,3.461652386E0
1.461324154E1,-1.231574621E0,-1.372496465E0,2.341816885E0,2.980709465E0
1.462327854E1,-8.428349134E-1,-1.183797460E0,2.804883621E0,3.158974397E0
1.463331554E1,2.649342714E-1,-6.522475505E-1,4.559725424E0,4.613752592E0
1.464335354E1,1.114345987E0,-1.439812535E-1,6.852218122E0,6.943730321E0
1.465339054E1,1.157182104E0,-1.112023473E-2,8.483918733E0,8.562480432E0
1.466342754E1,6.514210466E-1,-2.827245712E-1,8.905157996E0,8.933427198E0
1.467346454E1,-1.856496817E-1,-5.188924420E-1,7.978949096E0,7.997958730E0
1.468350154E1,-8.585149531E-1,-6.019071168E-1,6.472504615E0,6.556878533E0
1.469353854E1,-1.097861224E0,-4.639870870E-1,5.383870005E0,5.514221569E0
1.470357554E1,-6.927472664E-1,-3.208039784E-1,5.337217410E0,5.391540007E0
1.471361254E1,2.296568500E-1,-3.801204729E-1,5.955656945E0,5.972192519E0
1.472364954E1,1.389415676E0,-2.726270145E-1,7.227767242E0,7.365149062E0
1.473368654E1,2.084916835E0,-2.010658658E-1,8.474809356E0,8.729816682E0
1.474372354E1,2.238971671E0,-6.048161066E-1,8.871267534E0,9.169415702E0
1.475376054E1,2.014839855E0,-1.114333708E0,8.398406128E0,8.708303207E0
1.476379754E1,1.805412471E0,-1.583761629E0,7.840454285E0,8.200032834E0
1.477383454E1,2.238089765E0,-2.060130195E0,8.338341190E0,8.875872690E0
1.478387154E1,2.480105290E0,-2.512702348E0,9.775749934E0,1.039374245E1
1.479390854E1,2.407726116E0,-3.615002486E0,1.037848969E1,1.125070826E1
1.480394554E1,2.668878554E0,-4.510894741E0,1.029148780E1,1.154927726E1
1.481398254E1,2.632054836E0,-5.350491759E0,9.752535903E0,1.143098558E1
1.482401954E1,2.868532317E0,-6.085851633E0,8.723651066E0,1.101672164E1
1.483405654E1,2.920138966E0,-6.641236548E0,7.144376006E0,1.018210897E1
1.484409354E1,2.647494409E0,-7.003182120E0,4.933514532E0,8.966233997E0
1.485413054E1,2.717871789E0,-6.512302519E0,3.258381388E0,7.772641792E0
1.486416754E1,2.417659950E0,-5.888460158E0,2.798494953E0,6.953460769E0
1.487420454E1,2.419141927E0,-5.722959396E0,2.363699505E0,6.647675328E0
1.488424154E1,2.612200908E0,-5.582755444E0,1.896090068E0,6.448713785E0
1.489427900E1,2.266537200E0,-5.714732949E0,2.032868721E0,6.475177124E0
1.490431600E1,1.275785418E0,-5.916879964E0,2.158548775E0,6.426229825E0
1.491435300E1,5.558268913E-1,-6.212433327E0,1.695904355E0,6.463695766E0
1.492439000E1,-4.450425834E-1,-6.672708017E0,3.296285963E-1,6.695651588E0
1.493442700E1,-1.185528821E0,-6.680048611E0,-2.558272623E0,7.250743882E0
1.494446400E1,-1.087784864E0,-5.982658802E0,-6.196257005E0,8.681536910E0
1.495450100E1,-7.762680177E-1,-5.456223451E0,-9.794310751E0,1.123839355E1
1.496453800E1,-6.655666307E-2,-5.191560929E0,-1.209769155E1,1.316475885E1
1.497457500E1,9.486394767E-1,-4.691859049E0,-1.224521680E1,1.314757745E1
1.498461200E1,2.134798262E0,-3.963570213E0,-9.972087157E0,1.094119622E1
1.499464900E1,2.841224066E0,-3.698333495E0,-7.087231168E0,8.484047999E0
1.500468600E1,2.877256948E0,-3.749441083E0,-4.941990071E0,6.838141695E0
1.501472300E1,2.728605815E0,-3.671672530E0,-3.708344513E0,5.888827378E0
1.502476000E1,2.460701305E0,-3.772887833E0,-3.337848557E0,5.606332714E0
1.503479700E1,2.317957176E0,-3.710221469E0,-3.389211668E0,5.534024264E0
1.504483400E1,2.185246284E0,-3.365890049E0,-3.530615469E0,5.345069011E0
1.505487100E1,1.880828982E0,-3.180808716E0,-3.507680351E0,5.094986083E0
1.506490800E1,1.495537962E0,-2.994487774E0,-3.323214145E0,4.716708925E0
1.507494500E1,1.162470472E0,-2.723239533E0,-3.264134463E0,4.407033577E0
1.508498200E1,8.339464147E-1,-2.425107549E0,-3.332995368E0,4.205409774E0
1.509501900E1,6.256715168E-1,-2.190514333E0,-3.350542862E0,4.051660815E0
1.510505600E1,5.595940331E-1,-1.969582552E0,-3.579270735E0,4.123539731E0
1.511509300E1,9.990308543E-1,-1.691377294E0,-4.316502888E0,4.742469502E0
1.512513000E1,1.893080799E0,-1.485960515E0,-4.843328832E0,5.408296195E0
1.513516700E1,2.553624086E0,-1.369358849E0,-4.807027563E0,5.612811561E0
1.514520400E1,2.880334337E0,-1.211523787E0,-4.399386585E0,5.396176248E0
1.515524100E1,2.914413080E0,-1.064122497E0,-3.727538290E0,4.849814635E0
1.516527900E1,2.510273414E0,-1.041834666E0,-3.100145207E0,4.122837905E0
1.517531600E1,1.776693579E0,-1.069361603E0,-2.809861648E0,3.492205147E0
1.518535300E1,9.831607801E-1,-1.123043720E0,-2.910779035E0,3.271156815E0
1.519539000E1,2.074100947E-1,-1.133254713E0,-3.254362304E0,3.452268703E0
1.520542700E1,-4.505405375E-1,-1.170460546E0,-3.423889750E0,3.646366093E0
1.521546400E1,-9.606032453E-1,-1.236413046E0,-3.413188761E0,3.755174208E0
1.522550100E1,-1.206361719E0,-1.356687348E0,-3.540842834E0,3.979130198E0
1.523553800E1,-9.907269309E-1,-1.390829240E0,-3.493871566E0,3.888841003E0
1.524557500E1,-3.259110097E-1,-1.052749078E0,-2.660760865E0,2.879956074E0
1.525561200E1,3.395575339E-1,-8.941661578E-1,-1.767910330E0,2.010059545E0
1.526564900E1,8.150136421E-1,-1.189690284E0,-1.117527165E0,1.824411459E0
1.527568600E1,8.572673035E-1,-1.422019458E0,-8.624385810E-1,1.871055016E0
1.528572300E1,4.991709530E-1,-1.079507691E0,-8.058129752E-1,1.436608174E0
1.529576000E1,3.074977621E-3,-7.858067268E-1,-9.317795420E-1,1.218899004E0
1.530579700E1,-5.736103206E-1,-7.349610937E-1,-1.412142195E0,1.692141303E0
1.531583400E1,-1.250755096E0,-8.841469538E-1,-2.415913972E0,2.860549679E0
1.532587100E1,-1.608309117E0,-1.099633808E0,-3.602122239E0,4.095257910E0
1.533590800E1,-1.441376373E0,-1.400254367E0,-4.463051069E0,4.894599369E0
1.534594500E1,-1.147569647E0,-1.958508511E0,-4.863186561E0,5.366866423E0
1.535598200E1,-8.479448683E-1,-2.619874794E0,-4.814144794E0,5.546056665E0
1.536601900E1,1.282360174E-2,-3.248372709E0,-3.927934942E0,5.097132783E0
1.537605600E1,8.837296088E-1,-3.551135688E0,-2.459400299E0,4.409103370E0
1.538609300E1,1.572576344E0,-3.375177766E0,-9.229520005E-1,3.836230142E0
1.539613000E1,2.368167948E0,-3.093537853E0,7.822258919E-2,3.896705615E0
1.540616700E1,2.922487792E0,-3.027752584E0,3.614425658E-1,4.223607621E0
1.541620400E1,2.950414094E0,-3.147737449E0,1.095063624E-1,4.315690677E0
1.542624200E1,2.634076511E0,-3.244726385E0,-2.557186210E-1,4.187123164E0
1.543627900E1,2.583376474E0,-3.288233762E0,-1.643357036E-1,4.184892054E0
1.544631600E1,2.745240852E0,-3.270710242E0,4.576484129E-1,4.294570396E0
1.545635300E1,2.435423938E0,-3.127620104E0,1.333958051E0,4.182432468E0
1.546639000E1,1.540188763E0,-2.910313012E0,2.342676426E0,4.041068682E0
1.547642700E1,8.231967473E-1,-2.736975812E0,3.638612373E0,4.626898473E0
1.548646400E1,6.972002135E-1,-2.698189477E0,5.142441394E0,5.849018557E0
1.549650100E1,9.118586630E-1,-2.341650240E0,6.605019479E0,7.066901328E0
1.550653800E1,1.319616147E0,-1.765522912E0,7.502247239E0,7.819345980E0
1.551657500E1,1.982715252E0,-1.307147983E0,7.633555822E0,7.994433695E0
1.552661200E1,2.378333624E0,-7.157465583E-1,7.233422084E0,7.647951295E0
1.553664900E1,1.963933850E0,-4.229448956E-1,6.521480309E0,6.823900935E0
1.554668600E1,1.051915850E0,-4.424172932E-1,5.844723569E0,5.955086365E0
1.555672300E1,1.240172513E-1,-3.761847121E-1,5.566300794E0,5.580376309E0
1.556676000E1,-7.594077176E-1,-3.232475299E-1,5.807551650E0,5.865905319E0
1.557679700E1,-1.271885325E0,-3.994168693E-1,6.149245976E0,6.292094420E0
1.558683400E1,-1.069976876E0,-5.034967232E-1,6.034305503E0,6.149081425E0
1.559687100E1,-5.525418524E-1,-4.638859302E-1,5.863130604E0,5.907350771E0
1.560690800E1,2.861209264E-1,-2.170398742E-1,6.193280187E0,6.203683661E0
1.561694500E1,1.418627634E0,2.929688931E-2,6.853524975E0,6.998868998E0
1.562698200E1,2.122213884E0,1.479930282E-3,7.739900887E0,8.025575350E0
1.563701900E1,2.378893788E0,-3.100094336E-1,8.428981803E0,8.763730697E0
1.564705600E1,2.481179716E0,-5.284005994E-1,8.807161585E0,9.165236231E0
1.565709300E1,2.357938098E0,-8.166607296E-1,9.020596651E0,9.359378759E0
1.566713000E1,2.424288062E0,-1.524339300E0,9.379649021E0,9.807068811E0
1.567716700E1,2.598493280E0,-2.088664023E0,9.611291147E0,1.017308224E1
1.568720500E1,2.770927085E0,-2.702455021E0,9.616058967E0,1.036580388E1
1.569724200E1,3.106352026E0,-3.644324518E0,1.013744408E1,1.121152516E1
1.570727900E1,2.976289485E0,-4.593355100E0,1.061118783E1,1.193961965E1
1.571731600E1,2.817308954E0,-5.461912792E0,1.047229891E1,1.214243656E1
1.572735300E1,2.483071875E0,-6.339403861E0,9.897480193E0,1.201306794E1
1.573739000E1,1.545900615E0,-6.756485753E0,8.657179334E0,1.108993519E1
1.574742700E1,1.110647257E0,-6.633008931E0,7.193383275E0,9.847594008E0
1.575746400E1,1.173058172E0,-6.972261459E0,6.022830343E0,9.287786640E0
1.576750100E1,1.314363447E0,-7.702630734E0,4.788494228E0,9.164482990E0
1.577753800E1,1.469499726E0,-7.687425635E0,3.161787139E0,8.441139748E0
1.578757500E1,1.385772860E0,-7.143470272E0,1.252490988E0,7.383648666E0
1.579761200E1,9.638071541E-1,-6.688214833E0,-4.351040344E-1,6.771296582E0
1.580764900E1,5.299758027E-1,-6.247596143E0,-1.406026884E0,6.425748479E0
1.581768600E1,-8.240243476E-2,-5.916840203E0,-2.024411016E0,6.254120891E0
1.582772300E1,-4.504144204E-1,-6.018794594E0,-3.047318245E0,6.761280205E0
1.583776000E1,-2.432410283E-1,-6.071512506E0,-4.399944994E0,7.502129448E0
1.584779700E1,-5.113894410E-2,-5.482686195E0,-5.886929941E0,8.044775152E0
1.585783400E1,-3.677783163E-1,-4.727368605E0,-7.633353508E0,8.986176083E0
1.586787100E1,-5.607707852E-1,-4.585468376E0,-8.507434480E0,9.680776081E0
1.587790800E1,-5.798818249E-1,-5.067408169E0,-8.202738996E0,9.659182963E0
1.588794550E1,-3.268513151E-1,-5.264823033E0,-7.599295816E0,9.250648099E0
1.589798250E1,1.333200252E-1,-5.026404569E0,-7.389943276E0,8.938331989E0
1.590801950E1,4.499566931E-1,-4.695790717E0,-7.454263818E0,8.821505571E0
1.591805650E1,7.471183321E-1,-4.262421405E0,-7.596021375E0,8.742194391E0
1.592809350E1,1.226793499E0,-3.953778466E0,-7.230400828E0,8.331631447E0
1.593813150E1,1.825241110E0,-3.894683581E0,-6.298609591E0,7.627093030E0
1.594816850E1,2.054564669E0,-3.630767164E0,-5.598573917E0,6.981957897E0
1.595820550E1,2.093435204E0,-3.365440398E0,-5.096309202E0,6.456084534E0
1.596824250E1,1.981718156E0,-3.227661871E0,-5.016332155E0,6.285586392E0
1.597827950E1,1.904400423E0,-3.123931680E0,-5.197132156E0,6.355774758E0
1.598831650E1,1.791428416E0,-3.031400662E0,-5.300996248E0,6.363895581E0
1.599835350E1,1.673849242E0,-2.877656313E0,-5.306941697E0,6.264687328E0
1.600839050E1,1.714763818E0,-2.812423605E0,-5.129853508E0,6.096354526E0
1.601842750E1,1.960914347E0,-2.636608940E0,-4.639215982E0,5.684999271E0
1.602846450E1,1.941445020E0,-2.327190076E0,-4.132644208E0,5.124819076E0
1.603850150E1,1.639206536E0,-2.115993324E0,-4.005191864E0,4.817259354E0
1.604853850E1,1.130631360E0,-2.068581176E0,-4.249180385E0,4.859309550E0
1.605857550E1,6.975634718E-1,-1.933339171E0,-4.645909874E0,5.080243469E0
1.606861250E1,3.556843740E-1,-1.949685062E0,-5.139576259E0,5.508450538E0
1.607864950E1,2.852641632E-1,-2.166883396E0,-5.421205646E0,5.845188616E0
1.608868650E1,2.270372973E-1,-2.259848278E0,-5.227763965E0,5.699822475E0
1.609872350E1,1.508295125E-1,-2.438879496E0,-4.929527900E0,5.501920397E0
1.610876050E1,4.377327964E-1,-2.640251171E0,-4.451803949E0,5.194332936E0
1.611879750E1,5.787531660E-1,-2.641782557E0,-3.723946638E0,4.602363400E0
1.612883450E1,5.099972190E-1,-2.764794526E0,-3.045093087E0,4.144487645E0
1.613887150E1,4.395898721E-1,-2.894369409E0,-2.735621012E0,4.006773746E0
1.614890850E1,3.166026078E-1,-2.984949796E0,-2.835867139E0,4.129443659E0
1.615894550E1,1.603417629E-1,-3.146533508E0,-2.938504193E0,4.308269895E0
1.616898250E1,-1.854856673E-1,-3.383237568E0,-3.068837460E0,4.571483866E0
1.617901950E1,-3.392927282E-1,-3.989430694E0,-3.132070420E0,5.083359316E0
1.618905650E1,7.278921023E-2,-4.605556485E0,-2.612449415E0,5.295407515E0
1.619909450E1,1.124124578E0,-4.711765895E0,-1.112706501E0,4.970161936E0
1.620913150E1,1.891035735E0,-4.700210043E0,4.530117171E-1,5.086571558E0
1.621916850E1,2.145375875E0,-4.473888298E0,1.799226117E0,5.277833719E0
1.622920550E1,1.866734122E0,-3.953631116E0,2.707418430E0,5.142568409E0
1.623924250E1,1.035568497E0,-3.275171667E0,2.738879958E0,4.393246520E0
1.624927950E1,9.593672901E-3,-2.949045553E0,1.912595004E0,3.514965343E0
1.625931650E1,-5.922823074E-1,-3.152944980E0,1.088822306E0,3.387830337E0
1.626935350E1,1.208473295E-2,-3.200326722E0,1.091550324E0,3.381378311E0
1.627939050E1,1.591409787E0,-3.081956273E0,1.948748923E0,3.978525097E0
1.628942750E1,2.696259018E0,-2.775691397E0,4.068572758E0,5.614940757E0
1.629946450E1,2.211604071E0,-2.344046429E0,6.242383935E0,7.025176397E0
1.630950150E1,1.108133613E0,-2.053116460E0,6.985072124E0,7.364406281E0
1.631953850E1,-2.548074786E-1,-1.853319440E0,6.059546764E0,6.341752658E0
1.632957550E1,-1.420770931E0,-2.012423932E0,4.233389980E0,4.897961907E0
1.633961250E1,-2.242765052E0,-1.910352012E0,2.508094742E0,3.869105726E0
1.634964950E1,-1.991106738E0,-1.447868244E0,1.622060307E0,2.948204222E0
1.635968650E1,-8.884988903E-1,-1.100887451E0,1.805742400E0,2.293924383E0
1.636972350E1,3.901603615E-1,-8.199661607E-1,2.037485683E0,2.230676472E0
1.637976050E1,1.105221845E0,-5.392085928E-1,1.846261851E0,2.218320097E0
1.638979750E1,7.897028728E-1,-1.001846142E0,1.519622351E0,1.984081251E0
1.639983450E1,1.102977245E0,-1.287316566E0,1.997351564E0,2.619762588E0
1.640987150E1,1.243276361E0,-5.991682810E-1,3.510057828E0,3.771636872E0
1.641990850E1,1.066392679E0,-2.214644623E-1,5.023254674E0,5.139973480E0
1.642994550E1,7.683587815E-1,-2.599853343E-1,5.913948755E0,5.969318007E0
1.643998250E1,3.761870509E-1,-1.330165547E-1,6.303117210E0,6.315734056E0
1.645001950E1,-1.559545970E-1,-1.118607438E-1,6.608251820E0,6.611038252E0
1.646005650E1,-3.619058114E-1,-2.256370354E-1,7.197871597E0,7.210495366E0
