"Time (s)","Linear Acceleration x (m/s^2)","Linear Acceleration y (m/s^2)","Linear Acceleration z (m/s^2)","Absolute acceleration (m/s^2)"
2.725083334E-3,6.149055320E-3,-6.729455427E-3,3.876470089E-2,3.982208541E-2
1.276208333E-2,2.449743074E-2,-3.920649458E-3,3.756777585E-2,4.502036636E-2
2.280008333E-2,4.488919790E-2,1.531635656E-2,2.005419552E-2,5.149564666E-2
3.283708333E-2,2.916045275E-2,2.205569744E-2,2.544298947E-2,4.454359109E-2
4.287408333E-2,3.300707554E-2,-1.395254376E-2,2.989096642E-3,3.595935500E-2
5.291108333E-2,1.691435035E-2,-1.132568670E-2,3.187901974E-2,3.782377991E-2
6.294808333E-2,-1.593768261E-3,4.540390363E-3,2.364614010E-2,2.413079326E-2
7.298608333E-2,8.592022019E-3,-2.022525856E-2,3.592003047E-2,4.210858007E-2
8.302308333E-2,1.356958312E-2,-2.388705452E-2,2.170135617E-2,3.500962467E-2
9.306008333E-2,1.778511040E-2,-2.683958779E-2,3.607088864E-2,4.835062184E-2
1.030970833E-1,1.357138753E-2,5.719993031E-4,4.071123898E-2,4.291753397E-2
1.131350833E-1,1.017689612E-2,1.266337432E-2,2.888466060E-2,3.313991373E-2
1.231720833E-1,2.314273138E-2,2.195719470E-2,2.424547970E-2,4.006928625E-2
1.332090833E-1,1.600344552E-2,1.165662997E-2,2.394727170E-2,3.107183794E-2
1.432460833E-1,1.471497957E-2,5.415723114E-3,4.101237059E-2,4.390757590E-2
1.532830833E-1,-8.755565900E-4,1.090057585E-2,3.981427610E-2,4.128880883E-2
1.633210833E-1,1.003711112E-4,-2.052391880E-2,9.876531959E-3,2.277690060E-2
1.733580833E-1,1.059734290E-2,-1.023468762E-2,3.397583127E-2,3.703254809E-2
1.833950833E-1,1.863928811E-2,7.601453438E-3,1.900637448E-2,2.768478691E-2
1.934320833E-1,8.962529926E-3,-8.547852701E-4,1.840761960E-2,2.049141429E-2
2.034690833E-1,1.615834648E-2,-2.756884522E-3,9.277192354E-3,1.883504370E-2
2.135070833E-1,2.440022535E-2,4.315948645E-3,1.391754270E-2,2.842000008E-2
2.235440833E-1,1.793588634E-2,7.093252740E-3,2.005594969E-2,2.782537279E-2
2.335810833E-1,7.577721965E-3,1.255922080E-2,3.757011473E-2,4.033199001E-2
2.436180833E-1,3.150929298E-2,3.355191727E-3,2.379875243E-2,3.962919975E-2
2.536560833E-1,1.999138820E-2,-1.626118896E-2,3.682225585E-2,4.494396950E-2
2.636930833E-1,1.063894036E-2,3.273572819E-3,4.236132324E-2,4.379937257E-2
2.737300833E-1,1.140961709E-2,-9.028987186E-3,1.781354249E-2,2.300052755E-2
2.837670833E-1,2.509800831E-2,-4.222603329E-3,1.601669312E-2,3.007116324E-2
2.938040833E-1,3.009307451E-2,-7.124946476E-3,2.874081910E-2,4.221839265E-2
3.038420833E-1,2.268657090E-2,8.300296208E-3,1.317377687E-2,2.751588292E-2
3.138790833E-1,2.052197734E-2,8.700108714E-3,5.240274668E-3,2.289768382E-2
3.239160833E-1,4.194951937E-2,-4.777814727E-5,2.125638306E-2,4.702763314E-2
3.339530833E-1,1.633839961E-3,-1.934135141E-2,3.038739502E-2,3.605760785E-2
3.439910833E-1,7.110364982E-3,5.135189239E-3,3.158373535E-2,3.277895357E-2
3.540280833E-1,-1.925405888E-2,9.361255215E-4,4.011599243E-2,4.450716754E-2
3.640650833E-1,2.147477200E-2,-1.677292082E-3,2.978747070E-2,3.675965930E-2
3.741020833E-1,9.580886685E-3,-4.932834464E-3,2.230303466E-2,2.476997377E-2
3.841390833E-1,4.608597220E-3,-1.301177701E-2,3.801976562E-2,4.044809126E-2
3.941770833E-1,1.834062786E-2,-5.234276704E-3,4.191167235E-2,4.604741646E-2
4.042140833E-1,2.880247981E-2,-1.193180999E-2,2.948926270E-2,4.291348911E-2
4.142510833E-1,2.403983130E-2,6.348737734E-3,2.260475099E-2,3.360349278E-2
4.242880833E-1,2.151437775E-2,1.300210627E-3,2.260708988E-2,3.123522867E-2
4.343260833E-1,2.075323472E-2,1.944213366E-2,2.036234379E-2,3.497596828E-2
4.443630833E-1,1.544489024E-2,-5.580532369E-3,4.865234256E-2,5.134917149E-2
4.544000833E-1,2.121376234E-2,1.592418834E-2,2.724685550E-2,3.802623596E-2
4.644370833E-1,3.500659946E-2,1.753712450E-2,3.039090335E-2,4.956429913E-2
4.744740833E-1,4.535787051E-2,1.375713256E-2,2.455304325E-2,5.338021212E-2
4.845120833E-1,2.030642065E-2,-8.398383250E-4,2.066055179E-2,2.898127755E-2
4.945508333E-1,4.066889235E-3,-2.467753412E-3,4.386171877E-2,4.411892756E-2
5.045878333E-1,-1.558029440E-2,-1.549941553E-2,1.796557009E-2,2.838554498E-2
5.146248333E-1,-2.816433845E-2,-1.983556904E-2,2.350405276E-2,4.170276077E-2
5.246628333E-1,-2.445216507E-2,-2.696587394E-2,2.919222414E-2,4.666104033E-2
5.346998333E-1,-2.126296575E-2,-3.151037563E-2,2.979156375E-2,4.829652943E-2
5.447368333E-1,2.226867770E-2,9.433888597E-4,2.904428959E-2,3.661085559E-2
5.547738333E-1,4.936430502E-2,1.978344660E-2,3.967394292E-2,6.634938671E-2
5.648108333E-1,6.535394562E-2,2.683064338E-2,2.545351446E-2,7.509262967E-2
5.748488333E-1,4.785564572E-2,2.182217883E-2,2.290822148E-2,5.736860577E-2
5.848858333E-1,6.506350803E-2,3.702543289E-2,2.964362919E-2,8.051638038E-2
5.949228333E-1,4.567523271E-2,-1.867216956E-3,1.108164310E-2,4.703739147E-2
6.049598333E-1,2.823090535E-3,-3.634586766E-2,3.488156497E-2,5.045508410E-2
6.149968333E-1,-4.459098991E-2,-2.439124439E-2,1.362459719E-2,5.262051722E-2
6.250348333E-1,-3.583075994E-2,-2.996837807E-2,4.221514285E-2,6.296082375E-2
6.350718333E-1,-2.060043053E-2,-4.251693683E-2,2.649782717E-2,5.416827947E-2
6.451088333E-1,-3.916716292E-3,-2.392825912E-2,2.694689333E-2,3.624965257E-2
6.551458333E-1,5.520404720E-2,-9.219003422E-4,3.413312137E-2,6.491075952E-2
6.651838333E-1,6.721947237E-2,4.949875900E-2,1.841639042E-2,8.548536743E-2
6.752208333E-1,9.762449127E-2,5.487674473E-2,2.021323979E-2,1.138005864E-1
6.852578333E-1,8.767928193E-2,4.622354165E-2,2.874666631E-2,1.032019530E-1
6.952948333E-1,7.258176198E-2,2.175110776E-2,1.796849370E-2,7.787226481E-2
7.053318333E-1,2.614322095E-3,-4.292952642E-3,2.410631597E-2,2.462475568E-2
7.153698333E-1,-3.121887366E-2,-3.064760983E-2,1.781822026E-2,4.723751723E-2
7.254068333E-1,-3.995414789E-2,-5.387540905E-2,3.218833745E-2,7.439746435E-2
7.354438333E-1,-7.467029148E-2,-5.740232163E-2,2.874432743E-2,9.847291667E-2
7.454808333E-1,-6.760808837E-2,-4.246644978E-2,2.455304325E-2,8.352906622E-2
7.555188333E-1,-1.947593330E-2,-2.015503258E-2,2.006355107E-2,3.446858567E-2
7.655558333E-1,3.802924450E-2,6.031252197E-3,3.204040289E-2,5.009178433E-2
7.755928333E-1,6.572004071E-2,4.619496795E-2,5.000363410E-2,9.462273637E-2
7.856298333E-1,1.012128636E-1,5.935659814E-2,2.335962653E-2,1.196366233E-1
7.956668333E-1,1.066750857E-1,6.320403406E-2,2.096577644E-2,1.257532808E-1
8.057048333E-1,8.852881841E-2,3.829596433E-2,1.183359504E-2,9.718007278E-2
8.157418333E-1,3.839128765E-2,1.984769288E-2,2.650308967E-2,5.069749147E-2
8.257788333E-1,-7.564972294E-3,2.658244735E-4,2.440686285E-2,2.555375555E-2
8.358158333E-1,-4.529650216E-2,-2.590873847E-2,2.096402228E-2,5.623634116E-2
8.458528333E-1,-6.647358235E-2,-4.153561416E-2,1.572550178E-2,7.994520499E-2
8.558908333E-1,-5.290908814E-2,-3.638661544E-2,3.892842293E-2,7.509180716E-2
8.659278333E-1,-3.077780174E-2,-1.457781668E-2,3.099609017E-2,4.604935857E-2
8.759648333E-1,2.363759768E-2,1.146119135E-2,9.442083836E-3,2.791501171E-2
8.860018333E-1,7.540136703E-2,2.713355199E-2,2.006939828E-2,8.260978478E-2
8.960398333E-1,9.698664227E-2,5.234875130E-2,3.713449717E-2,1.163003500E-1
9.060768333E-1,1.008104564E-1,5.803571213E-2,4.207480967E-2,1.236979450E-1
9.161138333E-1,8.097249817E-2,4.582875866E-2,3.084698617E-2,9.802222777E-2
9.261508333E-1,5.456207317E-2,1.084150527E-2,3.339052498E-2,6.488054580E-2
9.361878333E-1,-1.682992204E-2,-9.858442135E-3,3.084581673E-2,3.649519923E-2
9.462258333E-1,-6.266194236E-2,-5.952103738E-2,1.258379281E-2,8.733627397E-2
9.562628333E-1,-7.364064706E-2,-7.249145905E-2,2.485826790E-2,1.062821246E-1
9.662998333E-1,-6.292728261E-2,-5.546502945E-2,2.890044808E-2,8.872118285E-2
9.763368333E-1,-4.813301388E-2,-3.306781350E-2,2.066873789E-2,6.194726822E-2
9.863738333E-1,2.453651573E-3,-5.423059543E-3,3.099667490E-2,3.156301373E-2
9.964118333E-1,5.549363969E-2,4.133734787E-3,2.246558726E-2,6.001111914E-2
1.006448833E0,7.534623418E-2,3.302136468E-2,2.066932261E-2,8.482149744E-2
1.016485833E0,6.895621876E-2,2.482267755E-2,2.890161753E-2,7.878089186E-2
1.026522833E0,4.917945534E-2,1.879647771E-2,2.141776621E-2,5.683878176E-2
1.036560833E0,3.988981025E-2,5.828216770E-3,3.144691050E-2,5.112800849E-2
1.046597833E0,-4.899372859E-4,-3.006656561E-3,3.264325082E-2,3.278508573E-2
1.056634833E0,-2.733677014E-2,-2.694326167E-2,2.725387216E-2,4.707453556E-2
1.066671833E0,-1.775083110E-2,-3.343841733E-2,2.830169320E-2,4.726738407E-2
1.076708833E0,-1.653661109E-3,-3.117305981E-2,2.620839000E-2,4.075995534E-2
1.086746833E0,1.155025176E-2,1.994754779E-3,4.821321666E-2,4.961755358E-2
1.096783833E0,3.930759202E-2,3.357373470E-2,1.917418957E-2,5.513557833E-2
1.106820833E0,3.979579342E-2,4.336062153E-3,2.830637097E-2,4.902812709E-2
1.116857833E0,5.447149614E-2,1.119134692E-2,1.827722669E-2,5.853586211E-2
1.126895833E0,5.713152702E-2,2.617172156E-2,3.130014539E-2,7.020448341E-2
1.136932833E0,2.769524558E-2,2.609918411E-2,4.222742200E-2,5.684495762E-2
1.146969833E0,1.805623848E-2,-1.838289684E-2,2.426477551E-2,3.539403869E-2
1.157006833E0,4.553701915E-4,-3.710838569E-2,2.082135022E-2,4.255312298E-2
1.167043833E0,-1.497899049E-2,-1.090423036E-2,4.162983656E-2,4.556660716E-2
1.177081833E0,-9.435309288E-3,-6.562220491E-3,3.594108045E-2,3.773392457E-2
1.187118833E0,-8.192131855E-4,-2.563667392E-2,3.040259778E-2,3.977723107E-2
1.197155833E0,1.918707628E-2,-2.950339195E-2,1.947532117E-2,4.022290601E-2
1.207192833E0,3.105954160E-2,8.242349387E-3,3.399512708E-2,4.677927012E-2
1.217229833E0,3.857647536E-2,1.350362835E-2,2.651127577E-2,4.871693928E-2
1.227267833E0,3.115186365E-2,7.102813851E-4,2.711120009E-2,4.130327202E-2
1.237304833E0,2.679508957E-2,-5.613098620E-4,2.217205703E-2,3.478350193E-2
1.247341833E0,1.646013590E-2,5.644006636E-3,1.858069718E-2,2.545649608E-2
1.257378833E0,1.810916492E-2,-5.547495601E-3,4.462711930E-2,4.847985498E-2
1.267416833E0,1.555359364E-4,-1.012363621E-2,3.370042741E-2,3.518850678E-2
1.277453833E0,-2.187283491E-3,-2.778266602E-2,3.190650165E-2,4.236372962E-2
1.287490833E0,-1.080816243E-2,-5.906660822E-3,2.038163960E-2,2.381420270E-2
1.297527833E0,2.425356987E-2,-5.730623086E-3,1.933381855E-2,3.154159528E-2
1.307564833E0,4.015474393E-2,3.233898547E-3,2.053074360E-2,4.521474309E-2
1.317602833E0,3.057637886E-2,3.153924169E-3,3.205443621E-2,4.441113669E-2
1.327639833E0,4.007634556E-2,4.958301829E-4,2.890980363E-2,4.941797312E-2
1.337676833E0,2.576231597E-2,2.238471752E-2,2.157447159E-2,4.037611085E-2
1.347713833E0,3.532304346E-2,1.236639515E-2,4.193038344E-2,5.620322219E-2
1.357750833E0,2.198037343E-2,-6.494424767E-3,3.130189955E-2,3.879591840E-2
1.367788833E0,4.977323553E-3,-6.539635621E-3,3.459505141E-2,3.555781441E-2
1.377825833E0,9.874581364E-3,-5.450472934E-3,3.234972060E-2,3.425958895E-2
1.387862833E0,-1.799434936E-4,-2.066885666E-3,2.965532362E-2,2.972780879E-2
1.397899833E0,4.040796035E-3,-1.425031779E-2,2.067341566E-2,2.543206057E-2
1.407937833E0,-6.507951021E-4,6.814610073E-4,1.842866957E-2,1.845274466E-2
1.417974833E0,3.304696909E-2,6.883209790E-3,3.130248427E-2,4.603614085E-2
1.428011833E0,5.641581869E-2,3.177852072E-3,3.055345595E-2,6.423672635E-2
1.438048833E0,3.281184250E-2,2.879347145E-3,2.411684096E-2,4.082315110E-2
1.448085833E0,2.068966909E-2,3.426710484E-3,2.815843642E-2,3.510986034E-2
1.458123833E0,1.171623046E-2,-7.452061647E-3,2.561372817E-2,2.913531104E-2
1.468160833E0,-1.005981476E-3,-2.550311986E-2,5.150870740E-2,5.748537257E-2
1.478197833E0,-6.377535271E-3,-1.760925082E-2,2.187034070E-2,2.879358389E-2
1.488234833E0,1.815504729E-2,1.025697556E-3,2.636158705E-2,3.202485081E-2
1.498270625E0,9.790989021E-3,1.569196251E-3,4.103049695E-2,4.221169889E-2
1.508308625E0,3.079321463E-2,3.045421774E-3,3.414656997E-2,4.608128581E-2
1.518345625E0,3.625576572E-2,-6.383067286E-3,2.366894424E-2,4.376577450E-2
1.528382625E0,3.102848740E-2,8.161721765E-3,3.549552262E-2,4.784676435E-2
1.538419625E0,2.246288292E-2,4.101986233E-3,2.352100968E-2,3.278178300E-2
1.548457625E0,2.721166257E-2,3.962087031E-3,2.501789689E-2,3.717617353E-2
1.558494625E0,3.336179140E-3,-1.084733878E-2,3.070548356E-2,3.273563151E-2
1.568531625E0,5.770635400E-3,-3.341181250E-4,1.828073502E-2,1.917282297E-2
1.578568625E0,-5.474131317E-3,-4.273163471E-3,3.040610611E-2,3.118905784E-2
1.588605625E0,1.288870226E-2,3.489458417E-3,2.501789689E-2,2.835824626E-2
1.598643625E0,5.648533660E-3,5.784737240E-3,2.741116226E-2,2.857867971E-2
1.608680625E0,1.424012171E-2,-1.328162602E-2,3.294847548E-2,3.827250570E-2
1.618717625E0,2.138543294E-2,-1.536013302E-3,1.992614150E-2,2.927024417E-2
1.628754625E0,3.592671823E-2,7.315999679E-3,2.411801040E-2,4.388543448E-2
1.638791625E0,2.168142996E-2,-3.295636922E-3,2.471676528E-2,3.304336717E-2
1.648829625E0,1.226780105E-2,1.451457539E-2,3.788937271E-2,4.238839942E-2
1.658866625E0,3.211499143E-2,-6.070483360E-3,3.624104261E-2,4.880201443E-2
1.668903625E0,1.978372525E-2,-1.227430608E-2,2.277022719E-2,3.256589660E-2
1.678940625E0,-7.058343035E-3,-9.578945227E-3,2.740999281E-2,2.988116638E-2
1.688978625E0,1.027337974E-2,-1.744544656E-2,4.118193984E-2,4.588941170E-2
1.699015625E0,-4.822993604E-3,-7.553766654E-3,3.264968276E-2,3.385738387E-2
1.709052625E0,-3.315261640E-3,-1.726051922E-2,3.384777725E-2,3.813906800E-2
1.719089625E0,2.522547761E-2,-1.090939692E-3,2.606454849E-2,3.628878006E-2
1.729126625E0,2.368499211E-2,7.854235880E-3,2.247201920E-2,3.358064203E-2
1.739164625E0,3.353902599E-2,3.450387139E-3,2.786198258E-2,4.373855861E-2
1.749201625E0,2.913504020E-2,-7.568581123E-4,1.184470475E-2,3.145982251E-2
1.759238625E0,3.424407229E-2,1.069616998E-2,1.334042251E-2,3.827572876E-2
1.769275625E0,2.431743700E-2,1.558089282E-2,2.516641617E-2,3.830731609E-2
1.779312625E0,9.698237563E-3,-1.420909492E-2,3.489501357E-2,3.890522025E-2
1.789350625E0,1.293286244E-2,-1.343951911E-2,2.935653090E-2,3.478053352E-2
1.799387625E0,1.152509959E-2,-1.103867064E-2,3.070314467E-2,3.460293720E-2
1.809424625E0,1.159155229E-2,4.697013516E-3,2.681123793E-2,2.958493704E-2
1.819461625E0,2.537098649E-2,4.648239515E-3,2.576400161E-2,3.645650648E-2
1.829499625E0,2.486308729E-2,-1.484895847E-3,3.773909926E-2,4.521744838E-2
1.839536625E0,3.125945242E-2,-5.551273450E-3,2.516583145E-2,4.051282606E-2
1.849573625E0,6.487426381E-3,4.939572467E-3,3.025524795E-2,3.133474279E-2
1.859610625E0,4.155617991E-2,5.892819366E-3,3.040552139E-2,5.182795713E-2
1.869647625E0,4.695495981E-2,5.662905020E-3,2.606396377E-2,5.400154582E-2
1.879685625E0,1.841919069E-2,1.807452017E-3,2.411742568E-2,3.040038963E-2
1.889722625E0,1.812376012E-2,1.561403009E-3,1.303987563E-2,2.238184569E-2
1.899759625E0,2.733970745E-3,-4.679298280E-3,2.860925674E-2,2.911803565E-2
1.909796625E0,-6.324147452E-3,1.804121844E-3,3.265085220E-2,3.330657362E-2
1.919833625E0,1.218382955E-2,-7.481891583E-3,1.932797134E-2,2.404152408E-2
1.929871625E0,1.542868249E-2,-6.260051918E-3,2.636334121E-2,3.118105600E-2
1.939908625E0,1.100460604E-2,5.356108923E-3,3.040610611E-2,3.277682941E-2
1.949945625E0,2.878019644E-2,1.147339285E-2,2.606513321E-2,4.048863569E-2
1.959982625E0,1.323389812E-2,-9.857738642E-3,2.621365249E-2,3.097525864E-2
1.970019625E0,2.254467085E-2,1.731141284E-3,3.250116348E-2,3.959273496E-2
1.980057625E0,5.024749496E-2,-5.590582271E-3,3.100427628E-2,5.930708649E-2
1.990094625E0,2.070447443E-2,1.125954464E-4,2.426945329E-2,3.190132132E-2
2.000131625E0,3.101664679E-3,-1.223945576E-3,3.100603044E-2,3.118480864E-2
2.010168625E0,2.343955066E-2,-1.868180376E-2,2.561782122E-2,3.942962200E-2
2.020206625E0,1.087714587E-2,-5.151164015E-3,3.804198503E-2,3.990036865E-2
2.030243625E0,2.599625027E-2,-7.578493981E-4,2.052898943E-2,3.313334832E-2
2.040280625E0,7.633932894E-3,-9.346911265E-4,1.738494158E-2,1.901017550E-2
2.050317625E0,1.615055324E-2,4.215531852E-3,2.696618915E-2,3.171413621E-2
2.060354625E0,1.039101841E-2,-6.214868473E-3,2.292459369E-2,2.592556363E-2
2.070392625E0,2.390566511E-2,-1.540374960E-2,1.947999895E-2,3.447066412E-2
2.080429625E0,1.820173822E-2,-5.170893800E-3,2.966000140E-2,3.518177227E-2
2.090466625E0,3.469022398E-2,-8.476525806E-3,3.789346576E-2,5.206897230E-2
2.100503625E0,2.284636434E-2,-2.513035529E-2,2.741642475E-2,4.364804081E-2
2.110540625E0,1.145569132E-2,-5.234093978E-3,1.723759174E-2,2.134861055E-2
2.120578625E0,7.442473127E-3,5.914412951E-4,3.160770893E-2,3.247749179E-2
2.130615625E0,4.099985389E-3,-1.406692535E-2,2.337365985E-2,2.758652286E-2
2.140652625E0,9.483069163E-3,-7.771680504E-3,1.409237444E-2,1.867947098E-2
2.150689625E0,1.762851922E-2,-6.687437701E-3,3.310342669E-2,3.809623829E-2
2.160727625E0,3.168713970E-2,-1.100656577E-2,1.589039326E-2,3.711770346E-2
2.170764625E0,2.900456050E-2,6.618477101E-3,3.774494648E-2,4.805985595E-2
2.180801625E0,3.365314719E-3,1.829639459E-3,2.906300068E-2,2.931434687E-2
2.190838625E0,2.409587321E-3,-4.774891119E-4,1.933440328E-2,1.948982445E-2
2.200875625E0,1.782215342E-2,-7.214984461E-3,3.774494648E-2,4.235995914E-2
2.210913625E0,1.916778504E-2,-1.256962701E-2,3.310576558E-2,4.026650247E-2
2.220950625E0,1.520772626E-2,-1.139641974E-2,3.145977437E-2,3.675419329E-2
2.230987625E0,1.019479408E-2,-1.104370929E-2,3.385362446E-2,3.704004901E-2
2.241024625E0,2.144828137E-2,2.610206204E-3,1.319658101E-2,2.531781389E-2
2.251061625E0,2.202428693E-2,-6.198423179E-3,1.828658223E-2,2.928973804E-2
2.261099625E0,2.361298913E-2,-1.396569086E-2,4.403362691E-2,5.188038238E-2
2.271136625E0,1.559202081E-2,-1.438850851E-2,1.948584616E-2,2.880691741E-2
2.281173625E0,1.423956439E-2,9.256101265E-3,3.250876486E-2,3.667779161E-2
2.291210625E0,2.531667591E-2,7.379716057E-3,2.966584861E-2,3.969202517E-2
2.301247625E0,1.945608932E-2,3.861820986E-3,2.113417625E-2,2.898459037E-2
2.311285625E0,6.020412007E-3,-1.018325040E-2,1.769250512E-2,2.128306103E-2
2.321322625E0,1.710102271E-2,-6.766749700E-3,2.906884789E-2,3.439813654E-2
2.331359625E0,7.613531593E-3,3.478759839E-3,2.921912134E-2,3.039448445E-2
2.341396625E0,1.127445047E-2,-4.633297138E-3,2.083713770E-2,2.414056717E-2
2.351433625E0,1.417209757E-2,-1.017488614E-2,3.910091579E-2,4.281656541E-2
2.361471625E0,7.013488496E-3,-1.052620787E-2,3.131710231E-2,3.377500511E-2
2.371508625E0,1.114488440E-2,-5.264074663E-3,2.637737453E-2,2.911502735E-2
2.381545625E0,8.174663298E-3,-2.804740327E-3,3.356184840E-2,3.465673609E-2
2.391582625E0,1.188932631E-2,-1.527785174E-2,1.874149561E-2,2.694461897E-2
2.401620625E0,8.665331486E-3,-1.920860591E-3,5.120406747E-3,1.024676732E-2
2.411657625E0,1.114907338E-2,8.815545542E-4,2.697671413E-2,2.920311766E-2
2.421694625E0,1.123133639E-2,6.145615513E-3,2.398352444E-2,2.718677899E-2
2.431731625E0,2.605659080E-2,-1.130078122E-2,1.410348415E-2,3.171059516E-2
2.441768625E0,2.879888469E-2,-3.845581259E-3,2.383325100E-2,3.757909136E-2
2.451806625E0,2.432477800E-2,-7.159495298E-3,2.188846707E-2,3.349713702E-2
2.461843625E0,8.059249311E-3,-9.728487767E-4,2.113943875E-2,2.264450937E-2
2.471880625E0,2.348179679E-2,-2.991992841E-4,2.143764675E-2,3.179712249E-2
2.481917625E0,1.081167076E-2,-1.324587577E-2,3.026811182E-2,3.476354474E-2
2.491954583E0,2.246833271E-2,-2.897601421E-3,2.323274195E-2,3.244968979E-2
2.501992583E0,7.271464909E-3,9.318200522E-3,3.131593287E-2,3.347223797E-2
2.512029583E0,2.708008651E-2,-8.347274931E-3,2.802278101E-2,3.985328518E-2
2.522066583E0,2.411931232E-2,-9.517969731E-3,2.368122339E-2,3.511599801E-2
2.532103583E0,1.409167552E-2,2.181468252E-4,2.368122339E-2,2.755763503E-2
2.542140583E0,6.085996754E-3,-4.025387708E-3,2.712289453E-2,2.808726598E-2
2.552178583E0,1.056658563E-2,-1.928808693E-2,2.547631860E-2,3.365599261E-2
2.562215583E0,1.679995049E-2,-2.320990583E-2,3.909799218E-2,4.847258048E-2
2.572252583E0,3.721286813E-3,-4.495905843E-3,3.056515038E-2,3.111735147E-2
2.582289583E0,1.431840131E-2,6.700328984E-3,2.442849755E-2,2.909746582E-2
2.592327583E0,1.891625884E-2,-5.521119176E-3,9.161417484E-3,2.173106476E-2
2.602364583E0,-3.267300767E-3,3.611167297E-3,1.769425929E-2,1.835218230E-2
2.612401583E0,1.780207189E-2,-9.502378679E-3,2.951908350E-2,3.575731051E-2
2.622438583E0,3.146233710E-2,5.014919322E-3,1.275394678E-2,3.431750618E-2
2.632475583E0,2.696839556E-2,5.334848813E-3,2.323215723E-2,3.599288958E-2
2.642513583E0,2.540963293E-2,6.864772788E-3,2.278250635E-2,3.481116411E-2
2.652550583E0,7.286626557E-3,8.915254273E-3,2.667382836E-2,2.905287946E-2
2.662587583E0,2.460968815E-2,9.433925143E-3,2.622417748E-2,3.717987599E-2
2.672624583E0,2.066378146E-2,5.948500391E-3,1.349946678E-2,2.538921276E-2
2.682661583E0,2.246447263E-2,-8.061848581E-4,2.697145164E-2,3.511070589E-2
2.692699583E0,1.908499669E-2,-1.166046720E-2,1.843977928E-2,2.898670478E-2
2.702736583E0,3.734126476E-2,1.157760576E-2,3.056456566E-2,4.962462779E-2
2.712773583E0,8.782106778E-3,-1.581006256E-2,3.131359398E-2,3.616109299E-2
2.722810583E0,2.226612411E-2,1.600588490E-3,2.996639550E-2,3.736745945E-2
2.732847583E0,2.169354466E-2,-1.546181976E-3,2.577569604E-2,3.372516960E-2
2.742885583E0,1.654680717E-2,-3.805573513E-3,3.176266015E-2,3.601591033E-2
2.752922583E0,2.349237203E-2,1.655547749E-3,2.053717554E-2,3.124752728E-2
2.762959583E0,-1.544190268E-3,7.851896994E-4,2.173585474E-2,2.180477993E-2
2.772996583E0,9.245960000E-3,1.632121885E-2,1.455138087E-2,2.374052751E-2
2.783033583E0,2.566977921E-3,-3.102349900E-3,2.697495997E-2,2.727384124E-2
2.793071583E0,2.545890943E-2,7.042267760E-3,3.341099024E-2,4.259159393E-2
2.803108583E0,1.320321851E-2,-4.812514298E-3,1.425083399E-2,2.001428346E-2
2.813145583E0,1.490445220E-2,-4.299612986E-3,2.577628076E-2,3.008398273E-2
2.823182583E0,4.653127422E-3,8.629782242E-3,4.433709741E-2,4.540818145E-2
2.833220583E0,1.047079179E-2,1.304723946E-2,2.517869532E-2,3.022969792E-2
2.843257583E0,2.731697184E-2,-7.826909283E-3,2.128678858E-2,3.550499722E-2
2.853294583E0,1.036034337E-2,-1.324667063E-2,3.386064112E-2,3.780679853E-2
2.863331583E0,1.249354012E-2,-1.629485613E-2,2.008986354E-2,2.872652951E-2
2.873368583E0,1.045785940E-2,1.737207770E-3,2.967052639E-2,3.150753640E-2
2.883406583E0,1.331729860E-2,1.883200868E-3,3.146679103E-2,3.422069294E-2
2.893443583E0,3.748728070E-2,9.456455195E-3,2.038807154E-2,4.370805670E-2
2.903480583E0,2.217063177E-2,4.807329462E-3,2.413028955E-2,3.311975549E-2
2.913517583E0,1.619630313E-2,-2.212874196E-3,3.296192408E-2,3.679273687E-2
2.923554583E0,3.292777268E-3,-1.063396566E-2,3.880095363E-2,4.036629299E-2
2.933592583E0,2.015767297E-2,-1.335482128E-2,2.832215846E-2,3.724013548E-2
2.943629583E0,1.428528688E-2,2.329078470E-3,2.951908350E-2,3.287659226E-2
2.953666583E0,1.892330290E-2,-3.519649236E-3,2.772281885E-2,3.374957790E-2
2.963703583E0,2.182856966E-2,-1.201013984E-2,2.637503564E-2,3.628184694E-2
2.973740583E0,7.407179698E-3,-6.413943325E-3,3.385947168E-2,3.524867093E-2
2.983778583E0,1.902183762E-2,7.041600812E-4,2.502666771E-2,3.144296813E-2
2.993815583E0,1.332407315E-2,-1.233562418E-2,3.849923730E-2,4.256629913E-2
3.003852583E0,2.846805562E-2,1.904164050E-3,2.532546043E-2,3.815016354E-2
3.013889583E0,3.187822031E-2,4.602023670E-3,2.562483788E-2,4.115861840E-2
3.023926583E0,1.942940683E-2,4.954377799E-3,4.463530540E-2,4.893217957E-2
3.033964583E0,9.759528260E-3,3.847924713E-3,2.008518577E-2,2.265986769E-2
3.044001583E0,4.826579592E-3,-1.178724672E-2,2.786782980E-2,3.064067547E-2
3.054038583E0,2.414498982E-2,-1.209857441E-2,1.828658223E-2,3.261525909E-2
3.064075583E0,1.809663452E-2,-1.570120842E-2,3.160887837E-2,3.966279515E-2
3.074112583E0,8.634642740E-3,-2.494600355E-3,1.948409200E-2,2.145716494E-2
3.084150583E0,2.883322338E-2,4.921016693E-3,4.657716572E-2,5.500003220E-2
3.094187583E0,2.026132400E-2,9.874558523E-3,2.756669819E-2,3.560829967E-2
3.104224583E0,2.521419432E-2,-1.010212485E-2,2.996113300E-2,4.044104366E-2
3.114261583E0,2.562326644E-2,-9.662711159E-3,4.537907124E-2,5.300169692E-2
3.124299583E0,1.333118117E-2,-1.823490746E-3,3.145743549E-2,3.421426249E-2
3.134336583E0,2.495364604E-2,-1.206990021E-2,1.633945942E-2,3.217677541E-2
3.144373583E0,2.406089498E-2,5.997831705E-3,3.789463520E-2,4.528690793E-2
3.154410583E0,1.290987101E-2,9.843993117E-3,3.325370014E-2,3.700510158E-2
3.164447583E0,3.136137670E-2,-4.718776122E-3,1.469112933E-2,3.495185371E-2
3.174485583E0,1.701299014E-2,-3.837993583E-3,1.813280046E-2,2.515890460E-2
3.184522583E0,1.609618784E-2,-9.581905380E-3,3.160361588E-2,3.673810978E-2
3.194559583E0,2.519181044E-2,-1.314459104E-2,2.546637833E-2,3.815683441E-2
3.204596583E0,1.753013068E-2,-1.355775621E-2,2.127509415E-2,3.072047959E-2
3.214633583E0,1.547459684E-2,-1.728042260E-2,3.729237199E-2,4.391807328E-2
3.224671583E0,3.576860586E-2,-8.823617441E-3,2.771112442E-2,4.609941222E-2
3.234708583E0,2.127062195E-2,7.796028676E-4,3.549493790E-2,4.138765220E-2
3.244745583E0,2.859823383E-2,4.556369707E-3,3.504470229E-2,4.546152925E-2
3.254782583E0,2.507760244E-2,1.226613368E-2,3.010497451E-2,4.105671285E-2
3.264819583E0,3.346243203E-2,4.820435448E-3,3.699065566E-2,5.011266867E-2
3.274857583E0,1.920512956E-2,4.206715347E-3,3.474532485E-2,3.992206225E-2
3.284894583E0,1.956186453E-2,-4.671317744E-3,1.468703628E-2,2.490375048E-2
3.294931583E0,8.487722310E-3,-1.611896457E-2,2.411684096E-2,3.022390555E-2
3.304968583E0,1.779417358E-3,-1.643533092E-2,4.342668593E-2,4.646679975E-2
3.315005583E0,8.877320462E-3,-9.073535660E-3,3.968388319E-2,4.166469072E-2
3.325043583E0,1.320210845E-2,1.912468923E-3,2.740940809E-2,3.048325535E-2
3.335080583E0,1.844469917E-2,-8.730432009E-3,1.768139541E-2,2.700109468E-2
3.345117583E0,4.885869445E-3,-5.903901667E-3,3.624279678E-2,3.704413710E-2
3.355154583E0,3.383128627E-2,1.168191461E-2,2.531552017E-2,4.383946420E-2
3.365191583E0,4.398836581E-2,3.554924391E-5,1.753112197E-2,4.735311846E-2
3.375229583E0,4.498293608E-2,3.257524953E-3,1.648271620E-2,4.801828756E-2
3.385266583E0,3.341485945E-2,2.701081528E-2,3.040259778E-2,5.263511115E-2
3.395303583E0,5.621086007E-2,6.923359148E-3,2.007407606E-2,6.008795405E-2
3.405340583E0,5.305033495E-2,6.236850349E-3,3.938333631E-2,6.636477619E-2
3.415377583E0,3.792795519E-2,4.613951077E-3,2.306726575E-2,4.463089825E-2
3.425415583E0,1.431296979E-2,-1.230812856E-2,3.099959850E-2,3.629498919E-2
3.435452583E0,6.185737462E-3,-2.846851700E-2,3.534057140E-2,4.580039078E-2
3.445489583E0,6.050570849E-3,-6.025482640E-3,3.189656138E-2,3.301978917E-2
3.455526583E0,8.294846420E-3,-6.661764770E-3,4.072819591E-2,4.209476842E-2
3.465564583E0,2.815757304E-2,8.447856177E-5,2.126983166E-2,3.528826710E-2
3.475601583E0,3.165300201E-2,-2.109954064E-3,2.141952038E-2,3.827741234E-2
3.485638583E0,6.184797796E-2,2.517515501E-2,3.040084362E-2,7.337010359E-2
3.495675875E0,7.350747672E-2,1.930383330E-2,8.845083117E-3,7.651289178E-2
3.505712875E0,3.611503968E-2,-7.863902058E-3,2.725621104E-2,4.592426469E-2
3.515750875E0,2.422519261E-2,-1.559676253E-3,1.498173594E-2,2.852621529E-2
3.525787875E0,-9.721809151E-3,-3.632262954E-4,3.279469371E-2,3.420727177E-2
3.535824875E0,-2.117949674E-2,-2.922961892E-2,2.231706798E-2,4.243811056E-2
3.545861875E0,-2.218069081E-2,-5.924634158E-2,9.892319441E-3,6.403100827E-2
3.555898875E0,-1.748080394E-2,-3.585098308E-2,3.354196787E-2,5.211463425E-2
3.565936875E0,3.146243760E-2,1.913912455E-3,1.378305674E-2,3.440233558E-2
3.575973875E0,4.908592273E-2,6.325115897E-3,2.755500376E-2,5.664550409E-2
3.586010875E0,4.851529387E-2,2.478476201E-2,1.034138560E-2,5.545234372E-2
3.596047875E0,4.878227865E-2,2.756929746E-2,3.863313854E-2,6.806097462E-2
3.606084875E0,4.977604493E-2,3.323234410E-2,2.740589976E-2,6.582648923E-2
3.616122875E0,5.491679816E-2,2.082907037E-2,5.434870005E-2,8.002178509E-2
3.626159875E0,3.244323950E-2,-9.423062112E-4,1.617690682E-2,3.626491479E-2
3.636196875E0,-1.635872782E-2,-1.726341999E-2,2.426009774E-2,3.397331288E-2
3.646233875E0,-2.683731743E-2,-2.177975454E-2,3.309114754E-2,4.785000899E-2
3.656270875E0,-2.301826334E-2,-2.541474468E-2,8.093131185E-3,3.523135630E-2
3.666308875E0,7.159084165E-3,-1.308249635E-2,2.530791879E-2,2.937507362E-2
3.676345875E0,1.345154245E-2,-7.703400557E-3,2.036819100E-2,2.559588989E-2
3.686382875E0,3.594455224E-2,3.247726299E-3,3.144574106E-2,4.786849895E-2
3.696419875E0,5.793549176E-2,2.316668212E-2,2.530850351E-2,6.733302842E-2
3.706456875E0,6.166709800E-2,1.828644062E-2,2.186507821E-2,6.793604736E-2
3.716494875E0,5.450013836E-2,1.325920560E-2,3.488741219E-2,6.605454673E-2
3.726531875E0,2.630248906E-2,2.615084974E-3,1.917009652E-2,3.265198616E-2
3.736568875E0,1.344519731E-2,-2.125098809E-2,2.440861702E-2,3.504509110E-2
3.746605875E0,-9.035775438E-3,-2.601772052E-2,3.728184700E-2,4.635194855E-2
3.756642875E0,-2.109508214E-2,-4.436002489E-2,1.587752938E-2,5.162276860E-2
3.766680875E0,-3.104638080E-2,-3.351024216E-2,4.431721687E-2,6.364612951E-2
3.776717875E0,-6.964326203E-3,-1.271361013E-2,2.934776008E-2,3.273268617E-2
3.786754875E0,2.260501137E-2,6.993703893E-3,1.991620123E-2,3.092819919E-2
3.796791875E0,5.693086702E-2,6.290813754E-3,1.991678596E-2,6.064137466E-2
3.806828875E0,3.816140985E-2,1.555864600E-2,4.237126350E-2,5.910743301E-2
3.816866875E0,4.003303962E-2,1.001444402E-2,3.997624397E-2,5.745462064E-2
3.826903875E0,6.343095628E-2,1.584795526E-2,1.273231208E-2,6.660897591E-2
3.836940875E0,3.446469048E-2,8.470011642E-3,3.862729132E-2,5.245592075E-2
3.846977875E0,-1.377307079E-3,-2.184067522E-3,3.278943121E-2,3.289093986E-2
3.857014875E0,5.036704768E-3,-2.459072124E-2,1.662187994E-2,3.010579444E-2
3.867052875E0,-7.991334815E-3,-2.157262150E-2,3.218950689E-2,3.956518399E-2
3.877089875E0,-1.728222244E-3,-1.141579777E-2,2.156160772E-2,2.445833433E-2
3.887126875E0,2.091160747E-3,-1.295177453E-2,2.784853399E-2,3.078412354E-2
3.897163875E0,2.994480191E-2,1.492415457E-2,1.692184210E-2,3.749360334E-2
3.907200875E0,3.452588981E-2,9.965724838E-3,3.308880866E-2,4.884897130E-2
3.917238875E0,4.565606937E-2,2.489793304E-2,-1.638974547E-3,5.202951064E-2
3.927275875E0,3.451245949E-2,2.520528645E-2,2.949627936E-2,5.192732249E-2
3.937312875E0,2.109221791E-2,1.780563961E-3,4.132285774E-2,4.642876949E-2
3.947349875E0,2.277290412E-2,-7.127253385E-3,3.473596931E-2,4.214250190E-2
3.957386875E0,7.578439163E-3,-1.178338664E-2,3.518562019E-2,3.787226966E-2
3.967424875E0,8.043973460E-3,-1.108452103E-2,3.832908332E-2,4.070246607E-2
3.977461875E0,1.250491021E-2,-2.535907736E-2,1.767203987E-2,3.334301391E-2
3.987498875E0,5.107410396E-3,-1.942070909E-2,2.231297493E-2,3.001863476E-2
3.997535875E0,5.698152767E-3,-1.420002260E-2,2.635457039E-2,3.047413604E-2
4.007572875E0,1.958534933E-2,2.750347517E-3,2.470916390E-2,3.164953555E-2
4.017610875E0,4.202976327E-2,1.186922651E-2,2.830169320E-2,5.204195785E-2
4.027647875E0,5.293900487E-2,1.616038387E-2,2.949920297E-2,6.272080372E-2
4.037684875E0,5.137122475E-2,4.655448035E-3,2.590667367E-2,5.772202066E-2
4.047721875E0,4.086640490E-2,1.400716041E-2,3.608609140E-2,5.628916045E-2
4.057758875E0,2.400860352E-2,-1.927301665E-3,3.653515756E-2,4.376008767E-2
4.067796875E0,2.302085347E-3,-2.429211125E-2,2.530791879E-2,3.515532704E-2
4.077833875E0,-1.851732341E-2,-3.937132210E-2,2.096636117E-2,4.829679670E-2
4.087870875E0,-1.183988536E-2,-1.477142347E-2,1.572725594E-2,2.461146920E-2
4.097907875E0,-2.936882833E-3,-1.339082277E-2,2.336255014E-2,2.708778626E-2
4.107944875E0,2.232265938E-4,-2.388199302E-3,3.907869637E-2,3.915223922E-2
4.117982875E0,2.208368185E-2,6.268726811E-3,1.542787850E-2,2.765873054E-2
4.128019875E0,4.924144040E-2,1.707445443E-2,3.234211922E-2,6.133733873E-2
4.138056875E0,5.802654844E-2,2.277424715E-2,4.790974617E-2,7.861991119E-2
4.148093875E0,4.506186435E-2,5.256084991E-3,1.752235115E-2,4.863363896E-2
4.158130875E0,3.602216945E-2,6.184645677E-3,2.425775886E-2,4.386667755E-2
4.168168875E0,5.607347335E-3,1.084954976E-2,4.611231208E-2,4.770220539E-2
4.178205875E0,-1.171256224E-2,-1.470701731E-2,1.378130257E-2,2.331104401E-2
4.188242875E0,-1.361391689E-2,-2.954434073E-2,4.207188606E-2,5.318129746E-2
4.198279875E0,1.815263531E-3,-1.392068101E-2,2.350989997E-2,2.738240198E-2
4.208316875E0,-3.892875183E-3,-9.818283641E-3,2.949686408E-2,3.133078616E-2
4.218354875E0,3.634647522E-3,-8.534673625E-3,3.279060066E-2,3.407748242E-2
4.228391875E0,4.079995221E-2,-1.360409539E-3,2.934776008E-2,5.027701101E-2
4.238428875E0,4.676042112E-2,-2.705661999E-4,2.695215583E-2,5.397248274E-2
4.248465875E0,4.518827385E-2,2.652967166E-2,3.264032722E-2,6.173487290E-2
4.258502875E0,4.687588078E-2,1.743155485E-2,4.895581305E-2,6.998484790E-2
4.268540875E0,2.872492655E-2,-1.099317656E-3,-1.271652460E-2,3.143310202E-2
4.278577875E0,2.095373027E-2,-1.170412489E-2,4.925519049E-2,5.479159737E-2
4.288614875E0,9.026712254E-3,-6.053960407E-3,2.695098639E-2,2.906006947E-2
4.298651875E0,4.601749582E-3,-3.438006117E-2,4.266771734E-2,5.498816971E-2
4.308688875E0,3.440766642E-4,-2.362401661E-2,3.503359258E-2,4.225594821E-2
4.318726875E0,2.303327881E-3,-2.181538601E-2,7.939934134E-3,2.332935791E-2
4.328763875E0,3.248959239E-2,-7.700883513E-3,3.144164801E-2,4.586343260E-2
4.338800875E0,2.778176609E-2,1.798840621E-2,7.790245414E-3,3.400142951E-2
4.348837875E0,4.354561738E-2,-3.373994180E-3,3.982246220E-2,5.910527156E-2
4.358874875E0,4.110721882E-2,7.298261602E-3,2.548801303E-3,4.182779518E-2
4.368912875E0,4.589465404E-2,7.864559870E-3,5.254424930E-2,7.020732658E-2
4.378949875E0,2.996064421E-2,1.352243994E-2,3.353261232E-2,4.695671063E-2
4.388986875E0,1.049031144E-2,-8.197138533E-3,2.919163942E-2,3.208413201E-2
4.399023875E0,3.727271073E-3,-1.822350996E-2,-1.496887207E-3,1.866090931E-2
4.409060875E0,2.109161264E-2,-3.093222305E-2,1.275324512E-1,1.329142003E-1
4.419098875E0,-9.591587547E-3,-2.515906147E-3,-6.556658328E-2,6.631217971E-2
4.429135875E0,2.049997948E-2,-1.337570223E-2,6.002108395E-2,6.482043727E-2
4.439172875E0,2.834543083E-2,-1.865835094E-2,4.580007076E-2,5.700214023E-2
4.449209875E0,3.409761096E-2,1.052733620E-2,-2.399112582E-3,3.576629169E-2
4.459246875E0,2.092308949E-2,8.181597730E-3,4.924232662E-2,5.412504915E-2
4.469284875E0,5.196454811E-2,1.703865394E-2,1.885668576E-2,5.784638784E-2
4.479321875E0,1.202064198E-2,1.113224893E-2,-1.422569096E-2,2.169776678E-2
4.489358875E0,2.844674983E-3,-8.022014424E-4,1.122080684E-2,1.160354295E-2
4.499396583E0,2.698936559E-2,-1.097904274E-2,4.933880568E-3,2.955179203E-2
4.509433583E0,-2.052388682E-3,-1.833711497E-2,4.100944698E-2,4.496928759E-2
4.519471583E0,-3.733603424E-2,-6.415706626E-3,1.915547848E-2,4.245083156E-2
4.529508583E0,-9.246259213E-3,8.710747906E-3,-2.919222414E-2,3.183640038E-2
4.539545583E0,5.069900051E-2,-3.482982168E-2,1.092745203E-1,1.253970730E-1
4.549582583E0,1.260364136E-2,2.411256061E-2,-1.448934191E-1,1.474258128E-1
4.559619583E0,1.907396464E-2,7.620886294E-4,1.251619899E-1,1.266093228E-1
4.569657583E0,1.688791911E-2,2.096544754E-2,-1.192890465E-2,2.944572242E-2
4.579694583E0,5.943400523E-2,5.175165008E-3,7.390178919E-2,9.497714333E-2
4.589731583E0,-6.657540157E-2,4.421634327E-2,1.154883564E-2,8.075112823E-2
4.599768583E0,-2.067493594E-1,2.612308689E-2,2.677556992E-2,2.101062693E-1
4.609805583E0,-8.971198423E-2,3.816829403E-2,9.315550089E-2,1.348443774E-1
4.619843583E0,-1.970383767E-1,-3.813042874E-2,3.910734773E-1,4.395640068E-1
4.629880583E0,-4.018414903E-2,-2.319056343E-1,-1.570445180E-2,2.358847576E-1
4.639917583E0,-2.192042576E-2,-2.629033690E-1,9.441569281E-1,9.803218815E-1
4.649954583E0,-6.863845456E-1,-4.660568917E-1,1.287907720E0,1.532004917E0
4.659991583E0,-3.579189240E-1,-6.947296918E-1,1.042412370E0,1.302834928E0
4.670029583E0,5.054347463E-1,-1.412664205E0,6.546548492E-1,1.636965916E0
4.680066583E0,5.186801881E-2,-1.152877676E0,5.902442604E-1,1.296227416E0
4.690103583E0,-4.514867632E-1,4.567118717E-1,8.938550860E-1,1.100637518E0
4.700140583E0,-5.543170671E-1,1.997313265E0,1.370744054E0,2.485048682E0
4.710177583E0,-7.340347485E-1,2.215832777E0,1.710867818E0,2.894095817E0
4.720215583E0,-5.931481339E-1,7.975323676E-1,1.709520620E0,1.977458807E0
4.730252583E0,-7.300544026E-1,1.217094375E-1,1.091155345E0,1.318488758E0
4.740289583E0,-7.486538109E-1,1.493720757E-1,2.722931385E-2,7.638952684E-1
4.750326583E0,-1.910957783E-1,1.931224233E-1,-5.685440737E-1,6.301239804E-1
4.760363583E0,5.228077376E-1,-2.014140309E-1,-7.834847975E-1,9.631946689E-1
4.770401583E0,3.206917119E-1,3.416577442E-1,-1.162921731E0,1.253778346E0
4.780438583E0,-3.629416457E-1,1.100559349E0,-9.121533626E-1,1.474781772E0
4.790475583E0,-1.076531458E0,9.339685933E-1,-6.531222939E-1,1.567732772E0
4.800512583E0,-5.226975176E-1,-2.081358256E-1,-3.914588088E-1,6.854000407E-1
4.810549583E0,-1.723338175E-1,-1.311815340E-1,-4.879764587E-1,5.338806643E-1
4.820586583E0,-3.557109788E-1,-2.412394533E-1,-6.606429827E-1,7.881471467E-1
4.830624583E0,-4.985967565E-1,-5.945801901E-1,-1.056433409E0,1.310792079E0
4.840661583E0,-8.155924433E-1,-1.330969393E0,-1.345088226E0,2.060566159E0
4.850698583E0,-5.396433333E-1,-6.632806617E-1,-1.299474682E0,1.555567617E0
4.860735583E0,-5.466415733E-1,-5.844540186E-1,-1.135373744E0,1.389056171E0
4.870772583E0,-2.940822029E-1,-8.653334644E-2,-8.427884281E-1,8.968080601E-1
4.880810583E0,-1.483690041E-1,1.111493788E0,-1.230061215E-1,1.128079035E0
4.890847583E0,-4.081055394E-1,1.397655572E0,9.783303952E-1,1.754172623E0
4.900884583E0,-3.526961544E-1,1.132773560E0,1.222980822E0,1.703893367E0
4.910921583E0,-9.281437433E-1,6.767901418E-1,6.866233313E-1,1.338262793E0
4.920958583E0,-1.054980376E0,-7.431764317E-1,1.548232192E0,2.015519219E0
4.930996583E0,2.231374384E0,-1.872599172E0,4.693070008E0,5.523636972E0
4.941033583E0,5.899076947E0,-1.472149246E0,5.817143422E0,8.414599802E0
4.951070583E0,8.676495026E0,1.761503682E-1,7.528820495E0,1.148893959E1
4.961107583E0,8.173510519E0,9.262260758E-1,9.796316346E0,1.279187175E1
4.971144583E0,4.891185661E0,8.590447839E-2,1.145518663E1,1.245601772E1
4.981182583E0,2.231223818E0,-1.553794649E0,1.169014647E1,1.200217322E1
4.991219583E0,1.680673381E0,-3.115250319E0,9.752268101E0,1.037478581E1
5.001256583E0,1.889827846E0,-3.927130365E0,6.398271289E0,7.741555250E0
5.011293583E0,3.103843571E0,-3.476438385E0,2.483370960E0,5.280776466E0
5.021330583E0,4.676420061E0,-3.111024536E0,-5.672699654E-1,5.645278865E0
5.031368583E0,4.199916132E0,-2.276285678E0,-2.112928213E0,5.223527317E0
5.041405583E0,1.871189408E0,-9.922897455E-1,-1.838877402E0,2.804899078E0
5.051442583E0,-2.239505522E-1,-1.049367633E0,-3.324171335E-1,1.123310923E0
5.061479583E0,1.387026065E0,-2.305776402E0,3.523105305E-1,2.713773910E0
5.071516583E0,4.923036906E0,-2.955707578E0,-6.960034347E-1,5.784195748E0
5.081554583E0,6.738489193E0,-1.380462127E0,-2.236991512E0,7.233052143E0
5.091591583E0,6.209680458E0,-1.011574155E0,-3.920361629E0,7.413005393E0
5.101628583E0,4.432320735E0,-1.611171037E0,-4.980248988E0,6.858878858E0
5.111665583E0,8.592050707E-1,-2.062431074E0,-4.925601495E0,5.408641731E0
5.121702583E0,-2.760681302E0,-2.195938210E0,-3.953624684E0,5.298552068E0
5.131740583E0,-4.138478267E0,-1.408779023E0,-3.197548125E0,5.416269447E0
5.141777583E0,-2.835281541E0,-1.093004819E0,-2.853496202E0,4.168443538E0
5.151814583E0,-1.149405015E0,-1.959839337E0,-2.657394623E0,3.496262046E0
5.161851583E0,-4.231708905E-1,-2.851302327E0,-2.391691881E0,3.745555849E0
5.171888583E0,-5.608427060E-1,-2.604536963E0,-2.245620832E0,3.484389509E0
5.181925583E0,-8.643646538E-2,-1.406282262E0,-2.262394740E0,2.665245021E0
5.191963583E0,1.534765470E-1,3.370422810E-2,-2.264423724E0,2.269869121E0
5.202000583E0,3.458189517E-2,5.171107954E-1,-2.301048928E0,2.358691513E0
5.212037583E0,6.306309789E-2,5.489032763E-1,-2.701412462E0,2.757335861E0
5.222074583E0,3.613544190E-1,7.443885595E-2,-3.233094519E0,3.254077185E0
5.232111583E0,8.782415584E-1,-8.913641721E-1,-3.711357583E0,3.916632920E0
5.242149583E0,9.716350409E-1,-9.619593608E-1,-3.676585361E0,3.922591029E0
5.252186583E0,6.722292405E-1,-5.461430982E-1,-3.292254308E0,3.404277143E0
5.262223583E0,-5.184743661E-1,4.425386229E-1,-3.001327263E0,3.077762408E0
5.272260583E0,-3.315822680E0,1.356919190E0,-2.433052161E0,4.330779670E0
5.282297583E0,-4.935011419E0,1.258793556E0,-2.213405013E0,5.553202740E0
5.292335583E0,-3.059784509E0,2.633299416E-1,-1.958798532E0,3.642597368E0
5.302372583E0,-1.453074313E0,-5.485694003E-1,-8.626560974E-1,1.776662288E0
5.312409583E0,-9.914910159E-1,-9.048924364E-1,5.229293597E-1,1.440603995E0
5.322446583E0,-9.150015414E-1,-6.944574308E-1,1.315580837E0,1.746497032E0
5.332483583E0,-1.303255199E0,-1.028542775E-1,1.494241342E0,1.985399281E0
5.342521583E0,-1.475234675E0,2.065964547E-1,1.299726697E0,1.976939283E0
5.352558583E0,-1.343475272E0,1.788563865E-1,8.664129335E-1,1.608597770E0
5.362595583E0,-1.042522298E0,-1.608590953E-1,2.371285683E-1,1.081183772E0
5.372632583E0,-6.067872030E-1,-7.778360948E-1,-5.226334906E-1,1.116407392E0
5.382669583E0,-2.118215266E-1,-1.286855075E0,-9.286314011E-1,1.601006128E0
5.392707583E0,1.626443964E-1,-1.388504095E0,-6.260765827E-1,1.531786117E0
5.402744583E0,5.768503359E-1,-1.370963763E0,-1.764356393E-1,1.497807560E0
5.412781583E0,7.680270982E-1,-2.138427629E0,1.255215937E-1,2.275630466E0
5.422818583E0,9.375372952E-1,-2.829175586E0,-5.267721498E-1,3.026664761E0
5.432855583E0,5.963651258E-1,-2.844482719E0,-1.286462873E0,3.178320315E0
5.442893583E0,-1.133532456E-1,-2.591965449E0,-7.027335799E-1,2.687930120E0
5.452930583E0,-8.202181756E-3,-1.489421190E0,4.727637577E-1,1.562673455E0
5.462967583E0,5.396389478E-1,-5.292162859E-1,1.463127138E0,1.646821512E0
5.473004583E0,9.681369442E-1,-3.714724410E-1,1.576523945E0,1.886984014E0
5.483041583E0,7.088768108E-1,-5.919925779E-1,1.054064702E0,1.401432817E0
5.493078458E0,6.019736288E-1,-1.174633996E0,2.197635072E-1,1.338070728E0
5.503115458E0,3.163103932E-1,-1.695979638E0,-5.773961735E-1,1.819281599E0
5.513152458E0,6.989337668E-2,-1.472572730E0,-5.042089140E-1,1.558070011E0
5.523189458E0,1.060304850E-2,-9.309819818E-1,-2.093262273E-1,9.542836813E-1
5.533226458E0,-4.742866650E-2,-1.858081412E-1,4.788606495E-1,5.158310434E-1
5.543264458E0,3.850590312E-1,2.136888349E-1,1.136236793E0,1.218592395E0
5.553301458E0,2.020640878E0,-3.389683539E-1,1.237191895E0,2.393435373E0
5.563338458E0,3.095651037E0,-1.185637871E0,-4.115094960E-2,3.315190176E0
5.573375458E0,1.322697922E0,3.176777646E-1,-1.391527982E0,1.945969959E0
5.583412458E0,-1.323119214E0,6.397654992E-1,-2.047645805E0,2.520475687E0
5.593449458E0,-1.198013796E0,-8.227979672E-1,-9.878683734E-1,1.757304035E0
5.603487458E0,8.549912748E-1,-7.191841364E-1,1.219701703E0,1.654058084E0
5.613524458E0,3.038618465E0,4.370135888E-1,2.723403255E0,4.103791947E0
5.623561458E0,3.040294862E0,7.526810807E-1,2.989980741E0,4.330116221E0
5.633598458E0,6.173235932E-1,5.856103420E-1,2.812048214E0,2.937965801E0
5.643635458E0,-7.613087936E-1,-1.047709363E0,2.328470031E0,2.664405876E0
5.653673458E0,-8.838203868E-1,-1.674620928E0,1.750107898E0,2.578443597E0
5.663710458E0,-3.867746043E-1,-8.494109845E-1,1.979035161E0,2.188075361E0
5.673747458E0,2.316261922E-1,-1.494215029E-1,3.080187491E0,3.092496153E0
5.683784458E0,3.953365360E-1,-5.249571741E-2,4.621291342E0,4.638467468E0
5.693821458E0,3.798908235E-1,-2.674060357E-1,5.614148560E0,5.633337118E0
5.703859458E0,2.921898977E-1,-5.297834659E-1,5.521564332E0,5.554612330E0
5.713896458E0,-2.445475155E-1,-5.484852004E-1,4.804417366E0,4.841803974E0
5.723933458E0,-7.597041714E-1,-5.356616718E-1,4.176871963E0,4.279058687E0
5.733970458E0,-6.322154282E-1,-6.536619920E-1,4.106812379E0,4.206290321E0
5.744007458E0,2.333319712E-1,-8.088277996E-1,4.267566955E0,4.349801597E0
5.754045458E0,1.001875378E0,-4.021311468E-1,5.188568909E0,5.299689713E0
5.764082458E0,1.152557833E0,-1.338907135E-1,7.602858524E0,7.690889027E0
5.774119458E0,7.397128335E-1,-7.012472177E-1,1.008201013E1,1.013340274E1
5.784156458E0,3.643533097E-1,-1.801199114E0,1.128297093E1,1.143164487E1
5.794193458E0,3.281729320E-1,-2.370423219E0,1.154223530E1,1.178769695E1
5.804230458E0,-1.889366940E-1,-2.885767570E0,1.105078852E1,1.142292775E1
5.814268458E0,-5.468006176E-1,-3.440358433E0,9.676981691E0,1.028489337E1
5.824305458E0,-3.381772256E-1,-4.009793622E0,8.434180562E0,9.344956420E0
5.834342458E0,-1.879178166E-2,-4.598897091E0,8.007281195E0,9.234000201E0
5.844379458E0,-3.987190041E-1,-5.098625284E0,8.289449111E0,9.740119260E0
5.854416458E0,-3.788548431E-1,-6.572205489E0,8.432842720E0,1.069814247E1
5.864454458E0,-1.246928971E-1,-7.412900029E0,8.054486936E0,1.094720946E1
5.874491458E0,-2.082140138E-1,-7.603426289E0,6.451207302E0,9.973641264E0
5.884528458E0,3.911000090E-1,-8.429857131E0,4.016117386E0,9.345835935E0
5.894565458E0,9.279917157E-1,-8.808875404E0,1.365127219E0,8.962199888E0
5.904602458E0,1.233426434E0,-8.568279437E0,-1.255918772E0,8.747233005E0
5.914640458E0,1.393946829E0,-8.006132802E0,-3.377156464E0,8.800365673E0
5.924677458E0,1.695778201E0,-7.480627159E0,-4.566502347E0,8.926835390E0
5.934714458E0,2.096955667E0,-7.109667519E0,-5.059200432E0,8.974413870E0
5.944751458E0,2.682523032E0,-7.020021517E0,-5.622981949E0,9.385870120E0
5.954788458E0,2.155378707E0,-6.392718773E0,-6.353693871E0,9.267250751E0
5.964826458E0,2.851427457E0,-6.188225269E0,-7.343107663E0,1.001728510E1
5.974863458E0,3.690315793E0,-5.837041497E0,-8.141368375E0,1.067573712E1
5.984900458E0,3.714925846E0,-5.527520891E0,-8.315217206E0,1.065349700E1
5.994937458E0,3.450638423E0,-5.531274219E0,-7.947805656E0,1.027956783E1
6.004974458E0,3.297439034E0,-5.427866794E0,-7.181920978E0,9.587222280E0
6.015011458E0,3.026342528E0,-5.119548376E0,-6.439505854E0,8.765600967E0
6.025049458E0,3.083156122E0,-4.967426044E0,-6.219721881E0,8.536165032E0
6.035086458E0,3.219707319E0,-4.722427123E0,-6.301943089E0,8.507779960E0
6.045123458E0,3.418915524E0,-4.280129113E0,-6.395090404E0,8.420550448E0
6.055160458E0,4.145776762E0,-3.628705435E0,-6.593648983E0,8.592506911E0
6.065197458E0,5.117667911E0,-2.953350273E0,-7.018798279E0,9.174766044E0
6.075235458E0,5.210331661E0,-2.156837879E0,-7.286970885E0,9.214089772E0
6.085272458E0,5.734560857E0,-2.273388090E0,-7.038861830E0,9.359436815E0
6.095309458E0,5.650407729E0,-1.839503639E0,-6.816112150E0,9.042691302E0
6.105346458E0,5.037680925E0,-1.734052613E0,-6.440937252E0,8.358877930E0
6.115383458E0,4.658956767E0,-1.691754439E0,-6.294294931E0,8.011620305E0
6.125421458E0,4.381349679E0,-1.513258826E0,-6.297018564E0,7.819118881E0
6.135458458E0,3.871686482E0,-1.395133960E0,-6.434324051E0,7.637858402E0
6.145495458E0,3.344767859E0,-1.484430884E0,-6.698469095E0,7.632856300E0
6.155532458E0,2.992851139E0,-1.771750197E0,-6.735919926E0,7.580822775E0
6.165569458E0,3.117507929E0,-1.963258204E0,-6.284235966E0,7.284563140E0
6.175606458E0,3.532364371E0,-1.755293793E0,-5.165808038E0,6.499555910E0
6.185644458E0,3.829183364E0,-1.514447565E0,-3.758744588E0,5.575334747E0
6.195681458E0,3.960296065E0,-1.463833482E0,-2.548069232E0,4.931471402E0
6.205718458E0,4.015577103E0,-1.811632885E0,-1.831423810E0,4.770847551E0
6.215755458E0,3.855492618E0,-2.281450231E0,-1.649039944E0,4.773800501E0
6.225792458E0,3.497325516E0,-2.475459677E0,-2.051297976E0,4.750474688E0
6.235830458E0,3.160891930E0,-2.591339797E0,-3.207065054E0,5.195338872E0
6.245867458E0,2.879805749E0,-3.200130841E0,-4.516691671E0,6.239761390E0
6.255904458E0,2.581808543E0,-4.498812640E0,-5.059890988E0,7.246209170E0
6.265941458E0,1.910432850E0,-5.767062020E0,-4.067420856E0,7.311133321E0
6.275978458E0,8.522264189E-1,-6.561832529E0,-2.425944870E0,7.047633966E0
6.286016458E0,-2.270202673E-1,-7.115790723E0,-1.136620078E0,7.209571486E0
6.296053458E0,-7.786476152E-1,-7.201922548E0,-8.398823619E-2,7.244379513E0
6.306090458E0,-9.273746882E-1,-6.693180873E0,7.799080557E-1,6.801981372E0
6.316127458E0,-7.408012196E-1,-6.060084123E0,1.106306942E0,6.204620945E0
6.326164458E0,-1.084572623E-1,-5.808470832E0,6.967869616E-1,5.851120274E0
6.336201458E0,3.465296077E-1,-5.899890295E0,-1.349373651E-1,5.911598460E0
6.346239458E0,8.286549769E-2,-5.454827721E0,3.709426832E-1,5.468053642E0
6.356276458E0,-1.000030582E0,-4.375587832E0,4.795313251E0,6.568170158E0
6.366313458E0,-2.013934560E0,-4.371818717E0,8.375813656E0,9.660382275E0
6.376350458E0,-1.743228210E0,-4.582348301E0,8.563499338E0,9.867638089E0
6.386387458E0,-1.234637246E0,-4.146319091E0,6.304379624E0,7.646011612E0
6.396425458E0,-7.694706295E-1,-3.532261460E0,3.064947308E0,4.739499770E0
6.406462458E0,-4.384575222E-1,-3.490441589E0,5.351886320E-1,3.558349949E0
6.416499458E0,-4.072032775E-1,-3.407711089E0,-5.665759009E-1,3.478407341E0
6.426536458E0,-5.261225972E-1,-3.031521115E0,1.557146857E0,3.448424509E0
6.436573458E0,-7.678041000E-1,-3.114370313E0,6.809727575E0,7.527364428E0
6.446611458E0,-1.066722754E0,-2.945220305E0,1.127306223E1,1.170017744E1
6.456648458E0,-1.457769919E0,-2.138400147E0,1.287077181E1,1.312838967E1
6.466685458E0,-1.426918840E0,-1.458342361E0,1.148434319E1,1.166417585E1
6.476722458E0,-1.071998112E0,-1.234187888E0,8.247581293E0,8.408031689E0
6.486759458E0,-8.830089395E-1,-8.144917050E-1,5.184026792E0,5.321394113E0
6.496796750E0,-7.570773829E-1,-3.675249857E-1,2.984065112E0,3.100465348E0
6.506834750E0,-1.049380570E0,2.033252299E-2,2.057305990E0,2.309571590E0
6.516871750E0,-1.008979380E0,-8.919225812E-2,2.221478848E0,2.441508329E0
6.526908750E0,-5.386850842E-1,-2.064815569E-1,3.044234716E0,3.098415927E0
6.536945750E0,-5.153610709E-2,1.563896298E-1,3.976166285E0,3.979574351E0
6.546982750E0,8.594454644E-1,4.961181217E-1,4.656904979E0,4.761464447E0
6.557020750E0,1.793245731E0,5.946776193E-1,5.315558154E0,5.641323445E0
6.567057750E0,1.699907358E0,5.423584878E-1,5.712312786E0,5.984509597E0
6.577094750E0,1.032035463E0,1.358904612E-1,5.844863318E0,5.936833383E0
6.587131750E0,1.889899584E-1,-5.803572035E-1,6.142743872E0,6.172992302E0
6.597168750E0,-6.918339314E-1,-8.505687332E-1,6.734210785E0,6.822880349E0
6.607206750E0,-4.974978819E-1,-9.504210502E-1,7.213991786E0,7.293317613E0
6.617243750E0,-2.323331571E-1,-1.533953876E0,7.058322533E0,7.226818814E0
6.627280750E0,-4.051772172E-1,-2.192608806E0,6.650461700E0,7.014295601E0
6.637317750E0,-5.925755088E-1,-2.413342951E0,7.306968362E0,7.717976197E0
6.647354750E0,7.445332780E-4,-2.478736457E0,8.889381623E0,9.228501537E0
6.657392750E0,6.146628177E-1,-3.174203117E0,1.075649231E1,1.123189666E1
6.667429750E0,8.526452257E-1,-4.004756831E0,1.193303630E1,1.261595959E1
6.677466750E0,9.351134782E-1,-5.096275288E0,1.254280499E1,1.357086645E1
6.687503750E0,4.539751920E-1,-7.080826712E0,1.157413069E1,1.357588677E1
6.697540750E0,-3.283855513E-1,-8.812045764E0,9.133279513E0,1.269554183E1
6.707577750E0,-1.043439288E0,-9.209872191E0,6.315030327E0,1.121561944E1
6.717615750E0,-6.887124684E-1,-9.118754445E0,4.218832459E0,1.007097586E1
6.727652750E0,-2.886739670E-1,-8.350848384E0,4.205542615E0,9.354495715E0
6.737689750E0,2.655521759E-1,-8.546925405E0,4.682986484E0,9.749400712E0
6.747726750E0,1.225816721E0,-8.955504277E0,5.499047289E0,1.058032157E1
6.757763750E0,1.615394773E0,-9.009531380E0,6.271091425E0,1.109539290E1
6.767801750E0,2.069512783E0,-9.695566481E0,5.392593466E0,1.128569700E1
6.777838750E0,3.052784222E0,-1.046528927E1,2.585574442E0,1.120388175E1
6.787875750E0,3.774515698E0,-9.643143269E0,-2.050279391E-1,1.035756812E1
6.797912750E0,3.321308245E0,-7.635564340E0,-2.452898780E0,8.680417253E0
6.807949750E0,3.200789822E0,-6.152486503E0,-4.562858362E0,8.301675860E0
6.817986750E0,3.359442909E0,-5.079731761E0,-6.794673918E0,9.124534239E0
6.828024750E0,3.592193667E0,-4.284181234E0,-9.126126029E0,1.070253430E1
6.838061750E0,3.817169967E0,-3.892728857E0,-1.051293472E1,1.184254707E1
6.848098750E0,3.492054251E0,-3.431760687E0,-1.052997585E1,1.161257145E1
6.858135750E0,2.754140314E0,-3.193060387E0,-9.073550205E0,1.000551032E1
6.868172750E0,2.200309881E0,-3.491431523E0,-6.782947912E0,7.939763223E0
6.878210750E0,2.050026499E0,-3.885992280E0,-4.825093413E0,6.525723798E0
6.888247750E0,1.813628248E0,-3.864609597E0,-3.826843600E0,5.733165504E0
6.898284750E0,1.791140149E0,-3.869946350E0,-3.920182411E0,5.792451806E0
6.908321750E0,1.962913803E0,-3.495982411E0,-4.929515036E0,6.354135827E0
6.918358750E0,2.530494840E0,-2.718151286E0,-6.070103912E0,7.116032044E0
6.928395750E0,3.041266669E0,-2.028466938E0,-6.817938820E0,7.736166417E0
6.938433750E0,3.529400710E0,-1.506264387E0,-7.397130089E0,8.333248786E0
6.948470750E0,3.792423381E0,-9.692397290E-1,-7.683399242E0,8.623022942E0
6.958507750E0,4.055177956E0,-8.009270418E-1,-7.746566128E0,8.780389465E0
6.968544750E0,4.382043451E0,-7.794250757E-1,-7.377709731E0,8.616287433E0
6.978581750E0,4.189747531E0,-1.067713857E0,-6.119019379E0,7.492422533E0
6.988619750E0,3.516682724E0,-1.645592426E0,-4.105683281E0,5.650811182E0
6.998656750E0,2.765267565E0,-2.005327166E0,-1.741252874E0,3.834058336E0
7.008693750E0,2.153558176E0,-1.859516904E0,1.551915354E-1,2.849508790E0
7.018730750E0,1.907415248E0,-1.659234565E0,3.655112046E-1,2.554386562E0
7.028767750E0,2.079737371E0,-1.263081611E0,-9.947616559E-1,2.628732288E0
7.038804750E0,2.410830110E0,-6.242580986E-1,-3.143218136E0,4.010189552E0
7.048842750E0,2.756131291E0,-5.603854537E-2,-5.106802030E0,5.803346189E0
7.058879750E0,2.840041759E0,2.540545034E-1,-6.052364044E0,6.690402933E0
7.068916750E0,2.875499859E0,-4.704728186E-2,-6.028355377E0,6.679205150E0
7.078953750E0,2.801637831E0,-4.948685718E-1,-5.773250713E0,6.436186234E0
7.088990750E0,2.314835494E0,-1.182343842E0,-5.365444844E0,5.961912335E0
7.099028750E0,2.174481999E0,-2.054889920E0,-4.585580642E0,5.475262037E0
7.109065750E0,1.836637041E0,-2.141092497E0,-3.397305969E0,4.415789912E0
7.119102750E0,1.611411358E0,-2.253584740E0,-2.432532636E0,3.686801563E0
7.129139750E0,1.591667064E0,-2.484732192E0,-1.810765743E0,3.462104950E0
7.139176750E0,1.304357107E0,-2.587482389E0,-1.565034020E0,3.293287728E0
7.149214750E0,1.135567067E0,-2.706624670E0,-1.696993983E0,3.390445140E0
7.159251750E0,1.208438358E0,-2.913511439E0,-1.859643788E0,3.661577145E0
7.169288750E0,1.260232263E0,-3.147411175E0,-2.001631726E0,3.937119763E0
7.179325750E0,1.553036119E0,-3.382745233E0,-1.764387968E0,4.119217328E0
7.189362750E0,2.265314839E0,-3.217605245E0,-4.144933301E-1,3.956821900E0
7.199399750E0,1.141058114E0,-4.186337435E0,3.213951319E-1,4.350945825E0
7.209437750E0,-9.426762669E-1,-5.004544169E0,-4.289687703E-1,5.110588526E0
7.219474750E0,-2.071922860E0,-4.455469569E0,-3.143371626E0,5.833083112E0
7.229511750E0,1.785738564E-1,-5.019960353E0,-4.414393464E0,6.687208702E0
7.239548750E0,1.028225563E-2,-5.101287521E0,-2.304649059E0,5.597735916E0
7.249585750E0,-1.950993961E0,-4.752884100E0,8.155050275E-1,5.202050861E0
7.259623750E0,-2.356448373E0,-4.107567254E0,3.860053739E0,6.109416711E0
7.269660750E0,-1.119595983E0,-4.120986614E0,4.982357494E0,6.562005184E0
7.279697750E0,1.013295429E0,-3.428517237E0,4.374609008E0,5.649663888E0
7.289734750E0,2.011480922E0,-1.743393540E0,3.489863884E0,4.389148718E0
7.299771750E0,2.065130734E0,-1.160938940E0,2.349949193E0,3.336885581E0
7.309808750E0,1.937031687E0,-1.396522674E0,8.922886169E-1,2.549224649E0
7.319846750E0,1.350759733E0,-1.775887102E0,-9.195419043E-1,2.413272502E0
7.329883750E0,1.115892722E0,-2.325642318E0,-2.593812000E0,3.658099157E0
7.339920750E0,4.822849251E-1,-2.449382265E0,-2.246336532E0,3.358288260E0
7.349957750E0,-6.258182819E-1,-2.621065872E0,6.848843694E-2,2.695612267E0
7.359994750E0,-1.092839124E0,-2.610031591E0,2.846097136E0,4.013331678E0
7.370032750E0,-7.461133419E-1,-2.134515549E0,4.994311541E0,5.482334313E0
7.380069750E0,-5.532362824E-1,-1.399038146E0,6.236308678E0,6.415210366E0
7.390106750E0,-2.844090079E-1,-1.086509147E0,5.474108330E0,5.588134986E0
7.400143750E0,3.049766255E-1,-1.232931029E0,3.069475976E0,3.321868816E0
7.410180750E0,4.400076556E-1,-3.824611133E-1,2.339511913E0,2.411057700E0
7.420217750E0,1.914994555E-1,4.264315903E-2,3.223736050E0,3.229700389E0
7.430255750E0,1.501380792E-1,-3.327814150E-1,4.131626208E0,4.147724682E0
7.440292750E0,-3.878856118E-1,-1.449016052E-1,4.321796372E0,4.341586761E0
7.450329750E0,-8.496369063E-1,9.019973338E-2,3.660616615E0,3.759006899E0
7.460366750E0,3.284448275E-1,-8.369540763E-1,2.936368205E0,3.070932491E0
7.470403750E0,8.843126493E-1,-8.558727425E-1,2.319142553E0,2.625442666E0
7.480441750E0,6.434590392E-1,-1.506938571E-1,1.584719988E0,1.716999014E0
7.490478750E0,2.475062432E-2,4.039145476E-1,1.143416004E0,1.212913729E0
7.500515708E0,-4.456635211E-1,5.148800826E-1,1.870956396E0,1.991028707E0
7.510552708E0,-6.040653241E-1,3.645651251E-1,3.717419391E0,3.783782443E0
7.520589708E0,-3.483810920E-1,4.136320353E-3,5.390501917E0,5.401749477E0
7.530626708E0,1.326117447E-1,-4.983967817E-1,5.890197950E0,5.912733473E0
7.540664708E0,4.740666270E-1,-7.982326448E-1,5.627267958E0,5.703337549E0
7.550701708E0,7.913009899E-1,-9.517799431E-1,5.539875473E0,5.676465676E0
7.560738708E0,3.322511822E-1,-9.660892493E-1,5.113526328E0,5.214582514E0
7.570775708E0,-6.694555407E-1,1.505318892E-1,6.296623292E0,6.333900493E0
7.580812708E0,-1.000539290E0,1.127337331E-1,7.854588175E0,7.918859966E0
7.590850708E0,-5.371421868E-1,-9.358211374E-1,8.395576075E0,8.464631154E0
7.600887708E0,-7.699694884E-2,-9.028972203E-1,9.422061215E0,9.465536935E0
7.610924708E0,9.276231949E-1,-1.001553782E0,1.023346471E1,1.032411714E1
7.620961708E0,1.939160951E0,-2.211721600E0,9.151609949E0,9.612701093E0
7.630998708E0,1.840518569E0,-2.896277940E0,8.278183866E0,8.961264566E0
7.641036708E0,1.658059275E0,-3.081777933E0,8.797734119E0,9.468191032E0
7.651073708E0,2.573185069E0,-4.099969967E0,8.809045558E0,1.005138392E1
7.661110708E0,3.352559859E0,-4.955176127E0,8.541980415E0,1.042875148E1
7.671147708E0,2.160554370E0,-3.739624777E0,1.037199227E1,1.123525755E1
7.681184708E0,3.207162702E0,-5.190884407E0,8.908917171E0,1.079814700E1
7.691221708E0,3.177998252E0,-5.521643854E0,8.545515057E0,1.065898923E1
7.701259708E0,2.238791869E0,-5.347000971E0,8.909636378E0,1.062940397E1
7.711296708E0,1.726682782E0,-5.792243639E0,8.087285723E0,1.009632162E1
7.721333708E0,9.026721025E-1,-6.487979856E0,6.967207126E0,9.562984611E0
7.731370708E0,1.231384148E-1,-6.751470011E0,6.456187960E0,9.342369794E0
7.741407708E0,-4.056027849E-1,-6.953321743E0,4.930026083E0,8.533367100E0
7.751444708E0,-9.842002688E-1,-6.602634984E0,2.087492241E0,6.994359353E0
7.761482708E0,-2.072885604E0,-6.293858144E0,-6.028081727E-1,6.653787098E0
7.771519708E0,-2.803066306E0,-5.851452545E0,-3.563920040E0,7.402580878E0
7.781556708E0,-2.903673791E0,-4.751864346E0,-6.308013668E0,8.414426462E0
7.791593708E0,-3.335787998E0,-4.597553401E0,-6.694698225E0,8.779747329E0
7.801630708E0,-3.178807799E0,-5.133448961E0,-5.029208894E0,7.858120600E0
7.811668708E0,-1.472585448E0,-5.670795801E0,-1.468485234E0,6.040106108E0
7.821705708E0,2.423971837E-1,-6.334299241E0,2.553395168E0,6.833881046E0
7.831742708E0,1.762650467E0,-7.250314105E0,5.454393858E0,9.242532318E0
7.841779708E0,2.929048953E0,-7.175672643E0,5.719569765E0,9.632397622E0
7.851816708E0,2.833211626E0,-6.766159971E0,2.475685380E0,7.741900734E0
7.861853708E0,2.605987949E0,-6.276753284E0,-3.662892936E0,7.720465636E0
7.871891708E0,2.880111558E0,-5.507814020E0,-9.963088292E0,1.174283553E1
7.881928708E0,3.243344688E0,-4.887371814E0,-1.404927345E1,1.522457791E1
7.891965708E0,3.478638985E0,-3.830787547E0,-1.392103114E1,1.485163192E1
7.902002708E0,3.700834641E0,-3.210253540E0,-1.034241705E1,1.144410308E1
7.912039708E0,3.655758748E0,-3.372010329E0,-6.215208415E0,7.960140786E0
7.922077708E0,2.814247352E0,-3.329732037E0,-2.920224043E0,5.247362390E0
7.932114708E0,2.111248016E0,-3.370829777E0,-1.608701758E0,4.290429222E0
7.942151708E0,1.903285067E0,-3.336822370E0,-1.884179875E0,4.278669347E0
7.952188708E0,2.204842350E0,-2.992588599E0,-2.994959645E0,4.773541619E0
7.962225708E0,2.810278847E0,-2.561305574E0,-4.603792965E0,5.971001851E0
7.972262708E0,3.055132172E0,-2.157731334E0,-5.966118783E0,7.041605671E0
7.982300708E0,2.990125167E0,-1.982366320E0,-6.347721525E0,7.291378011E0
7.992337708E0,2.729535815E0,-2.076952050E0,-5.971704043E0,6.886606186E0
8.002374708E0,2.574059228E0,-2.112098494E0,-5.457679993E0,6.393200440E0
8.012411708E0,2.610467209E0,-1.976057174E0,-4.924071279E0,5.913190252E0
8.022448708E0,2.959834251E0,-2.150083176E0,-4.255496548E0,5.611838141E0
8.032486708E0,3.091679608E0,-2.185225527E0,-2.996222643E0,4.828151150E0
8.042523708E0,2.561615768E0,-2.024097898E0,-1.648352312E0,3.657309529E0
8.052560708E0,2.160339777E0,-2.068806294E0,-1.097563308E0,3.186168961E0
8.062597708E0,1.542192311E0,-1.917096775E0,-1.130505937E0,2.707703980E0
8.072634708E0,1.026279318E0,-1.777310314E0,-1.736559314E0,2.688441824E0
8.082671708E0,6.751107484E-1,-1.629699694E0,-2.965232400E0,3.450260686E0
8.092709708E0,5.529489648E-1,-1.417948042E0,-4.544639023E0,4.792710408E0
8.102746708E0,7.908584288E-1,-1.225276439E0,-5.723157617E0,5.906038648E0
8.112783708E0,1.522982161E0,-1.857170416E0,-5.679261400E0,6.166244129E0
8.122820708E0,1.915373601E0,-2.305056610E0,-4.611369202E0,5.499697076E0
8.132857708E0,1.397476940E0,-1.937863746E0,-3.350981403E0,4.115499248E0
8.142895708E0,1.246459731E0,-1.848631727E0,-2.174657269E0,3.114520085E0
8.152932708E0,1.410592829E0,-1.917499648E0,-1.261207579E0,2.693923085E0
8.162969708E0,1.618779726E0,-2.004134919E0,-6.113515395E-1,2.647783088E0
8.173006708E0,1.868259953E0,-2.135241188E0,3.362412125E-2,2.837389780E0
8.183043708E0,1.879581624E0,-1.713111395E0,3.224768668E-1,2.563507180E0
8.193080708E0,1.968768912E0,-1.212304975E0,-1.666596794E-1,2.318083224E0
8.203118708E0,1.830166512E0,-3.809630567E-1,-1.304797694E0,2.279723522E0
8.213155708E0,1.684392649E0,-3.907109499E-2,-2.584638888E0,3.085297931E0
8.223192708E0,2.163157404E0,-9.984307837E-1,-4.645515480E0,5.220816800E0
8.233229708E0,2.451269161E0,-1.971810341E0,-5.641997094E0,6.459790069E0
8.243266708E0,2.194775492E0,-2.302593763E0,-5.346430868E0,6.221197676E0
8.253303708E0,1.432240391E0,-2.659226555E0,-3.761203927E0,4.823842181E0
8.263341708E0,1.219414897E0,-3.302392795E0,-2.297380385E0,4.203656444E0
8.273378708E0,1.296127882E0,-3.282159675E0,-1.720744935E0,3.926000859E0
8.283415708E0,1.162722414E0,-3.049676135E0,-1.504883274E0,3.594039734E0
8.293452708E0,1.230021162E0,-2.795278984E0,-1.044699070E0,3.227682265E0
8.303489708E0,1.457212972E0,-3.212731590E0,-5.955659576E-1,3.577682592E0
8.313527708E0,1.768637285E0,-4.285971066E0,-1.002812102E-2,4.636564072E0
8.323564708E0,1.646648579E0,-4.334501202E0,9.384041449E-1,4.730745666E0
8.333601708E0,1.123315250E0,-3.998969257E0,1.293859016E0,4.350593456E0
8.343638708E0,7.778986600E-1,-4.138337057E0,5.457902187E-1,4.246038964E0
8.353675708E0,1.939091662E-1,-4.332880939E0,-7.461661130E-1,4.400934203E0
8.363712708E0,-3.124342740E-1,-4.154806325E0,-1.554184073E0,4.446967383E0
8.373750708E0,-4.854562356E-1,-4.287301893E0,-6.763070887E-1,4.367380972E0
8.383787708E0,-4.225148329E-1,-4.430136507E0,1.899138222E0,4.838528107E0
8.393824708E0,1.274331216E-1,-4.080503417E0,4.250041096E0,5.893182217E0
8.403861708E0,8.460811414E-1,-3.821310380E0,4.694824172E0,6.112253294E0
8.413898708E0,1.287330892E0,-3.475566857E0,3.456312561E0,5.067828167E0
8.423936708E0,1.330976410E0,-3.126833069E0,2.159935734E0,4.026649428E0
8.433973708E0,7.776530769E-1,-2.847566541E0,2.740546707E0,4.027899672E0
8.444010708E0,-1.429365022E-1,-2.676761186E0,5.035022196E0,5.704115163E0
8.454047708E0,-6.045727528E-1,-2.520183860E0,7.130609906E0,7.586991007E0
8.464084708E0,-6.907555586E-1,-2.205591379E0,7.746148052E0,8.083599830E0
8.474121708E0,-6.595686299E-1,-1.526136149E0,6.678404374E0,6.882238539E0
8.484159708E0,-4.776912063E-1,-8.610323256E-1,5.053267847E0,5.148308605E0
8.494196708E0,-2.711215758E-1,-3.299174488E-1,4.597777349E0,4.617565266E0
8.504233708E0,-2.792756093E-1,-1.134675586E-1,5.821889023E0,5.829687946E0
8.514270708E0,-3.330745798E-1,-5.929977143E-1,7.376226878E0,7.407516987E0
8.524307708E0,-2.733404479E-1,-1.311074388E0,8.725685897E0,8.827866415E0
8.534345708E0,-2.297234168E-1,-1.164161925E0,9.696773931E0,9.769107969E0
8.544382708E0,-1.179585674E-1,-4.550326610E-1,1.022707488E1,1.023787231E1
8.554419708E0,9.820712976E-2,-1.890749806E-1,1.067187023E1,1.067399683E1
8.564456708E0,3.739632817E-1,-3.298414350E-2,1.202744661E1,1.203330414E1
8.574493708E0,6.582654317E-1,-2.210072100E-1,1.345205054E1,1.346995995E1
8.584530708E0,1.013198000E0,-1.309609661E0,1.418926632E1,1.428554956E1
8.594568708E0,1.277763385E0,-3.326585650E0,1.375745996E1,1.421149380E1
8.604605708E0,1.015820549E0,-4.564548792E0,1.253331145E1,1.337725282E1
8.614642708E0,6.310714936E-1,-4.534100586E0,1.096797557E1,1.188498244E1
8.624679708E0,1.119503231E0,-4.575689492E0,1.008258550E1,1.112873543E1
8.634716708E0,1.370091797E0,-4.888089268E0,1.033092844E1,1.151080582E1
8.644753708E0,2.117912234E0,-6.013773590E0,1.174330467E1,1.336249339E1
8.654791708E0,3.631299260E0,-8.855766565E0,1.348667307E1,1.653787430E1
8.664828708E0,3.943705468E0,-1.176246717E1,1.478760722E1,1.930237741E1
8.674865708E0,3.752640095E0,-1.436949972E1,1.438722146E1,2.067745079E1
8.684902708E0,2.458713544E0,-1.484422113E1,1.143287365E1,1.889726893E1
8.694939708E0,2.283744678E0,-1.445263193E1,6.852644969E0,1.615712853E1
8.704977708E0,3.130722052E0,-1.377551383E1,3.648429848E0,1.459031330E1
8.715014708E0,3.147083438E0,-1.300419358E1,2.255809021E0,1.356841402E1
8.725051708E0,3.255445208E0,-1.304427039E1,1.161274716E0,1.349442376E1
8.735088708E0,2.257123037E0,-1.274222662E1,-1.362646830E-1,1.294131028E1
8.745125708E0,1.164808554E0,-1.193972902E1,-2.462465410E0,1.224653600E1
8.755162708E0,5.170931806E-1,-1.094070416E1,-5.099034004E0,1.208166133E1
8.765200708E0,-8.653820693E-2,-1.004000841E1,-7.076827801E0,1.228375958E1
8.775237708E0,-6.783179462E-1,-9.803544674E0,-8.318958839E0,1.287535163E1
8.785274708E0,-4.610894993E-1,-9.625229155E0,-8.820737650E0,1.306380697E1
8.795311708E0,2.373064698E-1,-9.229153969E0,-9.110026306E0,1.297020342E1
8.805348708E0,1.107622274E0,-8.802194375E0,-9.727028595E0,1.316512583E1
8.815386708E0,1.694485089E0,-7.902882083E0,-1.093130183E1,1.359485876E1
8.825423708E0,2.772715164E0,-6.631236640E0,-1.238474891E1,1.431933149E1
8.835460708E0,3.479595004E0,-5.885737694E0,-1.282416482E1,1.453302078E1
8.845497708E0,3.865537257E0,-5.026523852E0,-1.234224667E1,1.387585576E1
8.855534708E0,4.665178789E0,-4.447564718E0,-1.081892537E1,1.259340586E1
8.865571708E0,4.524700895E0,-4.387521999E0,-8.601148975E0,1.066316234E1
8.875609708E0,3.889151238E0,-4.153232839E0,-6.192266865E0,8.409459512E0
8.885646708E0,3.128874332E0,-3.948013111E0,-3.837252229E0,6.332548206E0
8.895683708E0,2.578558368E0,-3.714183542E0,-1.947088314E0,4.922933632E0
8.905720708E0,2.032826329E0,-3.440820948E0,-8.268559349E-1,4.081093287E0
8.915757708E0,1.559116492E0,-3.120204080E0,-7.167715752E-1,3.560937970E0
8.925794708E0,1.352215690E0,-2.861402223E0,-1.329719405E0,3.432821528E0
8.935832708E0,1.172946782E0,-2.621643577E0,-2.080165095E0,3.546252391E0
8.945869708E0,1.122544953E0,-2.367383836E0,-2.662888082E0,3.735717646E0
8.955906708E0,1.542806853E0,-2.474731699E0,-2.742576860E0,4.003283378E0
8.965943708E0,1.084264401E0,-1.931132432E0,-3.104681477E0,3.813652951E0
8.975980708E0,1.042071478E0,-1.650376033E0,-3.174461564E0,3.726507780E0
8.986017708E0,1.289143236E0,-1.495943466E0,-2.384642478E0,3.096168097E0
8.996055708E0,1.410076812E0,-1.464521699E0,-1.442888170E0,2.493003549E0
9.006092708E0,1.479780593E0,-1.338426493E0,-1.112492419E0,2.284463934E0
9.016129708E0,1.441391868E0,-1.014205402E0,-1.603241043E0,2.382562687E0
9.026166708E0,1.319714526E0,-7.643111926E-1,-2.844835014E0,3.227832754E0
9.036203708E0,1.218615291E0,-8.160935497E-1,-4.169622000E0,4.420042933E0
9.046241708E0,1.395329550E0,-1.091188089E0,-4.879789145E0,5.191336831E0
9.056278708E0,1.686795124E0,-1.357703594E0,-4.819157904E0,5.283267904E0
9.066315708E0,2.006755349E0,-1.441805851E0,-4.400397276E0,5.046718471E0
9.076352708E0,2.145667651E0,-1.314816021E0,-3.950411932E0,4.683843002E0
9.086389708E0,2.061758352E0,-1.312140920E0,-3.345386202E0,4.142966346E0
9.096426708E0,2.023936222E0,-1.309465234E0,-2.587140326E0,3.536143677E0
9.106464708E0,1.850078913E0,-9.873731142E-1,-1.795666917E0,2.760818235E0
9.116501708E0,1.735682232E0,-6.114556199E-1,-9.951573662E-1,2.092082448E0
9.126538708E0,1.733214999E0,-6.048196149E-1,-8.516620164E-1,2.023652438E0
9.136575708E0,1.946286076E0,-1.117808708E0,-1.459140068E0,2.677053517E0
9.146612708E0,1.898393871E0,-1.527733608E0,-2.330565673E0,3.371854924E0
9.156649708E0,1.841299026E0,-2.033986124E0,-2.755427871E0,3.888426984E0
9.166687708E0,2.129013904E0,-2.323178886E0,-2.084658680E0,3.778314723E0
9.176724708E0,2.233929617E0,-2.147464793E0,-5.147865272E-1,3.141186358E0
9.186761708E0,2.233712832E0,-2.322884186E0,5.993185544E-1,3.277872280E0
9.196798708E0,2.382549174E0,-1.672345192E0,1.270062748E0,3.175899620E0
9.206835708E0,2.098880132E0,-1.113150816E0,1.507417896E0,2.813665094E0
9.216873708E0,1.494115481E0,-1.522360017E0,1.081958113E0,2.391776421E0
9.226910708E0,9.039035261E-1,-2.591008844E0,3.985620064E-1,2.772944300E0
9.236947708E0,2.756310216E-1,-2.697495412E0,-6.825928456E-1,2.796137864E0
9.246984708E0,-2.433690092E-1,-2.624262545E0,-1.912628918E0,3.256398586E0
9.257021708E0,-3.057479098E-1,-2.923427732E0,-2.655636950E0,3.961353190E0
9.267058708E0,-7.186305512E-1,-2.423798942E0,-2.279712439E0,3.404162156E0
9.277096708E0,-9.965753891E-1,-2.410159142E0,-1.050073977E0,2.811527157E0
9.287133708E0,-1.556245948E-1,-3.390352460E0,2.642596489E-1,3.404194762E0
9.297170708E0,2.469748409E-1,-3.911631736E0,1.352570908E0,4.146240160E0
9.307207708E0,1.678273684E-1,-3.930901235E0,1.285466507E0,4.139151445E0
9.317244708E0,9.770602338E-2,-3.899103491E0,7.053162950E-1,3.963587463E0
9.327281708E0,5.163688568E-1,-3.961513163E0,3.866833878E-1,4.013694978E0
9.337319708E0,1.295945302E0,-3.666855594E0,1.507003475E0,4.170894826E0
9.347356708E0,1.232595398E0,-3.140767568E0,3.943634132E0,5.189986753E0
9.357393708E0,6.213328097E-1,-2.988608984E0,5.642738521E0,6.415476298E0
9.367430708E0,8.751257233E-2,-3.556434435E0,5.981120984E0,6.959144528E0
9.377467708E0,-6.874556094E-1,-3.792805789E0,5.386498913E0,6.623619970E0
9.387505708E0,-1.424834600E0,-2.802012053E0,5.053689432E0,5.951571394E0
9.397542708E0,-1.187526887E0,-1.781667659E0,6.315988685E0,6.669053368E0
9.407579708E0,-6.560590580E-1,-1.447998637E0,8.642517441E0,8.787503699E0
9.417616708E0,-5.622362802E-1,-1.459412402E0,1.007584600E1,1.019650267E1
9.427653708E0,-4.012454398E-1,-1.302452084E0,1.030720746E1,1.039691805E1
9.437690708E0,-3.772065861E-1,-1.241799501E0,1.043176718E1,1.051218899E1
9.447728708E0,-4.699095125E-1,-1.358558457E0,1.094990066E1,1.104385895E1
9.457765708E0,-5.693292817E-1,-1.615942950E0,1.115770018E1,1.128847557E1
9.467802708E0,-7.089306052E-1,-1.938787606E0,1.044639458E1,1.064841020E1
9.477839708E0,-6.248741759E-1,-2.298868502E0,9.144336598E0,9.449558505E0
9.487876708E0,-7.078529634E-2,-2.328542536E0,8.657896203E0,8.965840037E0
9.497913250E0,6.200469339E-1,-2.418404301E0,8.953272395E0,9.294849334E0
9.507951250E0,1.256681980E0,-2.855002445E0,9.292112110E0,9.801715973E0
9.517988250E0,2.121336071E0,-3.397166221E0,9.931940174E0,1.070907282E1
9.528025250E0,2.650691082E0,-4.082678581E0,1.097786204E1,1.200865865E1
9.538062250E0,2.552375998E0,-5.313402870E0,1.093776652E1,1.242503962E1
9.548099250E0,2.115384775E0,-6.096212314E0,1.003092418E1,1.192719989E1
9.558136250E0,1.220483037E0,-6.828235767E0,9.051646535E0,1.140380145E1
9.568174250E0,8.382832946E-1,-7.806703572E0,7.828292077E0,1.108735750E1
9.578211250E0,1.383973380E0,-8.185950471E0,6.384475953E0,1.047314187E1
9.588248250E0,1.961086548E0,-8.138397405E0,5.167072206E0,9.837581407E0
9.598285250E0,2.839209993E0,-8.433702260E0,4.187621484E0,9.834867609E0
9.608322250E0,3.461627095E0,-8.600235055E0,3.495420786E0,9.907818712E0
9.618360250E0,3.291777175E0,-8.747584890E0,2.660696545E0,9.717784957E0
9.628397250E0,3.140544205E0,-8.685372269E0,1.732109583E0,9.396750128E0
9.638434250E0,2.581304805E0,-8.309056579E0,2.304165494E-1,8.703829475E0
9.648471250E0,1.559599472E0,-7.370822296E0,-1.804915019E0,7.747198853E0
9.658508250E0,3.907643788E-1,-7.052271835E0,-3.545212458E0,7.902896064E0
9.668545250E0,-3.232758158E-1,-7.245153353E0,-4.965963070E0,8.789627044E0
9.678583250E0,-8.066938582E-1,-7.413041532E0,-5.282185171E0,9.138130001E0
9.688620250E0,-1.035421732E0,-7.614590378E0,-4.990352976E0,9.162843861E0
9.698657250E0,-3.631172449E-1,-7.658408242E0,-4.879184543E0,9.087877241E0
9.708694250E0,7.585440838E-1,-7.225067582E0,-5.034450338E0,8.838703576E0
9.718731250E0,1.533116555E0,-6.230015904E0,-5.671334329E0,8.563152318E0
9.728768250E0,2.455734095E0,-5.277430800E0,-7.400126202E0,9.415082241E0
9.738806250E0,3.618474562E0,-4.665296318E0,-9.586088478E0,1.125839421E1
9.748843250E0,4.048560078E0,-4.233749583E0,-1.087008149E1,1.234804218E1
9.758880250E0,4.166744877E0,-3.787660239E0,-1.061830623E1,1.201900828E1
9.768917250E0,4.037614967E0,-3.145970421E0,-8.811210782E0,1.019003925E1
9.778954250E0,3.776280972E0,-2.978134282E0,-6.433784938E0,8.032631599E0
9.788992250E0,3.429114822E0,-2.833335003E0,-3.927254326E0,5.933796613E0
9.799029250E0,2.637788616E0,-2.578120412E0,-1.764417204E0,4.088740846E0
9.809066250E0,1.774627612E0,-2.621842382E0,-7.963925260E-1,3.264598243E0
9.819103250E0,9.481708954E-1,-2.636706004E0,-1.136132712E0,3.023581343E0
9.829140250E0,6.268308735E-1,-2.111699713E0,-2.491833050E0,3.325872002E0
9.839177250E0,5.153984383E-1,-1.475784021E0,-4.551850394E0,4.812786723E0
9.849215250E0,8.286507377E-1,-8.668830496E-1,-6.743081011E0,6.848889676E0
9.859252250E0,1.806035053E0,-4.710838526E-1,-7.775556039E0,7.996433850E0
9.869289250E0,2.731153155E0,-1.795972288E-1,-7.260530360E0,7.759301118E0
9.879326250E0,3.258537508E0,-2.363216525E-1,-6.192041162E0,7.001091941E0
9.889363250E0,3.425728115E0,-3.950279492E-1,-5.141304111E0,6.190692058E0
9.899400250E0,3.117696794E0,-3.679348755E-1,-4.216942931E0,5.257187181E0
9.909438250E0,2.713258044E0,-6.577322388E-1,-3.046737032E0,4.132431179E0
9.919475250E0,2.119298901E0,-7.330665958E-1,-1.487524061E0,2.691011389E0
9.929512250E0,1.444840556E0,-4.452871066E-1,-2.123983544E-1,1.526747491E0
9.939549250E0,7.754420985E-1,-8.651072502E-2,7.254874349E-2,7.836184492E-1
9.949586250E0,2.091775618E-1,3.003591889E-1,-1.013571272E0,1.077635197E0
9.959623250E0,-3.091808832E-1,7.234134275E-1,-3.252058793E0,3.345864044E0
9.969661250E0,-3.586908661E-1,7.769563812E-1,-6.003634518E0,6.064317586E0
9.979698250E0,3.094005923E-1,3.520842433E-2,-7.604578190E0,7.610951177E0
9.989735250E0,1.623993104E0,-1.268237101E0,-6.880839658E0,7.182738568E0
9.999772250E0,2.625663830E0,-1.488676547E0,-3.969736979E0,4.986890824E0
1.000980925E1,2.616730161E0,-1.445245768E0,-7.465995379E-1,3.081139876E0
1.001984625E1,2.778419123E0,-1.300051217E0,1.561998000E0,3.442322434E0
1.002988425E1,2.589878870E0,-9.406257945E-1,2.265931721E0,3.567449510E0
1.003992125E1,1.865669636E0,-5.999085385E-1,1.113505157E0,2.253998044E0
1.004995825E1,1.085543333E0,-7.234830093E-1,-1.195545101E0,1.769508430E0
1.005999525E1,3.874846025E-1,-1.550098039E0,-3.282024604E0,3.650292283E0
1.007003225E1,-3.066571883E-1,-1.842620789E0,-4.228087724E0,4.622338781E0
1.008006925E1,-7.428690143E-1,-2.194907931E0,-4.408440998E0,4.980344088E0
1.009010725E1,-5.020272448E-1,-2.602150129E0,-4.276264104E0,5.030869839E0
1.010014425E1,8.781125542E-2,-2.700352362E0,-3.852188941E0,4.705207045E0
1.011018125E1,9.824156255E-1,-3.012360958E0,-2.909756942E0,4.301876854E0
1.012021825E1,2.617587948E0,-3.468663050E0,-1.186611725E0,4.504601803E0
1.013025525E1,3.758020995E0,-3.466109571E0,1.144683681E0,5.238982543E0
1.014029225E1,3.707872935E0,-3.554959767E0,2.702573719E0,5.804305760E0
1.015033025E1,3.010138724E0,-3.958889517E0,2.824994534E0,5.719644698E0
1.016036725E1,1.661012557E0,-4.151471658E0,1.678421618E0,4.776063103E0
1.017040425E1,2.758425994E-1,-3.897248755E0,-3.238886771E-1,3.920400601E0
1.018044125E1,-6.745926120E-1,-3.728148447E0,-1.953061829E0,4.262466017E0
1.019047825E1,-1.250418004E0,-3.840761143E0,-2.418459849E0,4.707859321E0
1.020051625E1,-1.389640063E0,-4.175880859E0,-2.084821817E0,4.869862674E0
1.021055325E1,-1.100652173E0,-4.721989751E0,-1.149191884E0,4.982897190E0
1.022059025E1,-2.267523187E-1,-4.976741828E0,9.662640810E-1,5.074745522E0
1.023062725E1,8.084333318E-1,-4.206222646E0,3.841684418E0,5.753643417E0
1.024066425E1,3.447779719E0,-3.308611309E0,6.521996033E0,8.085204144E0
1.025070125E1,5.615209830E0,-2.289356251E0,8.774859812E0,1.066629730E1
1.026073925E1,5.274787858E0,-1.609871786E0,9.708333877E0,1.116542972E1
1.027077625E1,3.888421798E0,-1.467061729E0,8.831425776E0,9.760439305E0
1.028081325E1,2.100091236E0,-1.341588083E0,6.363202028E0,6.833782396E0
1.029085025E1,5.293731375E-1,-1.112959027E0,3.242305638E0,3.468639440E0
1.030088725E1,-4.531513924E-1,-8.688301724E-1,5.887210608E-1,1.143155519E0
1.031092425E1,-1.222219953E0,-8.183394653E-1,-7.762301570E-1,1.663139907E0
1.032096225E1,-1.717924823E0,-9.502146435E-1,-9.884069020E-1,2.197981294E0
1.033099925E1,-1.760920861E0,-9.416864794E-1,-3.661877275E-1,2.030199290E0
1.034103625E1,-9.602899808E-1,-8.723846948E-1,1.230210904E0,1.787912406E0
1.035107325E1,4.781889506E-1,-4.647723681E-1,3.931353225E0,3.987507518E0
1.036111025E1,1.631781010E0,1.775410554E-1,7.380914590E0,7.561225448E0
1.037114725E1,2.260816430E0,3.391873321E-1,1.074790742E1,1.098835078E1
1.038118525E1,2.277309233E0,7.162897646E-2,1.345511799E1,1.364666509E1
1.039122225E1,1.594048489E0,-7.708644596E-1,1.428372107E1,1.439305076E1
1.040125925E1,5.283553565E-1,-1.595521257E0,1.248875450E1,1.260134265E1
1.041129625E1,-5.708335144E-1,-1.937312354E0,9.631978011E0,9.841444531E0
1.042133325E1,-1.429449222E0,-2.105919156E0,7.417123473E0,7.841679743E0
1.043137025E1,-2.039289110E0,-2.222768160E0,6.637344641E0,7.290661304E0
1.044140825E1,-1.887314713E0,-2.348807232E0,7.137096223E0,7.747063620E0
1.045144525E1,-7.736659337E-1,-1.933292393E0,8.947152699E0,9.186278891E0
1.046148225E1,6.482693242E-1,-2.180638971E0,1.206397533E1,1.227660133E1
1.047151925E1,2.320067582E0,-3.610460368E0,1.584960776E1,1.642035943E1
1.048155625E1,4.014115592E0,-6.029462839E0,1.825252337E1,1.963726446E1
1.049159425E1,5.378142073E0,-8.770129414E0,1.787774608E1,2.062652145E1
1.050163196E1,4.659996986E0,-1.162918456E1,1.504369070E1,1.957718405E1
1.051166896E1,3.366067512E0,-1.269422098E1,1.175924652E1,1.762820285E1
1.052170596E1,2.628250638E0,-1.298387801E1,8.365340123E0,1.566740901E1
1.053174296E1,2.497349313E0,-1.290015992E1,4.991808933E0,1.405592529E1
1.054177996E1,2.133211620E0,-1.246312031E1,2.356740442E0,1.286212211E1
1.055181796E1,1.330820874E0,-1.197493043E1,1.965218483E-1,1.205025575E1
1.056185496E1,9.972047688E-1,-1.098895304E1,-1.606492095E0,1.115044049E1
1.057189196E1,9.601690165E-1,-9.803874457E0,-2.591142161E0,1.018586749E1
1.058192896E1,7.491424920E-1,-9.228785010E0,-2.950062969E0,9.717744530E0
1.059196596E1,7.909120039E-1,-8.865044342E0,-3.348924937E0,9.509461143E0
1.060200296E1,1.285474693E0,-8.323055398E0,-3.677308077E0,9.189575129E0
1.061204096E1,1.005886203E0,-8.040487533E0,-3.988914092E0,9.031759654E0
1.062207796E1,5.975999481E-1,-7.911846449E0,-5.258655975E0,9.518818340E0
1.063211496E1,1.052230723E0,-7.607691833E0,-7.331717872E0,1.061782706E1
1.064215196E1,1.154816028E0,-6.677533724E0,-8.879406273E0,1.116991103E1
1.065218896E1,1.341345131E0,-6.346207096E0,-9.264692177E0,1.130964510E1
1.066222596E1,1.993453225E0,-6.485287798E0,-9.673924182E0,1.181599013E1
1.067226396E1,2.299998184E0,-5.718401492E0,-9.789730627E0,1.156844557E1
1.068230096E1,2.438409818E0,-5.173143370E0,-9.602510383E0,1.117655852E1
1.069233796E1,2.949679391E0,-4.684412035E0,-8.802774419E0,1.039870964E1
1.070237496E1,3.396566589E0,-4.029398752E0,-7.131568265E0,8.867467779E0
1.071241196E1,3.654546328E0,-3.885315172E0,-5.135118341E0,7.404108537E0
1.072244896E1,3.536363575E0,-3.836875668E0,-3.231780065E0,6.137742632E0
1.073248696E1,3.217215235E0,-3.429281468E0,-1.776591691E0,5.026601565E0
1.074252396E1,2.982026481E0,-3.183431777E0,-9.829906261E-1,4.471352187E0
1.075256096E1,2.636709805E0,-2.943222311E0,-7.558327299E-1,4.023192673E0
1.076259796E1,2.143838350E0,-2.622458678E0,-1.068975686E0,3.551906728E0
1.077263496E1,1.776429431E0,-2.310053641E0,-1.751631097E0,3.400038360E0
1.078267196E1,1.507503412E0,-2.119297001E0,-2.617520705E0,3.689905277E0
1.079270996E1,1.378969040E0,-1.844097211E0,-3.659036112E0,4.323285257E0
1.080274696E1,1.502293835E0,-1.324653962E0,-4.831012841E0,5.229749512E0
1.081278396E1,1.744753895E0,-9.310767066E-1,-6.039966193E0,6.355490665E0
1.082282096E1,2.111912260E0,-6.433545202E-1,-6.755664804E0,7.107255826E0
1.083285796E1,2.408701431E0,-5.782685781E-1,-6.809612970E0,7.246175952E0
1.084289496E1,2.740636462E0,-7.217721140E-1,-6.389029180E0,6.989401767E0
1.085293296E1,3.007276804E0,-7.860330141E-1,-5.532672873E0,6.346024802E0
1.086296996E1,2.732358558E0,-8.178219867E-1,-4.121948481E0,5.012491933E0
1.087300696E1,2.246562527E0,-1.019204772E0,-2.578278286E0,3.568380652E0
1.088304396E1,1.720879421E0,-1.239587499E0,-1.613635931E0,2.664924777E0
1.089308096E1,1.019459125E0,-1.225671710E0,-1.635447507E0,2.283912564E0
1.090311796E1,6.140681559E-1,-1.194944592E0,-2.546465340E0,2.879141887E0
1.091315596E1,4.654471368E-1,-1.260540411E0,-3.737563342E0,3.971773269E0
1.092319296E1,1.361199644E-1,-1.301426482E0,-4.841085255E0,5.014812657E0
1.093322996E1,1.999776989E-2,-1.468200767E0,-5.375760502E0,5.572684665E0
1.094326696E1,-1.136748424E-1,-1.389235289E0,-5.298000135E0,5.478293720E0
1.095330396E1,-2.716704100E-1,-1.321826833E0,-4.992400671E0,5.171566054E0
1.096334096E1,-2.729170364E-1,-1.449178605E0,-4.602172701E0,4.832659300E0
1.097337896E1,1.756453881E-1,-1.732442874E0,-4.014887717E0,4.376246450E0
1.098341596E1,1.084987994E0,-1.796472809E0,-2.801272380E0,3.500234342E0
1.099345296E1,1.775560243E0,-1.585970707E0,-1.164069393E0,2.650089585E0
1.100348996E1,2.109325744E0,-1.460791175E0,1.029530954E-1,2.567832801E0
1.101352696E1,2.203591923E0,-1.627118148E0,6.396269202E-1,2.812908358E0
1.102356396E1,2.079531841E0,-1.768907281E0,4.378816080E-1,2.765000172E0
1.103360196E1,1.775882132E0,-1.881067402E0,-3.969423642E-1,2.617199869E0
1.104363896E1,1.630518596E0,-1.865869319E0,-1.252213392E0,2.776346086E0
1.105367596E1,1.784226401E0,-1.562141549E0,-1.539207600E0,2.827173519E0
1.106371296E1,2.340773742E0,-1.799481786E0,-1.244340847E0,3.204019437E0
1.107374996E1,3.032238568E0,-2.190362890E0,-5.055511424E-1,3.774618164E0
1.108378796E1,3.549784104E0,-2.362119588E0,1.374887976E-1,4.266084774E0
1.109382496E1,3.680471420E0,-2.929052753E0,1.978536978E-1,4.707904629E0
1.110386196E1,3.285693732E0,-3.664715513E0,-9.250821412E-2,4.922852919E0
1.111389896E1,2.167904904E0,-4.324681388E0,-6.950278267E-1,4.887304417E0
1.112393596E1,1.209714074E0,-4.682967773E0,-9.209797347E-1,4.923596143E0
1.113397296E1,5.028981145E-1,-5.046669264E0,2.040613943E-1,5.075767748E0
1.114400996E1,-2.778745982E-1,-4.993043865E0,2.946948742E0,5.804498963E0
1.115404796E1,-2.552251160E-1,-4.838110192E0,6.302951149E0,7.949820330E0
1.116408496E1,3.713113502E-1,-4.678937872E0,9.374315776E0,1.048370774E1
1.117412196E1,1.068074777E0,-3.916472645E0,1.112833780E1,1.184565084E1
1.118415896E1,1.279498693E0,-2.650050520E0,1.068541940E1,1.108323384E1
1.119419596E1,9.842277507E-1,-1.632791702E0,8.174559510E0,8.393934488E0
1.120423396E1,5.071836850E-1,-1.145730332E0,4.940228305E0,5.096644876E0
1.121427096E1,-1.080233623E-1,-6.718871784E-1,2.868210136E0,2.947834936E0
1.122430796E1,-8.667086564E-1,-7.047479457E-1,2.925681249E0,3.131687138E0
1.123434496E1,-1.292161130E0,-9.023984528E-1,4.680095036E0,4.938349208E0
1.124438196E1,-1.212679490E0,-9.734696048E-1,6.840486853E0,7.015019245E0
1.125441896E1,-8.292740509E-1,-7.527910084E-1,8.453013859E0,8.526888827E0
1.126445696E1,-3.760416014E-1,-4.566049773E-1,8.990951267E0,9.010388454E0
1.127449396E1,-5.416144297E-2,-3.784469998E-1,8.774904835E0,8.783228931E0
1.128453096E1,3.649886097E-1,-3.872950065E-1,8.901706384E0,8.917600051E0
1.129456796E1,6.214030494E-1,-6.153627294E-1,1.001891634E1,1.005701236E1
1.130460496E1,3.312798500E-1,-1.533776706E0,1.122131671E1,1.133049717E1
1.131464196E1,-1.452571160E-1,-2.501603163E0,1.125962650E1,1.153509025E1
1.132467996E1,-4.598466736E-1,-2.679488327E0,1.004086679E1,1.040240945E1
1.133471696E1,-2.039696661E-1,-2.602151883E0,8.569174646E0,8.957876543E0
1.134475396E1,4.967892725E-1,-2.782365993E0,7.704855600E0,8.206897094E0
1.135479096E1,1.623484835E0,-3.156564406E0,7.424766369E0,8.229626814E0
1.136482796E1,2.326920665E0,-4.090106884E0,7.883476344E0,9.181107415E0
1.137486496E1,2.030848070E0,-5.660076100E0,8.765950409E0,1.063027243E1
1.138490296E1,1.997911727E0,-6.591308343E0,9.566244782E0,1.178770699E1
1.139493996E1,2.234398125E0,-7.253904880E0,1.029985985E1,1.279448256E1
1.140497696E1,2.374250806E0,-8.600794049E0,9.782304078E0,1.324024918E1
1.141501396E1,2.684136279E0,-1.000198748E1,7.987052752E0,1.307812497E1
1.142505096E1,2.904809905E0,-1.119144095E1,5.388792776E0,1.275638502E1
1.143508796E1,3.637768327E0,-1.177252438E1,2.630992690E0,1.259951631E1
1.144512596E1,4.289080323E0,-1.153763237E1,7.449623175E-1,1.233159112E1
1.145516296E1,3.841165186E0,-1.131119544E1,-3.288860730E-1,1.195014051E1
1.146519996E1,3.164312259E0,-1.072247437E1,-1.269817604E0,1.125152281E1
1.147523696E1,2.528290147E0,-1.000869891E1,-2.057808266E0,1.052619969E1
1.148527396E1,1.605715292E0,-8.932519457E0,-2.834286929E0,9.507965494E0
1.149531096E1,5.880242188E-1,-8.452067195E0,-3.664688031E0,9.231096940E0
1.150534833E1,-5.195869450E-1,-8.992771506E0,-4.199949753E0,9.938787043E0
1.151538533E1,-1.454815906E0,-9.189306949E0,-5.220497046E0,1.066833825E1
1.152542233E1,-1.630137212E0,-8.102161624E0,-6.700343127E0,1.063940639E1
1.153545933E1,-1.031820139E0,-7.137959856E0,-8.052491866E0,1.081007627E1
1.154549633E1,-3.660611352E-1,-6.266569188E0,-9.055111595E0,1.101811854E1
1.155553333E1,4.945428818E-2,-5.483503051E0,-9.902816362E0,1.131976251E1
1.156557133E1,6.290802974E-1,-4.931584951E0,-9.849323695E0,1.103292569E1
1.157560833E1,1.685072388E0,-4.524377251E0,-8.906185936E0,1.013062715E1
1.158564533E1,2.699884585E0,-3.956911989E0,-7.483625026E0,8.885447248E0
1.159568233E1,3.151701569E0,-3.486187155E0,-5.888347891E0,7.533881108E0
1.160571933E1,3.163403894E0,-3.271853957E0,-4.277890214E0,6.245998495E0
1.161575633E1,3.023947216E0,-3.080544755E0,-3.015067635E0,5.265419793E0
1.162579433E1,2.944733232E0,-2.653924885E0,-2.717887577E0,4.806421120E0
1.163583133E1,2.717302271E0,-2.160507007E0,-3.523191260E0,4.946149898E0
1.164586833E1,2.668269274E0,-1.852110820E0,-4.436134581E0,5.498114716E0
1.165590533E1,2.799097508E0,-1.411967509E0,-4.911754119E0,5.826999883E0
1.166594233E1,2.516421762E0,-1.057794056E0,-5.111106166E0,5.794369076E0
1.167597933E1,2.110649554E0,-9.802506208E-1,-4.902156499E0,5.426497135E0
1.168601733E1,1.776808331E0,-8.848743474E-1,-4.330818041E0,4.764035617E0
1.169605433E1,1.443174976E0,-7.657601327E-1,-4.042424302E0,4.360084498E0
1.170609133E1,1.176820270E0,-6.896358168E-1,-4.393645788E0,4.600502888E0
1.171612833E1,9.983231950E-1,-8.534408855E-1,-5.239421559E0,5.401532081E0
1.172616533E1,1.052840880E0,-9.764744890E-1,-5.921178253E0,6.092809553E0
1.173620233E1,1.399478734E0,-9.885139060E-1,-5.820678064E0,6.067618445E0
1.174624033E1,2.155773101E0,-7.083907610E-1,-4.774847412E0,5.286619235E0
1.175627733E1,2.807776238E0,-4.790296340E-1,-3.653861911E0,4.632902294E0
1.176631433E1,3.147305340E0,-4.686397165E-1,-3.113606082E0,4.451931819E0
1.177635133E1,3.012543976E0,-5.363797098E-1,-3.026750079E0,4.303991223E0
1.178638833E1,2.484104785E0,-5.254033166E-1,-3.253644558E0,4.127108932E0
1.179642533E1,1.873953679E0,-4.979032767E-1,-3.624036434E0,4.110139917E0
1.180646333E1,1.282647857E0,-5.696953905E-1,-3.971796953E0,4.212470700E0
1.181650033E1,1.005160052E0,-6.617416745E-1,-4.220888633E0,4.389094397E0
1.182653733E1,1.015896709E0,-9.140256411E-1,-4.321985822E0,4.532885443E0
1.183657433E1,1.319756626E0,-1.272659351E0,-3.932196393E0,4.338615891E0
1.184661133E1,1.619428475E0,-1.448911387E0,-3.101165546E0,3.786703123E0
1.185664833E1,2.038683777E0,-1.898190973E0,-1.947702856E0,3.398956741E0
1.186668633E1,2.502704194E0,-2.201029966E0,-3.514474815E-1,3.351354431E0
1.187672333E1,2.389873981E0,-1.903485042E0,1.153274994E0,3.265699950E0
1.188676033E1,1.909529309E0,-1.817147979E0,2.120743602E0,3.383176375E0
1.189679733E1,1.346271118E0,-1.986003873E0,2.251100112E0,3.290001371E0
1.190683433E1,6.553012589E-1,-1.728331112E0,1.326226863E0,2.274956234E0
1.191687133E1,2.039019115E-1,-1.757221620E0,-4.145997494E-1,1.816947100E0
1.192690833E1,5.781712219E-2,-2.261742775E0,-1.911889830E0,2.962118486E0
1.193694633E1,2.098014598E-1,-2.914948685E0,-2.286611861E0,3.710732581E0
1.194698333E1,8.136175463E-1,-3.701275814E0,-1.489224431E0,4.071757061E0
1.195702033E1,1.355304920E0,-4.257879288E0,9.371332526E-3,4.468386205E0
1.196705733E1,1.572179026E0,-4.065072030E0,1.684944772E0,4.672857411E0
1.197709433E1,1.374045392E0,-3.172715001E0,3.340713692E0,4.807753029E0
1.198713133E1,9.672370577E-1,-2.769973404E0,4.426101928E0,5.310242788E0
1.199716933E1,4.074752095E-1,-2.874650844E0,4.404259654E0,5.275145175E0
1.200720633E1,-1.651259547E-1,-2.711494816E0,3.723741986E0,4.609308527E0
1.201724333E1,-5.369721790E-1,-2.037975680E0,2.541930240E0,3.301983243E0
1.202728033E1,-4.262450641E-1,-1.744767051E0,1.146451294E0,2.130785650E0
1.203731733E1,-1.240790125E-1,-1.446922165E0,3.956845915E-1,1.505172963E0
1.204735533E1,6.528036207E-1,-6.797703946E-1,1.306200149E0,1.610713875E0
1.205739233E1,1.086424436E0,-4.702851230E-1,3.469897982E0,3.666289426E0
1.206742933E1,8.507287277E-1,-1.113261328E0,5.619677687E0,5.791706783E0
1.207746633E1,1.987098764E-1,-1.746507767E0,7.109681552E0,7.323752233E0
1.208750333E1,-8.394036942E-1,-1.594098337E0,7.604392834E0,7.814892094E0
1.209754033E1,-1.725739919E0,-1.181840397E0,6.761078156E0,7.077224232E0
1.210757733E1,-1.917522745E0,-9.631212026E-1,4.839115913E0,5.293537451E0
1.211761533E1,-1.611839081E0,-5.677365732E-1,3.237657101E0,3.660979861E0
1.212765233E1,-1.179460361E0,-1.761859632E-1,2.708523261E0,2.959436854E0
1.213768933E1,-6.091422421E-1,-2.276373678E-1,3.332054551E0,3.394916872E0
1.214772633E1,1.177117601E-3,-1.004393774E-1,5.108693604E0,5.109680988E0
1.215776333E1,-1.068456600E-1,-2.195793200E-1,6.840101522E0,6.844459065E0
1.216780133E1,-5.975086950E-2,-6.081262153E-1,7.469961838E0,7.494912776E0
1.217783833E1,-5.654991727E-1,-7.953078675E-1,8.069239461E0,8.128033551E0
1.218787533E1,-7.314584653E-1,-7.628499734E-1,9.364671378E0,9.424120202E0
1.219791233E1,-6.128049746E-1,-1.239290460E0,1.068517616E1,1.077424523E1
1.220794933E1,-6.711358843E-1,-1.942849082E0,1.092837823E1,1.112000614E1
1.221798633E1,-1.040274190E0,-2.536858950E0,9.998095572E0,1.036724355E1
1.222802333E1,-1.467678611E0,-3.084928998E0,8.677082672E0,9.325375655E0
1.223806133E1,-8.750036627E-1,-3.235670802E0,7.817829069E0,8.506094774E0
1.224809833E1,5.745465329E-1,-3.259579482E0,7.860042458E0,8.528495152E0
1.225813533E1,1.812030496E0,-3.739913045E0,8.388935392E0,9.361871668E0
1.226817233E1,2.162207085E0,-4.313995017E0,8.596025060E0,9.857856730E0
1.227820933E1,1.800591296E0,-5.055071129E0,8.334316551E0,9.912452043E0
1.228824633E1,1.407300408E0,-5.904245886E0,8.127112863E0,1.014349927E1
1.229828433E1,1.270890860E0,-6.656639868E0,8.007064263E0,1.048995215E1
1.230832133E1,1.389919267E0,-7.396731309E0,7.845634918E0,1.087186722E1
1.231835833E1,1.493183434E0,-8.152275186E0,7.645091209E0,1.127548700E1
1.232839533E1,1.517730484E0,-8.616433597E0,6.930191327E0,1.116127168E1
1.233843233E1,1.946778704E0,-8.826807060E0,6.087893481E0,1.089793179E1
1.234846933E1,1.830218553E0,-9.355254437E0,5.429765385E0,1.097054409E1
1.235850733E1,1.169187973E0,-1.014423386E1,4.380652106E0,1.111137229E1
1.236854433E1,6.548406444E-1,-1.068423008E1,3.196014401E0,1.117121733E1
1.237858133E1,3.663488182E-1,-1.064640678E1,2.304289455E0,1.089907971E1
1.238861833E1,2.285757226E-2,-1.027448878E1,1.309806712E0,1.035766555E1
1.239865533E1,3.327647870E-1,-1.003694213E1,1.092071311E-1,1.004305063E1
1.240869233E1,1.086033915E0,-9.737510313E0,-8.438631463E-1,9.834158926E0
1.241873033E1,1.796293592E0,-9.722290596E0,-1.494991540E0,9.999230210E0
1.242876733E1,2.413963779E0,-9.595678496E0,-1.689719901E0,1.003789920E1
1.243880433E1,3.141544079E0,-9.596543300E0,-1.351452336E0,1.018770661E1
1.244884133E1,4.058966952E0,-9.136955658E0,-7.842937598E-1,1.002867330E1
1.245887833E1,4.190374645E0,-7.523846269E0,-1.087589713E0,8.680458152E0
1.246891533E1,3.332806503E0,-5.922811965E0,-3.132293199E0,7.483218655E0
1.247895333E1,2.129393680E0,-5.016162586E0,-5.925232712E0,8.050129641E0
1.248899033E1,2.012601980E0,-5.561041809E0,-8.495852900E0,1.035158293E1
1.249902733E1,1.901631474E0,-6.665008988E0,-1.031579468E1,1.242795908E1
1.250906396E1,1.413310615E0,-6.059015252E0,-1.215594268E1,1.365562357E1
1.251910096E1,1.160601848E0,-5.311358684E0,-1.258943888E1,1.371318705E1
1.252913796E1,1.961959830E0,-5.217806742E0,-1.164048840E1,1.290642335E1
1.253917596E1,2.435561786E0,-4.579895979E0,-9.785169799E0,1.107506011E1
1.254921296E1,2.292510239E0,-4.470844823E0,-7.433444806E0,8.972188045E0
1.255924996E1,2.709777196E0,-4.246815187E0,-4.823628978E0,6.974648966E0
1.256928696E1,2.852152512E0,-3.907315321E0,-2.900085062E0,5.640246479E0
1.257932396E1,2.790493915E0,-3.768263855E0,-2.031308684E0,5.110076687E0
1.258936096E1,2.859813242E0,-3.464450716E0,-2.056420137E0,4.940628940E0
1.259939896E1,2.907568621E0,-3.075571114E0,-2.678206617E0,5.008581002E0
1.260943596E1,3.287306686E0,-2.588478754E0,-3.183778517E0,5.257666132E0
1.261947296E1,3.792319300E0,-2.145850961E0,-3.482395236E0,5.577942148E0
1.262950996E1,4.054016699E0,-1.803659037E0,-3.504681898E0,5.654293283E0
1.263954696E1,3.943867435E0,-1.657008530E0,-3.414986195E0,5.473746279E0
1.264958396E1,3.623524802E0,-1.663597757E0,-3.431948968E0,5.260775913E0
1.265962196E1,3.138314077E0,-1.657552906E0,-3.436743684E0,4.940415370E0
1.266965896E1,2.675267514E0,-1.696905252E0,-3.408711548E0,4.653585513E0
1.267969596E1,2.114041231E0,-1.691891849E0,-3.477447907E0,4.407302157E0
1.268973296E1,1.714242539E0,-1.639450511E0,-3.485489582E0,4.216048279E0
1.269976996E1,1.772014783E0,-1.669184187E0,-2.983837656E0,3.850908906E0
1.270980696E1,1.994571213E0,-1.465068998E0,-2.113088427E0,3.254210226E0
1.271984396E1,2.184509827E0,-1.138942884E0,-1.795471766E0,3.048441068E0
1.272988196E1,2.193865373E0,-8.523053563E-1,-2.437738119E0,3.388515432E0
1.273991896E1,2.049550243E0,-9.568097180E-1,-3.339970511E0,4.033800200E0
1.274995596E1,2.081394179E0,-1.448206798E0,-3.784648923E0,4.555553987E0
1.275999296E1,2.339254051E0,-2.016672519E0,-3.481230178E0,4.653820056E0
1.277002996E1,2.291513874E0,-1.991619539E0,-2.759746917E0,4.102899860E0
1.278006696E1,1.989219403E0,-2.024321846E0,-2.070518943E0,3.513107095E0
1.279010496E1,1.662661033E0,-2.256408361E0,-1.326732062E0,3.100973777E0
1.280014196E1,1.245818000E0,-2.275965543E0,-6.327329068E-1,2.670661448E0
1.281017896E1,8.264768891E-1,-2.181483893E0,-5.883570716E-2,2.333537586E0
1.282021596E1,6.388068482E-1,-2.020740427E0,3.970551789E-1,2.156181550E0
1.283025296E1,4.309367238E-1,-1.774624688E0,4.403152192E-1,1.878530472E0
1.284028996E1,3.047289594E-1,-1.670287557E0,-1.846777283E-2,1.697957985E0
1.285032796E1,3.523502916E-1,-1.631967244E0,-7.993716093E-1,1.851070713E0
1.286036496E1,4.748767953E-1,-1.500496693E0,-1.639752227E0,2.272836480E0
1.287040196E1,8.468289272E-1,-1.906216861E0,-1.690282695E0,2.684741616E0
1.288043896E1,1.127495790E0,-2.319095190E0,-4.356544767E-1,2.615194846E0
1.289047596E1,8.512510302E-1,-2.444729635E0,1.299660623E0,2.896627184E0
1.290051296E1,5.627623469E-1,-2.468414367E0,2.498252708E0,3.556829704E0
1.291055096E1,1.786289299E-1,-2.225740884E0,2.774498565E0,3.561414475E0
1.292058796E1,-2.346348039E-1,-1.472715987E0,2.169906991E0,2.632953137E0
1.293062496E1,-5.794004528E-1,-9.517378432E-1,1.087100886E0,1.556694621E0
1.294066196E1,-9.809613499E-1,-1.245725321E0,-1.547991872E-2,1.585672215E0
1.295069896E1,-1.002403455E0,-2.048595393E0,-6.783436739E-1,2.379433947E0
1.296073596E1,-5.332545193E-1,-2.616599184E0,-7.668962467E-1,2.778323510E0
1.297077396E1,6.306514442E-3,-2.644979230E0,2.150465584E-1,2.653714363E0
1.298081096E1,4.408410300E-1,-2.234663735E0,2.001366262E0,3.032083399E0
1.299084796E1,6.703745037E-1,-1.831366653E0,3.439873699E0,3.954242893E0
1.300088496E1,1.257766492E0,-1.521712731E0,4.272441194E0,4.706521002E0
1.301092196E1,2.179194855E0,-9.668090415E-1,5.043923997E0,5.578958614E0
1.302095896E1,2.502756234E0,-7.002730715E-1,5.576449807E0,6.152313678E0
1.303099696E1,2.279528690E0,-8.740125597E-1,5.392649599E0,5.919528588E0
1.304103396E1,1.277120191E0,-1.148629966E0,4.691265557E0,4.995834195E0
1.305107096E1,7.901276730E-2,-8.335720468E-1,3.666913481E0,3.761294970E0
1.306110796E1,-8.387443475E-1,-7.285624856E-1,2.611890421E0,2.838356381E0
1.307114496E1,-1.330348565E0,-7.146390957E-1,2.252688362E0,2.712036356E0
1.308118196E1,-1.589132881E0,-9.704097569E-2,3.122592083E0,3.505045161E0
1.309121896E1,-1.164078456E0,1.092645800E-1,5.009716031E0,5.144343701E0
1.310125696E1,-1.068331616E-1,-9.079497993E-2,7.737481309E0,7.738751454E0
1.311129396E1,7.726539999E-1,-1.101820081E-1,1.095385805E1,1.098162741E1
1.312133096E1,1.021044379E0,-1.022525990E-1,1.364254931E1,1.368108691E1
1.313136796E1,3.752275594E-1,-6.818958575E-1,1.444542465E1,1.446637726E1
1.314140496E1,-4.580399936E-1,-1.456069549E0,1.287527417E1,1.296543960E1
1.315144196E1,-1.520513759E0,-1.797776738E0,1.025902991E1,1.052576163E1
1.316147996E1,-1.863536134E0,-1.588684400E0,7.515813364E0,7.904690732E0
1.317151696E1,-1.965837995E0,-1.616834065E0,5.494740815E0,6.055645964E0
1.318155396E1,-1.712507523E0,-1.621014825E0,4.754462848E0,5.307097894E0
1.319159096E1,-7.077158462E-1,-1.433043798E0,5.646997048E0,5.868820317E0
1.320162796E1,8.775021780E-1,-1.517194002E0,7.715023323E0,7.911603668E0
1.321166496E1,1.587324337E0,-2.281547295E0,9.842557297E0,1.022746258E1
1.322170296E1,1.229755991E0,-3.637844049E0,1.024459430E1,1.094065453E1
1.323173996E1,7.344016613E-1,-4.635032299E0,8.787477518E0,9.962059594E0
1.324177696E1,2.744566083E-2,-5.257064947E0,6.876199307E0,8.655611015E0
1.325181396E1,-4.890746023E-1,-5.518296323E0,4.965145045E0,7.439318087E0
1.326185096E1,-2.881376677E-1,-5.557499565E0,3.595642354E0,6.625516484E0
1.327188796E1,-2.034985267E-1,-5.849558632E0,2.894352745E0,6.529626762E0
1.328192596E1,2.241800554E-2,-6.184692382E0,2.670017592E0,6.736461709E0
1.329196296E1,8.392890157E-1,-6.456600189E0,2.889341388E0,7.123228601E0
1.330199996E1,1.700275148E0,-6.866643203E0,3.506879867E0,7.895563999E0
1.331203696E1,1.980591105E0,-7.047404028E0,3.637586771E0,8.174391853E0
1.332207396E1,2.112459413E0,-6.971653934E0,3.184600636E0,7.950353737E0
1.333211096E1,2.169927018E0,-7.088207068E0,2.639821693E0,7.868921227E0
1.334214896E1,1.895429771E0,-7.345918420E0,2.024016037E0,7.851866808E0
1.335218596E1,1.743844799E0,-7.585907446E0,1.248475267E0,7.883252942E0
1.336222296E1,1.758034237E0,-7.776036680E0,5.284076160E-1,7.989783816E0
1.337225996E1,1.668005827E0,-7.611221797E0,-2.366926584E-1,7.795445086E0
1.338229696E1,1.388502341E0,-7.219452501E0,-9.716978985E-1,7.415701583E0
1.339233396E1,1.166115480E0,-7.037525157E0,-1.559743021E0,7.302012321E0
1.340237096E1,8.234221575E-1,-5.916902769E0,-2.664961504E0,6.541389932E0
1.341240896E1,6.328776254E-1,-4.934441900E0,-3.673269405E0,6.184024505E0
1.342244596E1,4.627980557E-1,-4.729202877E0,-3.762569252E0,6.061061727E0
1.343248296E1,2.569022436E-1,-4.728567284E0,-3.840865223E0,6.097343109E0
1.344251996E1,3.650181381E-1,-4.411132472E0,-5.245876885E0,6.863712714E0
1.345255696E1,1.172882755E0,-4.183055393E0,-8.041966293E0,9.140395410E0
1.346259396E1,2.025119991E0,-4.213476702E0,-1.074640469E1,1.171920265E1
1.347263196E1,2.680632335E0,-3.987926205E0,-1.185125012E1,1.278833353E1
1.348266896E1,2.948250917E0,-3.907696559E0,-1.094211801E1,1.198716908E1
1.349270596E1,3.023541712E0,-3.968847325E0,-8.974833418E0,1.026845599E1
1.350274371E1,2.787624979E0,-3.874955660E0,-6.980370963E0,8.456459848E0
1.351278071E1,2.371979455E0,-3.812440739E0,-4.890653856E0,6.639238365E0
1.352281771E1,2.337348151E0,-3.660478036E0,-2.612931225E0,5.068501299E0
1.353285571E1,2.506285613E0,-3.426037433E0,-8.808438617E-1,4.335329973E0
1.354289271E1,2.562626752E0,-3.107884582E0,-4.095103329E-1,4.048913577E0
1.355292971E1,2.719016089E0,-2.732429602E0,-1.051821125E0,3.995691142E0
1.356296671E1,2.959139894E0,-2.363262134E0,-2.266127602E0,4.413258562E0
1.357300371E1,3.163260638E0,-2.039263237E0,-3.514098254E0,5.149145458E0
1.358304071E1,3.158560646E0,-1.776205775E0,-4.535478775E0,5.805340647E0
1.359307871E1,3.075452708E0,-1.747081379E0,-5.054221528E0,6.168943018E0
1.360311571E1,2.935060768E0,-1.831867760E0,-4.756259113E0,5.881523778E0
1.361315271E1,2.510525429E0,-1.758117414E0,-4.117211067E0,5.132751868E0
1.362318971E1,1.772597166E0,-1.802696586E0,-3.778357319E0,4.546185183E0
1.363322671E1,1.406611460E0,-1.901368935E0,-3.607154937E0,4.313389197E0
1.364326371E1,1.584692506E0,-1.884886803E0,-2.973464695E0,3.860769469E0
1.365330071E1,1.600175348E0,-1.698491017E0,-1.999020944E0,3.072705260E0
1.366333871E1,1.252027450E0,-1.537871511E0,-1.173484141E0,2.304275711E0
1.367337571E1,7.163540840E-1,-1.381816927E0,-8.311618245E-1,1.764486093E0
1.368341271E1,1.648818335E-1,-1.167134065E0,-1.080387990E0,1.598945325E0
1.369344971E1,-1.801644087E-1,-1.224007593E0,-1.875598209E0,2.246891729E0
1.370348671E1,-3.060593471E-1,-1.531555349E0,-2.607307081E0,3.039306553E0
1.371352371E1,-2.541615075E-1,-1.825061601E0,-2.682832642E0,3.254694902E0
1.372356171E1,-2.372056054E-1,-2.003254913E0,-1.957284104E0,2.810739726E0
1.373359871E1,-3.151928441E-1,-1.783844578E0,-8.999028611E-1,2.022689587E0
1.374363571E1,-5.380487975E-1,-1.328333614E0,4.822432637E-2,1.433977784E0
1.375367271E1,-8.615424952E-1,-9.150588441E-1,6.183771153E-1,1.400706399E0
1.376370971E1,-1.124129548E0,-6.714205706E-1,5.663215470E-1,1.426601878E0
1.377374671E1,-1.034659693E0,-8.462458867E-1,1.329762820E-1,1.343255550E0
1.378378471E1,-6.625471285E-1,-1.055952183E0,-3.099222736E-1,1.284544871E0
1.379382171E1,-1.290296307E-1,-1.277760462E0,-4.272513700E-1,1.353463770E0
1.380385871E1,2.785560181E-1,-1.000929299E0,-2.234571751E-1,1.062725753E0
1.381389571E1,1.917807066E-1,-5.008724928E-1,-6.938357256E-2,5.408023424E-1
1.382393271E1,4.924334988E-2,-3.013526309E-1,-2.122603601E-1,3.718773670E-1
1.383396971E1,-6.905086599E-2,-1.363137996E-1,-7.116407166E-1,7.278612392E-1
1.384400671E1,2.709636278E-2,-1.611837620E-1,-1.401393551E0,1.410892732E0
1.385404471E1,2.265703241E-1,-1.839007795E-1,-1.622400030E0,1.648434247E0
1.386408171E1,1.898827735E-1,-1.239983940E-1,-1.196374821E0,1.217679671E0
1.387411871E1,2.485570975E-1,-3.037663615E-1,-4.612897664E-1,6.056755581E-1
1.388415571E1,5.121780843E-1,-7.923889375E-1,1.937866670E-1,9.632029332E-1
1.389419271E1,1.089994088E0,-1.449625332E0,1.039834333E0,2.090635347E0
1.390422971E1,1.632674903E0,-1.203556371E0,2.127176709E0,2.939227114E0
1.391426771E1,1.702291268E0,-6.407028079E-1,2.872348795E0,3.399806355E0
1.392430471E1,1.712095879E0,-4.733426321E-1,3.064555544E0,3.542149945E0
1.393434171E1,1.683523022E0,-2.952025294E-1,2.717892255E0,3.210659217E0
1.394437871E1,1.607865460E0,-2.366017342E-1,2.363363290E0,2.868222056E0
1.395441571E1,1.689244522E0,-1.762064284E-1,2.858025455E0,3.324590992E0
1.396445271E1,1.355304189E0,1.343362713E-1,3.947333665E0,4.175684224E0
1.397449071E1,9.968194373E-1,4.708762765E-2,4.638204998E0,4.744345249E0
1.398452771E1,4.158531001E-1,-5.022155982E-1,4.390249141E0,4.438405325E0
1.399456471E1,-1.291549073E-1,-4.505881923E-1,3.200503308E0,3.234645596E0
1.400460171E1,-1.594835378E-1,2.911796451E-1,1.624165889E0,1.657750108E0
1.401463871E1,2.257639199E-2,4.564248830E-1,1.099110482E0,1.190326518E0
1.402467571E1,2.759127112E-1,1.719005388E-1,1.963169911E0,1.989902942E0
1.403471371E1,1.206011617E-1,-4.044355345E-1,3.761084059E0,3.784688368E0
1.404475071E1,2.581940398E-2,-9.747559923E-1,5.335829281E0,5.424194872E0
1.405478771E1,-2.705554922E-1,-1.345671194E0,5.927384487E0,6.084235211E0
1.406482471E1,-4.865691800E-1,-3.505651367E-1,6.426280621E0,6.454202360E0
1.407486171E1,-2.827774885E-1,-4.478692371E-1,6.264900393E0,6.287251140E0
1.408489871E1,6.769415116E-1,-8.708533090E-1,6.534730099E0,6.627166270E0
1.409493571E1,1.685151910E0,-5.435062963E-1,8.126097202E0,8.316765705E0
1.410497371E1,1.833520037E0,-2.223204947E-1,1.015936412E1,1.032588502E1
1.411501071E1,1.010116444E0,-1.131677719E0,1.093016514E1,1.103492363E1
1.412504771E1,-1.295139264E-1,-2.385033072E0,1.021701533E1,1.049250012E1
1.413508471E1,-9.367426586E-1,-2.452118177E0,8.647763563E0,9.037377108E0
1.414512171E1,-9.671948116E-1,-2.210745115E0,6.919452916E0,7.328143586E0
1.415515871E1,4.285550067E-1,-1.891846744E0,6.295670196E0,6.587731530E0
1.416519671E1,1.801450690E0,-2.083916668E0,6.810121678E0,7.346134394E0
1.417523371E1,2.626314332E0,-2.580866849E0,7.629848102E0,8.471893692E0
1.418527071E1,2.638394095E0,-3.245090082E0,7.743013945E0,8.800340788E0
1.419530771E1,1.479386052E0,-4.210695181E0,6.969633136E0,8.276129714E0
1.420534471E1,1.702744281E-1,-5.004076391E0,5.720847382E0,7.602490952E0
1.421538171E1,-6.098578683E-1,-5.486783339E0,4.328914772E0,7.015427367E0
1.422541971E1,-7.184266296E-1,-5.727728385E0,3.202164210E0,6.601277521E0
1.423545671E1,-2.626782694E-1,-5.661813893E0,2.727548639E0,6.290044356E0
1.424549371E1,5.163684183E-1,-5.855201195E0,2.973967556E0,6.587450220E0
1.425553071E1,1.185803128E0,-6.396804807E0,3.564786890E0,7.418419398E0
1.426556771E1,1.383147168E0,-6.955781667E0,3.905072914E0,8.096023045E0
1.427560471E1,1.020765028E0,-7.101312432E0,3.620263810E0,8.035975956E0
1.428564171E1,7.659130374E-1,-7.134340430E0,2.974771548E0,7.767541562E0
1.429567971E1,6.530740544E-1,-7.330882890E0,2.271083118E0,7.702348226E0
1.430571671E1,6.100040486E-1,-7.579756760E0,1.196663089E0,7.697845155E0
1.431575371E1,7.234729229E-1,-7.319511225E0,-2.610500940E-1,7.359810106E0
1.432579071E1,7.232597919E-1,-6.966607786E0,-1.911270025E0,7.260143379E0
1.433582771E1,5.796954449E-1,-6.473104540E0,-3.409553547E0,7.339086086E0
1.434586471E1,3.731853828E-1,-5.854745112E0,-4.247113395E0,7.242601732E0
1.435590271E1,2.405832495E-1,-5.580417143E0,-4.448970973E0,7.140887795E0
1.436593971E1,7.218573372E-1,-5.724472071E0,-4.449815896E0,7.286392799E0
1.437597671E1,1.330863997E0,-5.472666991E0,-4.478826857E0,7.195913631E0
1.438601371E1,1.562581260E0,-4.883805013E0,-4.539393486E0,6.848306711E0
1.439605071E1,1.660525045E0,-4.500115984E0,-4.257391338E0,6.413561281E0
1.440608771E1,1.915598426E0,-4.350609697E0,-3.352558397E0,5.816955378E0
1.441612571E1,2.097233117E0,-4.039513850E0,-2.435760883E0,5.162265973E0
1.442616271E1,2.210602443E0,-3.759560274E0,-2.316624742E0,4.938401240E0
1.443619971E1,2.296994469E0,-3.583899391E0,-2.816760778E0,5.104376526E0
1.444623671E1,2.091888177E0,-3.043649994E0,-3.797523030E0,5.297261802E0
1.445627371E1,2.120643322E0,-2.195743498E0,-5.272725545E0,6.092622775E0
1.446631071E1,2.564923831E0,-1.671639433E0,-6.671516354E0,7.340459326E0
1.447634871E1,2.909777407E0,-1.382257222E0,-7.714288913E0,8.359885945E0
1.448638571E1,3.247952294E0,-9.966391969E-1,-8.395145720E0,9.056542136E0
1.449642271E1,3.343986379E0,-5.885807276E-1,-8.734219909E0,9.370980183E0
1.450645908E1,3.387943992E0,-4.238915598E-1,-8.653083944E0,9.302349719E0
1.451649608E1,3.398223982E0,-4.475458860E-1,-8.153839316E0,8.844960099E0
1.452653308E1,3.379678953E0,-2.968046665E-1,-7.333649207E0,8.080391917E0
1.453657008E1,3.343323889E0,-4.837711412E-1,-6.102878140E0,6.975454877E0
1.454660808E1,3.583013538E0,-4.571493530E-1,-4.801682915E0,6.008588051E0
1.455664508E1,3.661200752E0,-4.022545230E-1,-3.667938498E0,5.198073919E0
1.456668208E1,3.356341838E0,-5.095368969E-1,-2.664356610E0,4.315490068E0
1.457671908E1,3.017239290E0,-7.297336829E-1,-1.981831592E0,3.682920124E0
1.458675608E1,2.928218356E0,-6.850475067E-1,-2.009827037E0,3.617064769E0
1.459679308E1,2.800307882E0,-4.766416311E-1,-2.735581251E0,3.943642512E0
1.460683108E1,2.497270961E0,-2.887729311E-1,-3.969150504E0,4.698287750E0
1.461686808E1,2.066450743E0,-4.277290875E-1,-5.331520468E0,5.733958610E0
1.462690508E1,1.682123783E0,-8.694616717E-1,-6.268912168E0,6.548645950E0
1.463694208E1,1.191348554E0,-1.282489105E0,-6.524230839E0,6.754974295E0
1.464697908E1,1.143392908E0,-1.709317721E0,-6.009289945E0,6.351431340E0
1.465701608E1,1.479741124E0,-1.810687391E0,-4.850565931E0,5.384813132E0
1.466705308E1,2.038682608E0,-1.843263983E0,-3.424583230E0,4.391084056E0
1.467709108E1,2.524328659E0,-1.829911866E0,-2.178690094E0,3.803617113E0
1.468712808E1,2.565705603E0,-1.850619196E0,-1.033094832E0,3.327900477E0
1.469716508E1,2.034681943E0,-1.907106807E0,-1.872295994E-1,2.795003024E0
1.470720208E1,1.456185324E0,-2.253721565E0,2.485562204E-1,2.694720168E0
1.471723908E1,8.999224493E-1,-2.401922169E0,4.151061183E-1,2.598346323E0
1.472727608E1,6.467046824E-1,-2.436452317E0,3.116302818E-2,2.521011299E0
1.473731408E1,7.151165208E-1,-1.829868597E0,3.052421987E-1,1.988211136E0
1.474735108E1,1.295872504E0,-1.612321184E0,1.655884695E-1,2.075158955E0
1.475738808E1,1.793790984E0,-1.884107369E0,4.391960621E-1,2.638264553E0
1.476742508E1,1.804899524E0,-2.072249719E0,1.763803246E0,3.265407031E0
1.477746208E1,1.279153268E0,-2.600745043E0,3.135844797E0,4.270085533E0
1.478749908E1,6.125293149E-1,-3.322380332E0,4.190916975E0,5.383046379E0
1.479753708E1,-1.548930350E-1,-3.554583791E0,4.010461375E0,5.361236631E0
1.480757408E1,-9.903044696E-1,-2.989819942E0,3.451665779E0,4.672656940E0
1.481761108E1,-1.263095206E0,-1.320561495E0,3.102757158E0,3.600887966E0
1.482764808E1,-4.368476741E-1,-7.669535494E-1,2.000891469E0,2.186920279E0
1.483768508E1,8.645160967E-1,-8.665298778E-1,1.371898879E0,1.838577887E0
1.484772208E1,1.151770067E0,-1.290078206E0,7.369853997E-1,1.879899876E0
1.485775908E1,8.851715322E-1,-1.439343588E0,5.409639269E-1,1.774226755E0
1.486779708E1,3.302954713E-1,-1.956033384E0,1.135379591E0,2.285661505E0
1.487783408E1,-3.071030751E-2,-2.514871665E0,2.632445723E0,3.640781935E0
1.488787108E1,3.019187875E-1,-2.494606385E0,4.608947870E0,5.249439631E0
1.489790808E1,7.448461041E-1,-1.654720514E0,5.907284099E0,6.179716913E0
1.490794508E1,1.169976543E0,-1.109881638E0,6.029008511E0,6.240963546E0
1.491798208E1,1.646848116E0,-1.135832750E0,5.359922733E0,5.721100983E0
1.492802008E1,1.441205780E0,-8.806678605E-1,4.113109245E0,4.446382535E0
1.493805708E1,6.550317022E-1,-6.471189576E-1,2.645827076E0,2.801469327E0
1.494809408E1,-2.598682438E-1,-6.258345079E-1,1.616938730E0,1.753194568E0
1.495813108E1,-9.523798674E-1,-6.891791493E-1,9.584861147E-1,1.516802869E0
1.496816808E1,-8.819140483E-1,-8.155936128E-1,1.018745180E0,1.575057800E0
1.497820508E1,-1.639668904E-1,-9.763248003E-1,2.721890581E0,2.896339688E0
1.498824208E1,3.720454681E-1,-6.927348411E-1,5.775165676E0,5.828450736E0
1.499828008E1,7.379377650E-1,-6.203644377E-1,8.656327980E0,8.709846053E0
1.500831708E1,5.425362432E-1,-1.202699754E0,9.921115808E0,1.000846498E1
1.501835408E1,-2.741363271E-1,-1.982077467E0,9.691189840E0,9.895602171E0
1.502839108E1,-8.825193083E-1,-2.672579842E0,8.947073177E0,9.379319899E0
1.503842808E1,-9.995200469E-1,-1.911610333E0,9.454767616E0,9.697727830E0
1.504846508E1,-1.194914114E0,-2.751117303E0,9.397687681E0,9.864735167E0
1.505850308E1,-1.244835375E0,-3.645967001E0,9.017197080E0,9.805739832E0
1.506854008E1,-1.160327760E0,-3.974448373E0,8.837337311E0,9.759156271E0
1.507857708E1,-5.197615940E-1,-4.271642464E0,8.946767952E0,9.927826461E0
1.508861408E1,6.145427305E-2,-4.778705989E0,8.907792166E0,1.010883618E1
1.509865108E1,3.595471177E-1,-5.366330697E0,8.739350256E0,1.026172608E1
1.510868808E1,4.766587342E-1,-6.148509811E0,8.259645853E0,1.030791570E1
1.511872608E1,1.672382797E-1,-6.737496920E0,6.960347757E0,9.688564099E0
1.512876308E1,-6.844743334E-2,-6.801447918E0,4.805402622E0,8.328041378E0
1.513880008E1,2.534471970E-1,-6.459693366E0,2.806262979E0,7.047480810E0
1.514883708E1,7.203663703E-1,-6.100373193E0,1.565242912E0,6.339043002E0
1.515887408E1,1.368026122E0,-5.945494484E0,1.212230423E0,6.220120797E0
1.516891108E1,1.667082990E0,-5.887877775E0,1.541679510E0,6.310550380E0
1.517894808E1,1.860921697E0,-6.223319088E0,1.771943155E0,6.732942342E0
1.518898608E1,2.039319516E0,-6.254669520E0,1.723294905E0,6.800695569E0
1.519902308E1,1.599165826E0,-6.251960505E0,1.449944590E0,6.614127365E0
1.520906008E1,8.609325575E-1,-6.460390939E0,1.071365443E0,6.604973873E0
1.521909708E1,5.879805840E-1,-6.661704141E0,8.686097324E-1,6.743775360E0
1.522913408E1,5.767043017E-1,-6.921336304E0,7.516724360E-1,6.985878294E0
1.523917108E1,4.943952397E-1,-7.339673009E0,4.636678290E-1,7.370903227E0
1.524920908E1,5.385428142E-1,-7.563348303E0,-1.898058826E-1,7.584872589E0
1.525924608E1,6.981872235E-1,-7.253109659E0,-9.233010793E-1,7.344899591E0
1.526928308E1,1.654307409E-1,-6.643347393E0,-1.779093423E0,6.879433503E0
1.527932008E1,-5.122570217E-1,-5.921469444E0,-3.883317763E0,7.099743973E0
1.528935708E1,4.440667927E-3,-5.277633113E0,-6.903266653E0,8.689563941E0
1.529939408E1,5.585815877E-1,-4.270556636E0,-9.719108541E0,1.063065088E1
1.530943108E1,1.015119030E0,-3.455297484E0,-1.128070104E1,1.184161151E1
1.531946908E1,1.637962687E0,-3.199558983E0,-1.098133529E1,1.155464513E1
1.532950608E1,1.767669717E0,-3.021717088E0,-8.965643933E0,9.624874105E0
1.533954308E1,1.570367412E0,-3.227629711E0,-6.056922534E0,7.040593578E0
1.534958008E1,1.092581481E0,-3.503001993E0,-3.226501783E0,4.886212338E0
1.535961708E1,7.252248949E-1,-3.718753726E0,-1.452391650E0,4.057649803E0
1.536965408E1,7.515704021E-1,-3.731435167E0,-1.235477491E0,4.001858457E0
1.537969208E1,9.696709612E-1,-3.355501301E0,-2.128840826E0,4.090429564E0
1.538972908E1,1.256438297E0,-2.815344874E0,-3.500338002E0,4.664458177E0
1.539976608E1,1.659035760E0,-2.357669857E0,-5.049385881E0,5.814404920E0
1.540980308E1,2.006921117E0,-2.222355931E0,-6.374573693E0,7.042853685E0
1.541984008E1,2.559970654E0,-2.120846513E0,-6.943311895E0,7.698117935E0
1.542987708E1,2.883957857E0,-1.983897706E0,-6.519070671E0,7.399415210E0
1.543991408E1,3.044147592E0,-1.834624137E0,-5.702737970E0,6.719665218E0
1.544995208E1,3.443620010E0,-1.763745943E0,-4.855209497E0,6.208250783E0
1.545998908E1,3.685186323E0,-1.647371149E0,-3.869713631E0,5.591879248E0
1.547002608E1,3.541494214E0,-1.590274258E0,-2.757201916E0,4.761650542E0
1.548006308E1,3.029236900E0,-1.559864643E0,-1.574649913E0,3.753528506E0
1.549010008E1,2.351998350E0,-1.510915847E0,-8.073022610E-1,2.909725051E0
1.550013708E1,1.718229463E0,-1.379644101E0,-6.396479702E-1,2.294532601E0
1.551017521E1,9.346361992E-1,-1.109653596E0,-1.320193706E0,1.961577770E0
1.552021221E1,2.178973684E-1,-8.046394390E-1,-2.908160067E0,3.025279965E0
1.553024921E1,-7.855734229E-3,-7.565601236E-1,-4.613483555E0,4.675112346E0
1.554028621E1,1.554078823E-1,-8.992830563E-1,-5.756436460E0,5.828329293E0
1.555032321E1,4.976726040E-1,-1.048123346E0,-5.675399898E0,5.792789015E0
1.556036021E1,9.327788311E-1,-1.287582614E0,-4.257170606E0,4.544386306E0
1.557039821E1,1.165335461E0,-1.540254251E0,-2.292163207E0,2.997399217E0
1.558043521E1,1.434634533E0,-1.885088532E0,-2.690610901E-1,2.384141122E0
1.559047221E1,1.350749793E0,-1.606485078E0,1.581082142E0,2.627763317E0
1.560050921E1,8.793765029E-1,-1.178629106E0,2.837582712E0,3.195988932E0
1.561054621E1,8.394169235E-1,-8.105480504E-1,3.252362849E0,3.455354253E0
1.562058321E1,8.995333171E-1,-4.083672023E-1,2.897150345E0,3.060948232E0
1.563062021E1,7.699137023E-1,1.723455119E-1,1.805202702E0,1.970082963E0
1.564065821E1,6.975593787E-1,6.705429035E-1,4.055184388E-1,1.049124433E0
1.565069521E1,6.603921372E-1,7.316463071E-1,-6.675753685E-1,1.190412099E0
1.566073221E1,6.506568155E-1,4.932307667E-1,-1.126654449E0,1.391395389E0
1.567076921E1,8.769183335E-1,2.276782984E-1,-1.219111719E0,1.518899784E0
1.568080621E1,1.213861212E0,-2.772609329E-1,-1.221097434E0,1.743964337E0
1.569084321E1,1.523403453E0,-7.354025584E-1,-9.251762813E-1,1.928088731E0
1.570088121E1,1.516134194E0,-6.839593399E-1,-8.032735294E-1,1.847081925E0
1.571091821E1,1.390614647E0,-6.407618648E-1,-9.864428222E-1,1.821388016E0
1.572095521E1,1.306430822E0,-7.909242100E-1,-1.440242744E0,2.099195503E0
1.573099221E1,1.129839062E0,-7.887917304E-1,-2.193942410E0,2.590774401E0
1.574102921E1,8.632402343E-1,-6.279868680E-1,-2.725326989E0,2.926936693E0
1.575106621E1,6.810673070E-1,-3.343227410E-1,-2.450043585E0,2.564827078E0
1.576110321E1,5.203584851E-1,-2.472781652E-1,-1.547282020E0,1.651060596E0
1.577114121E1,3.667325418E-1,-6.534491533E-1,-9.288237745E-1,1.193399412E0
1.578117821E1,5.686472771E-1,-1.382164251E0,-5.193736678E-1,1.582241053E0
1.579121521E1,1.333611750E0,-2.271650882E0,2.100501126E-1,2.642544055E0
1.580125221E1,2.349584473E0,-2.856948983E0,1.277875067E0,3.913523907E0
1.581128921E1,3.086177378E0,-2.955344759E0,2.554649103E0,4.978432032E0
1.582132621E1,2.911975083E0,-2.326476130E0,3.799645861E0,5.322536871E0
1.583136321E1,1.978664740E0,-1.517113895E0,5.093646380E0,5.671153513E0
1.584140121E1,8.951610616E-1,-1.549109275E0,6.022049155E0,6.282207326E0
1.585143821E1,-1.305953689E-1,-1.824804323E0,6.350087893E0,6.608372131E0
1.586147521E1,-6.785133163E-1,-1.705014755E0,6.022080730E0,6.295467572E0
1.587151221E1,-1.078136738E0,-1.249498529E0,4.891724482E0,5.162615016E0
1.588154921E1,-1.170971008E0,-8.303683573E-1,3.364043498E0,3.657522846E0
1.589158621E1,-8.519349352E-1,-7.813032013E-1,2.337533800E0,2.607736968E0
1.590162421E1,-3.829937216E-1,-1.079051024E0,2.837952549E0,3.060230379E0
1.591166121E1,-2.004608982E-1,-1.087200288E0,4.597602518E0,4.728650753E0
1.592169821E1,-6.030596761E-1,-1.021088744E0,6.393723909E0,6.502769304E0
1.593173521E1,-9.726058249E-1,-1.171925274E0,7.234496802E0,7.393058563E0
1.594177221E1,-1.225247933E0,-1.384561025E0,6.838490614E0,7.084009853E0
1.595180921E1,-1.207793556E0,-1.186833919E0,5.845623456E0,6.085939008E0
1.596184621E1,-1.064685438E0,-8.660585922E-1,4.788951480E0,4.981733518E0
1.597188421E1,-6.785680608E-1,-6.189523351E-1,4.578020777E0,4.669243069E0
1.598192121E1,-3.841524205E-1,-7.616296595E-1,5.432565617E0,5.499129204E0
1.599195821E1,-2.749058572E-1,-1.234623213E0,6.403327376E0,6.527056702E0
1.600199521E1,-1.724119144E-1,-1.403068047E0,7.264425191E0,7.400689101E0
1.601203221E1,-2.873310077E-1,-1.568070626E0,8.221364132E0,8.374498957E0
1.602206921E1,-6.562767206E-1,-2.311547019E0,8.656535556E0,8.983849764E0
1.603210721E1,-9.606465878E-1,-2.956920583E0,8.420239046E0,8.975892535E0
1.604214421E1,-9.022414550E-1,-3.466845735E0,7.844906355E0,8.624129795E0
1.605218121E1,-3.828193284E-1,-3.920807186E0,7.837627156E0,8.771982619E0
1.606221821E1,-1.486370442E-2,-4.262305046E0,8.160029179E0,9.206168662E0
1.607225521E1,9.208021620E-2,-4.964485479E0,7.820617021E0,9.263727405E0
1.608229221E1,2.613204729E-1,-5.882243398E0,7.274844344E0,9.359083075E0
1.609233021E1,5.953974116E-1,-6.686119775E0,7.141972800E0,9.801350479E0
1.610236721E1,1.173176797E0,-7.056073694E0,7.040020748E0,1.003625487E1
1.611240421E1,1.635701276E0,-7.168137336E0,6.787329816E0,1.000627591E1
1.612244121E1,1.842784073E0,-7.720482284E0,6.069312199E0,9.991909247E0
1.613247821E1,1.687329705E0,-8.348916464E0,4.696989981E0,9.726931815E0
1.614251521E1,1.532124429E0,-8.679385890E0,3.260667064E0,9.397398278E0
1.615255221E1,1.095587096E0,-8.563333277E0,1.870972184E0,8.833545427E0
1.616259021E1,6.628501604E-1,-8.387346704E0,3.284461431E-1,8.419906884E0
1.617262721E1,3.970945014E-1,-8.326811650E0,-1.387679637E0,8.450984030E0
1.618266421E1,4.540191192E-1,-8.116283235E0,-2.880296038E0,8.624169072E0
1.619270121E1,4.425152341E-1,-7.397223644E0,-3.997520024E0,8.419911147E0
1.620273821E1,4.564153813E-1,-6.550198324E0,-4.838639657E0,8.156337831E0
1.621277521E1,8.241290858E-1,-5.656361949E0,-5.461371925E0,7.905706961E0
1.622281321E1,1.273105493E0,-5.076306462E0,-5.962858960E0,7.933811938E0
1.623285021E1,1.676335917E0,-4.968483805E0,-6.666739764E0,8.481824833E0
1.624288721E1,1.480160662E0,-4.715739663E0,-7.150139607E0,8.692155805E0
1.625292421E1,1.059949047E0,-4.077544141E0,-7.562115710E0,8.656526568E0
1.626296121E1,1.074065980E0,-3.569245099E0,-7.636695777E0,8.497779162E0
1.627299821E1,1.108794056E0,-3.408588172E0,-7.030164682E0,7.891204790E0
1.628303521E1,9.474366313E-1,-3.445527956E0,-6.000483454E0,6.983917293E0
1.629307321E1,8.693195844E-1,-3.569716970E0,-4.992894176E0,6.198998955E0
1.630311021E1,1.063260033E0,-3.528214018E0,-4.143686090E0,5.545173619E0
1.631314721E1,1.257227671E0,-3.319938535E0,-3.291907568E0,4.841411853E0
1.632318421E1,1.410096108E0,-3.223215648E0,-2.493791867E0,4.312364552E0
1.633322121E1,1.744996262E0,-2.946294438E0,-1.653651643E0,3.802660467E0
1.634325821E1,2.005986440E0,-2.599405446E0,-1.131562529E0,3.472941696E0
1.635329521E1,2.038898078E0,-2.261710616E0,-1.408918771E0,3.355218679E0
1.636333321E1,1.880375969E0,-1.843261644E0,-2.853829494E0,3.883010437E0
1.637337021E1,1.711352845E0,-1.097396078E0,-4.700563214E0,5.121357363E0
1.638340721E1,1.832111296E0,-1.382857146E0,-6.387253965E0,6.787189323E0
1.639344421E1,2.155621951E0,-1.879262366E0,-7.596410800E0,8.116883027E0
1.640348121E1,2.092671997E0,-1.343624083E0,-7.212226512E0,7.628945735E0
1.641351821E1,1.980286758E0,-1.164796933E0,-6.064757802E0,6.485335361E0
1.642355621E1,2.047651067E0,-1.339243934E0,-4.764021292E0,5.355590357E0
