"Time (s)","Linear Acceleration x (m/s^2)","Linear Acceleration y (m/s^2)","Linear Acceleration z (m/s^2)","Absolute acceleration (m/s^2)"
5.695833242E-4,-1.697860577E-2,-2.131207779E-2,-6.628228247E-2,7.166462644E-2
1.051558333E-2,-2.685432460E-2,-3.078104055E-2,-8.095177710E-2,9.067423792E-2
2.046158334E-2,-1.989708815E-2,-2.672166590E-2,-4.712154150E-2,5.770945519E-2
3.040758331E-2,-2.449278038E-2,-2.967196078E-2,-1.823161840E-2,4.257597277E-2
4.035358332E-2,-2.222594278E-2,-3.466892732E-2,-7.306095958E-3,4.182470672E-2
5.030058333E-2,-1.251868771E-2,-4.146386700E-2,-2.814849615E-3,4.340383839E-2
6.024658334E-2,-1.375958565E-2,-2.827053851E-2,3.022425771E-3,3.158614573E-2
7.019258331E-2,-7.412761962E-3,-2.741141807E-2,-2.368122339E-3,2.849461149E-2
8.013858332E-2,-1.140738783E-2,-2.009636857E-2,-3.874189675E-2,4.511016615E-2
9.008458332E-2,-9.496883210E-3,-2.994731896E-2,-8.005539894E-2,8.599941629E-2
1.000305833E-1,3.096100688E-4,-2.347558413E-2,-7.661372781E-2,8.013028265E-2
1.099765833E-1,-1.015923570E-2,-3.077743172E-2,-4.787349343E-2,5.781290294E-2
1.199225833E-1,-1.111364747E-2,-2.382202252E-2,-3.051077127E-2,4.027293236E-2
1.298685833E-1,-1.686357094E-2,-2.920160710E-2,-2.302691996E-2,4.083323309E-2
1.398145833E-1,-2.356829904E-2,-3.644441608E-2,-5.212792754E-3,4.371308033E-2
1.497605833E-1,-3.509264946E-2,-4.034980796E-2,-1.918471456E-3,5.350964008E-2
1.597065833E-1,-1.780762218E-2,-3.732041121E-2,-8.503605723E-3,4.221653481E-2
1.696525833E-1,-1.868981170E-2,-3.657976999E-2,-3.050726295E-2,5.116719385E-2
1.795985833E-1,-1.971024220E-2,-3.488024935E-2,-6.418664038E-2,7.566406179E-2
1.895445833E-1,-1.700163832E-2,-3.204709978E-2,-6.987422705E-2,7.873042560E-2
1.994915833E-1,-7.257554932E-3,-2.902416238E-2,-4.846815526E-2,5.695819678E-2
2.094375833E-1,-6.080099288E-3,-2.142833688E-2,-3.379690647E-2,4.047680961E-2
2.193835833E-1,-1.439200770E-2,-2.787033314E-2,-1.807900608E-2,3.620408562E-2
2.293295833E-1,-1.041592847E-2,-3.008537720E-2,-1.328896701E-2,3.449953813E-2
2.392755833E-1,-1.999839116E-4,-2.904383278E-2,-4.157370329E-3,2.934055119E-2
2.492215833E-1,-2.431783900E-3,-3.359599980E-2,-8.648031950E-4,3.369499458E-2
2.591675833E-1,-1.168150348E-2,-3.295933851E-2,-3.738885105E-2,5.119278954E-2
2.691135833E-1,-2.135332807E-2,-3.865150245E-2,-6.762538791E-2,8.076568795E-2
2.790595833E-1,-1.262933713E-2,-3.465327688E-2,-5.939192355E-2,6.991244766E-2
2.890055833E-1,-4.773849584E-3,-3.769566542E-2,-4.292557955E-2,5.732676696E-2
2.989515833E-1,-4.341795165E-3,-3.319611420E-2,-3.304495454E-2,4.704043158E-2
3.088975833E-1,-6.200149935E-3,-2.390382872E-2,-1.029168427E-2,2.675357269E-2
3.188435833E-1,-5.956768719E-3,-2.791468975E-2,-6.996778250E-3,2.938822729E-2
3.287895833E-1,-1.739258864E-2,-3.268136736E-2,-1.163654387E-2,3.880699763E-2
3.387355833E-1,-7.735921126E-3,-3.054097580E-2,-1.837195158E-2,3.647086897E-2
3.486815833E-1,-1.638114824E-2,-2.863871209E-2,-3.977685392E-2,5.167897015E-2
3.586285833E-1,-8.784198985E-3,-2.872960889E-2,-5.264891446E-2,6.061733062E-2
3.685745833E-1,-1.815032383E-2,-3.344462086E-2,-4.995451748E-2,6.279674145E-2
3.785205833E-1,-2.250080760E-2,-3.580338766E-2,-3.887755215E-2,5.744243180E-2
3.884665833E-1,-2.002216375E-2,-3.321612264E-2,-2.720183194E-2,4.737232847E-2
3.984125833E-1,-1.293585001E-2,-3.159748544E-2,-1.238323331E-2,3.631916531E-2
4.083585833E-1,-1.447413367E-2,-3.478974542E-2,-8.041090965E-3,3.852902900E-2
4.183045833E-1,-1.692493016E-2,-2.650551992E-2,-9.536224008E-3,3.286237081E-2
4.282505833E-1,-1.168467376E-2,-3.435289445E-2,-3.543178797E-2,5.071552580E-2
4.381965833E-1,-1.400127665E-2,-3.069719695E-2,-5.010011315E-2,6.040177967E-2
4.481425833E-1,-7.202545423E-3,-2.658415583E-2,-3.887345910E-2,4.764178653E-2
4.580885833E-1,-1.259090083E-2,-2.608159678E-2,-3.902373254E-2,4.859662721E-2
4.680345833E-1,-9.238308370E-3,-3.349439529E-2,-3.483244836E-2,4.919878369E-2
4.779805833E-1,-9.902561205E-3,-3.237214101E-2,-2.106225550E-2,3.987022497E-2
4.879265833E-1,1.320739836E-4,-3.562332083E-2,-1.941684902E-2,4.057157202E-2
4.978735833E-1,-1.210573724E-2,-3.120217712E-2,-1.328019619E-2,3.600678189E-2
5.078195833E-1,-3.598011062E-3,-3.101129293E-2,-1.282937586E-2,3.375261261E-2
5.177655833E-1,-6.987833837E-3,-3.227070096E-2,-1.776910365E-2,3.749625323E-2
5.277115833E-1,-8.610308273E-3,-3.639634101E-2,-3.917400599E-2,5.416118345E-2
5.376575833E-1,-1.810334511E-3,-3.215693607E-2,-4.620762169E-2,5.632486264E-2
5.476035833E-1,-6.420151424E-4,-3.110345053E-2,-4.725602746E-2,5.657710624E-2
5.575495833E-1,-6.050844938E-3,-3.122589489E-2,-3.752509117E-2,4.919147999E-2
5.674954583E-1,-1.199251140E-2,-3.177625492E-2,-2.390224814E-2,4.153153227E-2
5.774414583E-1,-1.193174603E-2,-3.196843646E-2,-1.477065146E-2,3.718224896E-2
5.873874583E-1,-7.312135035E-3,-2.842690584E-2,-6.536017656E-3,3.007117925E-2
5.973334583E-1,-1.439556171E-2,-2.921693777E-2,-2.419811726E-2,4.057598462E-2
6.072794583E-1,-1.214204480E-2,-3.567525141E-2,-3.467515826E-2,5.121054008E-2
6.172254583E-1,-1.270398050E-2,-3.137457862E-2,-3.662052691E-2,4.986800873E-2
6.271714583E-1,-1.455508106E-2,-3.068639788E-2,-4.694904864E-2,5.794582442E-2
6.371174583E-1,-2.716692223E-2,-2.992026645E-2,-4.604974687E-2,6.126861509E-2
6.470644583E-1,-1.894695215E-2,-3.036342144E-2,-3.422492266E-2,4.952039669E-2
6.570104583E-1,-1.597192537E-2,-2.930790765E-2,-3.497219682E-2,4.834366971E-2
6.669564583E-1,-1.729411787E-2,-2.694574216E-2,-1.790709794E-2,3.668546974E-2
6.769024583E-1,-1.375611386E-2,-2.852391480E-2,-1.446425736E-2,3.481463953E-2
6.868484583E-1,-1.817716621E-2,-2.977722893E-2,-2.359526932E-2,4.211685493E-2
6.967944583E-1,-1.584615542E-2,-2.687845350E-2,-2.763803422E-2,4.168228449E-2
7.067404583E-1,-9.223388834E-3,-3.166333057E-2,-4.185904741E-2,5.328993577E-2
7.166864583E-1,-1.200348406E-2,-3.381003530E-2,-5.009134233E-2,6.161448444E-2
7.266324583E-1,-6.574517917E-3,-3.656997590E-2,-4.200815141E-2,5.608272647E-2
7.365784583E-1,-4.942331621E-3,-4.073512120E-2,-3.422492266E-2,5.343334233E-2
7.465244583E-1,-7.664283598E-3,-3.846134003E-2,-3.751865923E-2,5.427398742E-2
7.564704583E-1,-4.370976426E-4,-3.097150446E-2,-2.000449419E-2,3.687282103E-2
7.664164583E-1,-8.454178479E-3,-3.443558687E-2,-1.401636064E-2,3.812795749E-2
7.763624583E-1,-6.423157258E-3,-2.583591322E-2,-2.434605181E-2,3.607605300E-2
7.863084583E-1,-7.173619978E-3,-2.806470738E-2,-3.587091386E-2,4.610651890E-2
7.962554583E-1,-2.387363333E-3,-3.131610646E-2,-3.078208208E-2,4.397652334E-2
8.062014583E-1,-6.198870856E-4,-2.799763799E-2,-3.362733722E-2,4.376128199E-2
8.161474583E-1,-5.218576016E-3,-3.563340727E-2,-3.811916828E-2,5.244086422E-2
8.260934583E-1,-1.220894060E-2,-3.453023868E-2,-2.973659992E-2,4.717691161E-2
8.360394583E-1,-1.120597866E-2,-2.934505574E-2,-2.883729815E-2,4.264148238E-2
8.459854583E-1,-1.580326061E-2,-2.949185740E-2,-3.212869585E-2,4.638712963E-2
8.559314583E-1,-8.432662552E-3,-3.190068184E-2,-1.206982255E-2,3.513465406E-2
8.658774583E-1,-1.632620269E-2,-3.263563117E-2,-2.224982500E-2,4.273972425E-2
8.758234583E-1,-1.581683711E-2,-2.188399944E-2,-3.257776201E-2,4.231302808E-2
8.857694583E-1,-1.733710404E-2,-1.857710662E-2,-3.272745073E-2,4.143392449E-2
8.957154583E-1,-1.836287012E-2,-2.344552578E-2,-3.676963091E-2,4.731694660E-2
9.056614583E-1,-8.584059756E-3,-2.443412550E-2,-3.916465044E-2,4.695298089E-2
9.156074583E-1,-1.906852855E-2,-2.980712282E-2,-2.613939285E-2,4.399251312E-2
9.255534583E-1,-1.470007374E-2,-3.740774486E-2,-1.595939040E-2,4.324504232E-2
9.354994583E-1,-2.257454647E-2,-3.474300424E-2,-1.835382521E-2,4.531610521E-2
9.454454583E-1,-1.987942773E-2,-3.738482195E-2,-2.943020582E-2,5.156504217E-2
9.553924583E-1,-1.290219197E-2,-3.519651063E-2,-2.179491162E-2,4.336218503E-2
9.653384583E-1,-6.368357884E-3,-3.413865795E-2,-2.508806348E-2,4.284174224E-2
9.752844583E-1,-6.088915793E-3,-2.939704115E-2,-3.661409497E-2,4.734820878E-2
9.852304583E-1,-1.852525827E-3,-3.153150327E-2,-4.394825757E-2,5.412131644E-2
9.951764583E-1,-4.202229436E-3,-3.892519782E-2,-3.526514232E-2,5.269212485E-2
1.005122458E0,2.674735710E-4,-2.427166427E-2,-3.735961497E-2,4.455250901E-2
1.015068458E0,4.339154782E-3,-3.718574253E-2,-2.942552805E-2,4.761795263E-2
1.025014458E0,7.015900472E-3,-2.938128107E-2,-1.520568430E-2,3.381856549E-2
1.034960458E0,-2.228300795E-3,-2.670165746E-2,-2.613471508E-2,3.742949596E-2
1.044906458E0,-7.435904145E-3,-3.471877484E-2,-3.661351025E-2,5.100230514E-2
1.054852458E0,-4.959005322E-3,-3.506110190E-2,-3.586506665E-2,5.040015482E-2
1.064798458E0,-8.591332231E-3,-3.258529943E-2,-4.319981396E-2,5.478901948E-2
1.074744458E0,-1.177123996E-2,-2.999930436E-2,-3.706433058E-2,4.911501760E-2
1.084690458E0,-2.957174499E-3,-3.518710940E-2,-3.526748121E-2,4.990664064E-2
1.094636458E0,-1.540935013E-2,-2.771380135E-2,-3.107619703E-2,4.439856843E-2
1.104583458E0,-1.002448479E-2,-2.833041765E-2,-2.853090405E-2,4.143809052E-2
1.114529458E0,-9.831828168E-3,-2.458039725E-2,-2.748308301E-2,3.815993483E-2
1.124475458E0,-4.573162179E-3,-2.849891796E-2,-1.999806225E-2,3.511445046E-2
1.134421458E0,-5.927304234E-3,-2.715563893E-2,-2.388996899E-2,3.665095196E-2
1.144367458E0,-1.624372954E-2,-2.662619183E-2,-2.688432813E-2,4.117742026E-2
1.154313458E0,-1.688025378E-2,-3.365475518E-2,-3.811039746E-2,5.357226809E-2
1.164259458E0,-1.225802067E-2,-3.883644805E-2,-4.260047436E-2,5.893495723E-2
1.174205458E0,-1.219471542E-2,-2.702647028E-2,-4.005635083E-2,4.983625610E-2
1.184151458E0,-1.243130838E-2,-3.410671754E-2,-3.885884106E-2,5.317720506E-2
1.194097458E0,-1.873576717E-2,-2.697448488E-2,-1.984661937E-2,3.837369029E-2
1.204043458E0,-4.852275364E-3,-2.584241825E-2,-1.745159984E-2,3.155841400E-2
1.213989458E0,-5.886337180E-3,-2.609011179E-2,-1.775097728E-2,3.210046873E-2
1.223935458E0,-5.098845139E-3,-1.884440660E-2,-3.481607616E-2,3.991577434E-2
1.233881458E0,-1.106165294E-2,-2.495667472E-2,-4.334833324E-2,5.122766609E-2
1.243827458E0,-9.191311374E-3,-2.787343034E-2,-4.005518138E-2,4.965708287E-2
1.253773458E0,-4.943199567E-3,-3.254301676E-2,-3.077389598E-2,4.506124538E-2
1.263720458E0,1.302997191E-3,-3.042345590E-2,-3.257016063E-2,4.458811315E-2
1.273666458E0,-3.769179164E-3,-3.192682073E-2,-3.586214304E-2,4.816245318E-2
1.283612458E0,-2.540341113E-4,-3.805814710E-2,-1.774805367E-2,4.199381506E-2
1.293558458E0,-9.301567934E-3,-3.087300628E-2,-2.313626289E-2,3.968561885E-2
1.303504458E0,-7.901333375E-3,-3.610724187E-2,-2.448287666E-2,4.433480838E-2
1.313450458E0,-3.822918730E-3,-3.716617263E-2,-2.717668891E-2,4.620077397E-2
1.323396458E0,-4.650208382E-3,-1.988774174E-2,-3.705614448E-2,4.231199065E-2
1.333342458E0,-5.095821032E-3,-3.134223620E-2,-3.481022894E-2,4.711746175E-2
1.343288458E0,-4.368089363E-3,-3.526355261E-2,-3.286427557E-2,4.840102227E-2
1.353234458E0,-1.750957863E-3,-2.885321354E-2,-3.675793648E-2,4.676237461E-2
1.363180458E0,4.870776320E-3,-3.154082227E-2,-3.121945381E-2,4.464529345E-2
1.373126458E0,-2.617341634E-3,-2.851443135E-2,-2.478283882E-2,3.786967616E-2
1.383072458E0,-1.449299094E-2,-2.631665485E-2,-2.598034859E-2,3.971890761E-2
1.393018458E0,-1.362469769E-2,-3.161308106E-2,-3.301454902E-2,4.769674756E-2
1.402964458E0,-8.717805678E-3,-3.334507202E-2,-3.016870916E-2,4.580442092E-2
1.412911458E0,-1.021177841E-2,-2.928552378E-2,-2.927057683E-2,4.264608997E-2
1.422857458E0,-1.018720184E-2,-2.728772205E-2,-4.184325993E-2,5.098291143E-2
1.432803458E0,-2.320778165E-3,-2.877723629E-2,-3.495699406E-2,4.533769704E-2
1.442749458E0,-7.092983220E-3,-2.014162053E-2,-2.777135074E-2,3.503203121E-2
1.452695458E0,-9.669577070E-3,-2.132798404E-2,-3.809928775E-2,4.472068147E-2
1.462641458E0,-1.159836338E-2,-2.833816521E-2,-3.001492739E-2,4.287737756E-2
1.472587458E0,-6.794254454E-3,-3.223459440E-2,-2.253107607E-2,3.991090526E-2
1.482533458E0,-6.715682494E-3,-3.456609855E-2,-2.358006656E-2,4.237847448E-2
1.492479458E0,-4.619775452E-3,-2.501440683E-2,-2.597508609E-2,3.635612702E-2
1.502425458E0,-5.830953084E-4,-2.370069279E-2,-3.286193669E-2,4.052122557E-2
1.512371458E0,6.679073442E-3,-3.619273913E-2,-3.166442692E-2,4.855059547E-2
1.522317458E0,-1.009841552E-2,-3.651086421E-2,-2.402971745E-2,4.486032235E-2
1.532263458E0,-4.941070816E-3,-2.717963079E-2,-3.076570988E-2,4.134822142E-2
1.542209458E0,5.732464045E-4,-3.473727579E-2,-3.555574894E-2,4.971134904E-2
1.552155458E0,-1.539105931E-3,-3.758629507E-2,-3.360979557E-2,5.044518592E-2
1.562102458E0,-6.630614642E-3,-2.634785523E-2,-2.253283024E-2,3.529735067E-2
1.572051208E0,-1.194513068E-3,-3.228896437E-2,-2.687263370E-2,4.202549849E-2
1.581997208E0,-8.280022815E-3,-2.713187548E-2,-3.256080508E-2,4.318452816E-2
1.591943208E0,-1.123998388E-2,-1.889170510E-2,-3.690119326E-2,4.295266957E-2
1.601889208E0,-4.824665543E-3,-2.343511957E-2,-3.525461733E-2,4.260716219E-2
1.611835208E0,-2.545859423E-3,-3.344733434E-2,-4.213971376E-2,5.386057046E-2
1.621781208E0,-1.107884740E-2,-3.252880985E-2,-3.181177676E-2,4.682791337E-2
1.631727208E0,-1.285787190E-2,-3.054824827E-2,-2.462554872E-2,4.129089479E-2
1.641673208E0,-1.714147814E-3,-2.053434329E-2,-1.669146180E-2,2.651796474E-2
1.651619208E0,-2.003173856E-2,-2.425885521E-2,-2.851745546E-2,4.246184018E-2
1.661565208E0,-1.418579285E-2,-2.728487154E-2,-2.821749330E-2,4.173640930E-2
1.671511208E0,6.396853924E-4,-2.686680475E-2,-3.255963564E-2,4.221805618E-2
1.681457208E0,-3.785697548E-3,-2.429634134E-2,-4.393422425E-2,5.034739088E-2
1.691403208E0,-1.294848547E-2,-3.164851153E-2,-4.019376040E-2,5.277148788E-2
1.701349208E0,-1.042504647E-2,-3.532749739E-2,-4.259053409E-2,5.630867837E-2
1.711295208E0,-6.309639048E-3,-3.615385515E-2,-3.675384343E-2,5.193994410E-2
1.721241208E0,-3.841218688E-3,-3.278903835E-2,-2.912088811E-2,4.402160971E-2
1.731188208E0,1.117000915E-4,-3.588089981E-2,-1.849298894E-2,4.036634846E-2
1.741134208E0,-5.404398702E-3,-3.534675666E-2,-2.238548040E-2,4.218661476E-2
1.751080208E0,-4.741297038E-3,-2.971343033E-2,-2.882326484E-2,4.166711456E-2
1.761026208E0,-4.376567826E-3,-2.709806213E-2,-3.331392646E-2,4.316569255E-2
1.770972208E0,2.628478752E-3,-2.847305316E-2,-4.064750433E-2,4.969751770E-2
1.780918208E0,-2.362329941E-3,-2.946249342E-2,-4.274431586E-2,5.196821778E-2
1.790864208E0,-2.230347320E-3,-3.077919502E-2,-2.777602851E-2,4.151916491E-2
1.800810208E0,-5.095821032E-3,-2.516714707E-2,-3.421322823E-2,4.277730320E-2
1.810756208E0,-8.945874497E-3,-3.366758251E-2,-2.358649850E-2,4.206967665E-2
1.820702208E0,-1.596811554E-2,-3.725781860E-2,-3.780692697E-2,5.543004138E-2
1.830648208E0,-9.972207025E-3,-1.941807328E-2,-2.837653756E-2,3.580131795E-2
1.840594208E0,-9.302198337E-3,-2.483642307E-2,-3.062245309E-2,4.051065833E-2
1.850540208E0,-4.713860806E-4,-2.491448340E-2,-3.571128488E-2,4.354594763E-2
1.860486208E0,-1.464923951E-2,-2.387796393E-2,-2.837712228E-2,3.987503540E-2
1.870432208E0,-1.611332749E-2,-2.615879830E-2,-2.553362131E-2,3.994856529E-2
1.880379208E0,-1.398000740E-2,-3.665278709E-2,-3.945701122E-2,5.563922307E-2
1.890325208E0,-1.280849948E-2,-3.279139551E-2,-3.227312207E-2,4.775863992E-2
1.900271208E0,-1.742540614E-2,-3.350780734E-2,-3.167553663E-2,4.929257097E-2
1.910217208E0,-8.129036743E-3,-3.028799236E-2,-3.721343458E-2,4.866501241E-2
1.920163208E0,-1.108653101E-2,-3.522582893E-2,-2.478868604E-2,4.447751285E-2
1.930109208E0,-1.365315719E-2,-3.109511825E-2,-3.721401930E-2,5.038053506E-2
1.940055208E0,-1.838556463E-3,-2.920635796E-2,-3.332269728E-2,4.434854890E-2
1.950001208E0,-3.331907932E-4,-3.437424593E-2,-3.601650953E-2,4.978844000E-2
1.959947208E0,-2.173218196E-3,-3.117446680E-2,-3.137440503E-2,4.428231643E-2
1.969893208E0,-4.384872699E-3,-2.735674661E-2,-2.553596020E-2,3.767895907E-2
1.979839208E0,-5.450198846E-3,-3.263731224E-2,-3.301864207E-2,4.674536920E-2
1.989785208E0,-2.824214296E-3,-3.260534442E-2,-3.735786080E-2,4.966582764E-2
1.999731208E0,2.706703534E-3,-3.830957738E-2,-2.822567940E-2,4.766171357E-2
2.009677208E0,2.537234779E-4,-2.499260768E-2,-2.029159248E-2,3.219384320E-2
2.019623208E0,-1.342892560E-2,-3.624606756E-2,-2.717610419E-2,4.725096926E-2
2.029569208E0,-1.146333838E-2,-2.768448304E-2,-3.391092718E-2,4.525251054E-2
2.039515208E0,-7.645051740E-4,-3.033732824E-2,-3.136563420E-2,4.364333812E-2
2.049462208E0,1.780559393E-3,-2.792993819E-2,-3.181528509E-2,4.237291829E-2
2.059408208E0,-1.354961579E-2,-2.832171991E-2,-3.600481510E-2,4.777089718E-2
2.069354208E0,-1.019684974E-2,-2.734336196E-2,-3.705263615E-2,4.716495557E-2
2.079300208E0,-1.208058508E-2,-2.241572147E-2,-2.432851017E-2,3.521763070E-2
2.089246208E0,-1.539285002E-2,-2.380139281E-2,-1.669438541E-2,3.289602766E-2
2.099192208E0,-1.670527585E-2,-2.832621496E-2,-2.881975651E-2,4.372664017E-2
2.109138208E0,-6.591383480E-3,-2.734089517E-2,-2.133532047E-2,3.530108758E-2
2.119084208E0,-1.332258850E-2,-2.735722169E-2,-2.043718815E-2,3.665498060E-2
2.129030208E0,-1.029127314E-2,-2.729386163E-2,-3.196321964E-2,4.327253858E-2
2.138976208E0,-6.364785600E-3,-2.700137294E-2,-3.301104069E-2,4.311975700E-2
2.148922208E0,-1.093926340E-2,-2.978164176E-2,-3.585512638E-2,4.787696479E-2
2.158868208E0,-4.023962449E-3,-2.963763580E-2,-2.552601993E-2,3.932123374E-2
2.168814208E0,-7.905938057E-3,-2.434956928E-2,-3.286135197E-2,4.165661813E-2
2.178760208E0,-5.037979279E-3,-2.757827385E-2,-1.729255557E-2,3.293895721E-2
2.188706208E0,-4.678074019E-3,-3.405372715E-2,-2.791987002E-2,4.428385542E-2
2.198652208E0,-3.347622324E-3,-2.830435186E-2,-3.749936342E-2,4.710143487E-2
2.208599208E0,-8.418391692E-3,-3.211743082E-2,-5.186714172E-2,6.158408132E-2
2.218545208E0,1.008409898E-2,-4.027683654E-2,-3.869570374E-2,5.675623404E-2
2.228491208E0,-2.741668057E-3,-3.589765574E-2,-3.465527773E-2,4.997145891E-2
2.238437208E0,-5.581989605E-3,-3.134254684E-2,-2.731994569E-2,4.195108202E-2
2.248383208E0,-1.236092253E-3,-2.457573775E-2,-2.208084047E-2,3.306143261E-2
2.258329208E0,3.960940428E-4,-2.977781366E-2,-1.564481020E-2,3.363978542E-2
2.268275208E0,-2.328909449E-3,-2.973397781E-2,-2.238138735E-2,3.728886906E-2
2.278221208E0,-5.220914902E-3,-2.805376212E-2,-1.669380069E-2,3.305986242E-2
2.288167208E0,-6.284596520E-3,-2.701832986E-2,-2.328010440E-2,3.621394155E-2
2.298113208E0,-3.707755990E-3,-2.962514651E-2,-3.330983341E-2,4.473188753E-2
2.308059208E0,-1.262926404E-2,-3.135230438E-2,-3.106567204E-2,4.590796532E-2
2.318005208E0,-3.091888865E-3,-2.760316106E-2,-3.465878606E-2,4.441537716E-2
2.327951208E0,-5.967257163E-3,-3.043342358E-2,-3.630594671E-2,4.774854129E-2
2.337897208E0,-1.157591555E-2,-3.342895215E-2,-3.765372992E-2,5.166526918E-2
2.347843208E0,-1.459457718E-2,-3.476562565E-2,-2.687614202E-2,4.630310379E-2
2.357789208E0,-1.945081769E-2,-2.463948154E-2,-1.924201727E-2,3.681974454E-2
2.367736208E0,-1.527304606E-2,-2.571864001E-2,-1.969342232E-2,3.581264109E-2
2.377682208E0,-1.746467385E-2,-2.699838538E-2,-2.538334787E-2,4.096635198E-2
2.387628208E0,-6.628476754E-3,-2.662535129E-2,-2.927642405E-2,4.012424505E-2
2.397574208E0,-1.340940138E-2,-2.799215622E-2,-3.870681345E-2,4.961441588E-2
2.407520208E0,-1.620420601E-2,-2.846201655E-2,-3.391618967E-2,4.714838916E-2
2.417466208E0,-5.177407963E-3,-2.706442237E-2,-3.107210398E-2,4.153028000E-2
2.427412208E0,-1.037010091E-2,-2.455667035E-2,-2.388587594E-2,3.579251487E-2
2.437358208E0,-9.126361599E-3,-3.328987978E-2,-3.077097237E-2,4.624239735E-2
2.447304208E0,-8.867640579E-3,-2.498637674E-2,-2.987225533E-2,3.994127828E-2
2.457250208E0,-9.280161643E-3,-2.619495054E-2,-3.795661569E-2,4.704254998E-2
2.467196208E0,-3.320999220E-3,-3.077878389E-2,-3.346536934E-2,4.558830463E-2
2.477142208E0,-6.631747540E-4,-2.783516762E-2,-2.283571601E-2,3.600980815E-2
2.487088208E0,-1.242586317E-2,-3.098641486E-2,-2.837244451E-2,4.381273318E-2
2.497034208E0,2.602897184E-3,-2.549371406E-2,-2.522839665E-2,3.596076373E-2
2.506980208E0,-1.879331656E-3,-2.791778695E-2,-3.420913517E-2,4.419501833E-2
2.516926208E0,-2.524928218E-3,-3.054884213E-2,-2.777368963E-2,4.136405267E-2
2.526873208E0,-6.403221907E-3,-3.206958415E-2,-2.433026433E-2,4.076053533E-2
2.536819208E0,-1.076397484E-2,-3.232298786E-2,-3.555633366E-2,4.924318797E-2
2.546765208E0,-9.591818238E-3,-2.794929796E-2,-4.783022404E-2,5.622185131E-2
2.556711208E0,-5.209010337E-3,-2.926192478E-2,-3.346010685E-2,4.475458391E-2
2.566653708E0,-9.306665976E-3,-2.569006174E-2,-2.522605777E-2,3.718799933E-2
2.576599708E0,-1.001857362E-2,-2.779700540E-2,-1.624298036E-2,3.371764727E-2
2.586545708E0,-7.413319275E-3,-2.629925025E-2,-2.013605654E-2,3.394213663E-2
2.596491708E0,-1.225262113E-2,-2.300936004E-2,-2.028457582E-2,3.303061293E-2
2.606437708E0,-1.566022309E-2,-3.403592968E-2,-2.492492616E-2,4.499932267E-2
2.616383708E0,-4.936721949E-3,-3.502833009E-2,-2.537516177E-2,4.353451466E-2
2.626329708E0,-1.777982050E-2,-3.018542854E-2,-3.136388004E-2,4.702100684E-2
2.636275708E0,-1.538592473E-2,-2.728986908E-2,-3.226259708E-2,4.497042144E-2
2.646221708E0,-7.862102212E-3,-2.985702516E-2,-2.313216984E-2,3.857916386E-2
2.656167708E0,-6.452356791E-3,-3.132500519E-2,-1.699610174E-2,3.621817683E-2
2.666113708E0,-1.092662794E-2,-2.451919335E-2,-2.956995428E-2,3.993700335E-2
2.676059708E0,-1.183144801E-2,-2.008636435E-2,-2.537867010E-2,3.446044240E-2
2.686005708E0,-1.031317279E-2,-2.009677970E-2,-2.343213201E-2,3.254699522E-2
2.695952708E0,-1.409910788E-2,-2.648078802E-2,-2.028925359E-2,3.621699585E-2
2.705898708E0,-6.262148693E-3,-2.507607669E-2,-2.507929265E-2,3.601381746E-2
2.715844708E0,5.300318263E-4,-2.752470788E-2,-3.495816350E-2,4.449678272E-2
2.725790708E0,-4.629268041E-3,-2.929225721E-2,-4.738057315E-2,5.589619994E-2
2.735736708E0,-6.428511115E-3,-3.831832079E-2,-4.767936587E-2,6.150562083E-2
2.745682708E0,-3.546573836E-3,-4.104365319E-2,-9.509326816E-3,4.227986459E-2
2.755628708E0,-9.013985423E-3,-3.621114872E-2,4.561412930E-3,3.759395846E-2
2.765574708E0,-3.251508716E-4,-3.436648923E-2,-9.360222816E-3,3.561986912E-2
2.775520708E0,-1.427495375E-2,-3.015820244E-2,-3.495699406E-2,4.832476500E-2
2.785466708E0,4.051298182E-4,-3.010268130E-2,-6.444508731E-2,7.113019634E-2
2.795412708E0,2.259546854E-3,-2.241919326E-2,-4.184033632E-2,4.752198988E-2
2.805358708E0,3.859619144E-4,-2.898164215E-2,-3.106333315E-2,4.248547064E-2
2.815304708E0,-4.202814158E-3,-2.980408958E-2,-4.019376040E-2,5.021439811E-2
2.825250708E0,-7.128971005E-3,-1.723137908E-2,-3.061309755E-2,3.584556310E-2
2.835196708E0,-7.335423399E-4,-2.994541861E-2,-1.714052796E-2,3.451179333E-2
2.845142708E0,-9.757066034E-3,-2.781802797E-2,1.569977403E-3,2.952131174E-2
2.855088708E0,-1.011236661E-2,-2.686935377E-2,-1.938585877E-2,3.464150186E-2
2.865035708E0,-8.753080834E-3,-3.581372079E-2,-3.929328918E-2,5.388136594E-2
2.874981708E0,-1.654969423E-2,-2.921920356E-2,-3.854367614E-2,5.112014482E-2
2.884927708E0,-1.770683080E-2,-3.161912927E-2,-3.480145812E-2,5.024383226E-2
2.894873708E0,-8.938291389E-3,-3.134917977E-2,-3.315780580E-2,4.649843235E-2
2.904819708E0,-1.348662117E-2,-2.321824268E-2,-4.273846865E-2,5.047328448E-2
2.914765708E0,-1.514469967E-2,-3.035993138E-2,-4.198944032E-2,5.398333502E-2
2.924711708E0,-4.695487758E-3,-1.691449653E-2,-2.073364198E-2,2.716673900E-2
2.934657708E0,-1.368918152E-2,-1.242124021E-2,-1.265045106E-2,2.239899130E-2
2.944603708E0,-1.100815091E-2,-1.998154387E-2,-1.714169741E-2,2.853557905E-2
2.954549708E0,-6.997043202E-3,-2.547378785E-2,-2.118270814E-2,3.386118139E-2
2.964495708E0,-7.370561510E-3,-2.455734643E-2,-3.884597719E-2,4.654458491E-2
2.974441708E0,-1.188656716E-2,-3.459291352E-2,-4.183975160E-2,5.557449918E-2
2.984387708E0,-1.280494547E-3,-3.277197179E-2,-4.947270691E-2,5.935647000E-2
2.994333708E0,5.856004748E-3,-3.130211882E-2,-4.917332947E-2,5.858439866E-2
3.004279708E0,1.051740507E-3,-3.503901953E-2,-4.109072328E-2,5.401191153E-2
3.014225708E0,-3.024591068E-3,-3.599836489E-2,-2.238021791E-2,4.249593604E-2
3.024171708E0,3.186047310E-3,-3.948727056E-2,-1.459698915E-2,4.221927908E-2
3.034118708E0,6.695326874E-3,-2.336445048E-2,-2.402620912E-2,3.417577611E-2
3.044064708E0,-1.030535214E-3,-2.932064362E-2,-3.166150331E-2,4.316495033E-2
3.054010708E0,4.333490292E-3,-2.947416957E-2,-3.704912782E-2,4.754096846E-2
3.063956708E0,-2.110570762E-3,-3.603637179E-2,-4.154037416E-2,5.503341972E-2
3.073902708E0,3.089385526E-3,-3.042144592E-2,-4.932243347E-2,5.803198358E-2
3.083848708E0,4.737697346E-3,-2.896093936E-2,-4.483118713E-2,5.358187309E-2
3.093794708E0,1.542824395E-3,-3.092643522E-2,-3.031079650E-2,4.333092529E-2
3.103740708E0,-7.097660992E-3,-3.499680994E-2,-2.133005798E-2,4.159476975E-2
3.113686708E0,-1.283767160E-2,-3.122594970E-2,-2.522254944E-2,4.214312218E-2
3.123632708E0,-1.997600729E-2,-3.634836643E-2,-2.731877625E-2,4.966447568E-2
3.133578708E0,-2.161495443E-2,-2.846785462E-2,-2.971321106E-2,4.648117805E-2
3.143524708E0,-2.074011960E-2,-2.980709542E-2,-3.779698670E-2,5.241400292E-2
3.153470708E0,-1.138356957E-2,-2.486950552E-2,-4.004173279E-2,4.849142528E-2
3.163416708E0,-1.002053792E-2,-2.935718872E-2,-4.767702699E-2,5.688017767E-2
3.173362708E0,-1.936768672E-2,-2.739547527E-2,-3.764963686E-2,5.042930210E-2
3.183308708E0,-1.475710236E-2,-2.238237407E-2,-2.926765323E-2,3.969053117E-2
3.193254708E0,-1.240424674E-2,-2.421804347E-2,-2.013547182E-2,3.384990683E-2
3.203200708E0,-1.545969101E-2,-2.689858072E-2,-2.073364198E-2,3.731513902E-2
3.213147708E0,-8.438327042E-3,-2.527844517E-2,-2.851745546E-2,3.903140299E-2
3.223093708E0,-8.772815187E-3,-3.036462743E-2,-3.300694764E-2,4.569935970E-2
3.233039708E0,-1.859213579E-3,-2.800530332E-2,-2.761756897E-2,3.937618322E-2
3.242985708E0,-6.515369676E-3,-3.377824106E-2,-4.108896911E-2,5.358845952E-2
3.252931708E0,1.358828964E-3,-3.047455508E-2,-4.602811217E-2,5.521894633E-2
3.262877708E0,7.644311702E-3,-2.923039550E-2,-3.614865661E-2,4.711238581E-2
3.272823708E0,5.697371615E-3,-2.544415891E-2,-2.821340024E-2,3.841693922E-2
3.282769708E0,6.525291670E-3,-3.050833189E-2,-2.087806821E-2,3.753973199E-2
3.292715708E0,4.070849810E-3,-3.527755852E-2,-2.162709653E-2,4.157895210E-2
3.302661708E0,-1.637457926E-3,-2.903676130E-2,-1.952853084E-2,3.503110463E-2
3.312607708E0,6.514510866E-3,-2.801598363E-2,-2.461736262E-2,3.785959235E-2
3.322553708E0,-5.538601438E-3,-3.164709541E-2,-2.970560968E-2,4.375657665E-2
3.332499708E0,4.964331770E-3,-3.328620700E-2,-3.419627130E-2,4.797917400E-2
3.342445708E0,-4.708196316E-4,-2.499721237E-2,-4.392720759E-2,5.054386079E-2
3.352391708E0,-9.078916926E-3,-3.558005143E-2,-3.404716730E-2,5.007570662E-2
3.362337708E0,-1.000822222E-2,-2.236590137E-2,-3.045288384E-2,3.908677769E-2
3.372284708E0,-9.476253502E-3,-2.987299536E-2,-1.713058770E-2,3.571627454E-2
3.382230708E0,-1.579205040E-4,-2.703546952E-2,-2.955475152E-2,4.005527291E-2
3.392176708E0,-5.310843252E-3,-2.256787699E-2,-2.057108939E-2,3.099490033E-2
3.402122708E0,-1.589688915E-2,-2.237292716E-2,-3.733330250E-2,4.633610288E-2
3.412068708E0,-6.403559949E-3,-2.094108109E-2,-3.808233082E-2,4.392947050E-2
3.422014708E0,-5.450080074E-3,-1.928354164E-2,-4.242271900E-2,4.691743214E-2
3.431960708E0,-3.737933105E-3,-2.958100003E-2,-3.194275439E-2,4.369607837E-2
3.441906708E0,4.429448582E-3,-2.156793002E-2,-3.134283006E-2,3.830363712E-2
3.451852708E0,-3.613332594E-3,-2.946734478E-2,-3.733154833E-2,4.769722300E-2
3.461798708E0,-7.781218775E-3,-3.322167750E-2,-5.888613939E-2,6.805736282E-2
3.471744708E0,-4.461060092E-4,-3.357790084E-2,-9.190653563E-3,3.481583760E-2
3.481690708E0,1.976742614E-3,-2.773527159E-2,2.785028815E-3,2.794475241E-2
3.491636708E0,2.675548838E-3,-2.884235051E-2,-1.787201464E-2,3.403599054E-2
3.501582708E0,-2.973491885E-3,-3.260531701E-2,-1.742236376E-2,3.708756005E-2
3.511528708E0,1.709698448E-3,-2.974282173E-2,-5.439547777E-2,6.201956558E-2
3.521474708E0,1.177665778E-4,-2.676822435E-2,-5.993454516E-2,6.564069932E-2
3.531420708E0,-3.774615247E-3,-2.853762835E-2,-5.783773363E-2,6.460532009E-2
3.541366708E0,-2.234714460E-3,-3.239172005E-2,-4.766007006E-2,5.766888030E-2
3.551312708E0,-1.163133619E-2,-3.450417289E-2,-3.314143360E-2,4.923596804E-2
3.561259708E0,-4.999387655E-3,-2.725989296E-2,2.785028815E-3,2.785412046E-2
3.571206292E0,-1.443158604E-2,-3.276562208E-2,2.635340095E-3,3.589988417E-2
3.581152292E0,-1.012343978E-2,-2.704094214E-2,-1.682360888E-2,3.341751637E-2
3.591098292E0,-1.453525535E-2,-1.767407726E-2,-3.403781176E-2,4.101486662E-2
3.601044292E0,-7.165114107E-3,-2.188710577E-2,-4.197072923E-2,4.787406784E-2
3.610990292E0,-1.732010144E-2,-1.855662766E-2,-4.825765550E-2,5.452646750E-2
3.620936292E0,-1.117147096E-2,-2.535459601E-2,-5.948489428E-2,6.562095663E-2
3.630882292E0,-2.293734793E-3,-1.596849013E-2,-3.628372729E-2,3.970847217E-2
3.640828292E0,-4.924963564E-3,-2.154931486E-2,-3.089493334E-2,3.798848698E-2
3.650774292E0,-3.437651172E-3,-3.536264007E-2,-1.083664477E-2,3.714521003E-2
3.660720292E0,9.674949199E-4,-4.083155458E-2,-6.345983148E-3,4.133307874E-2
3.670666292E0,2.215711009E-3,-3.450980083E-2,-3.628197312E-2,5.012202413E-2
3.680612292E0,1.130527169E-2,-3.103163028E-2,-3.957454026E-2,5.154527605E-2
3.690558292E0,1.316875191E-2,-3.279257409E-2,-4.481247604E-2,5.706949230E-2
3.700504292E0,7.690623477E-3,-3.280267424E-2,-4.885348678E-2,5.934496017E-2
3.710450292E0,4.064399600E-3,-3.181306954E-2,-4.586088181E-2,5.596258766E-2
3.720397292E0,3.018332720E-3,-1.873421400E-2,-2.969333053E-2,3.523882779E-2
3.730343292E0,5.934028532E-3,-2.294676286E-2,-1.741827071E-2,2.941364946E-2
3.740289292E0,8.380704559E-5,-2.560215251E-2,-1.921453536E-2,3.201055460E-2
3.750235292E0,4.687904650E-3,-3.564422005E-2,-2.490329146E-2,4.373397763E-2
3.760181292E0,-3.142869277E-3,-3.569559789E-2,-1.966418624E-2,4.087460772E-2
3.770127292E0,-7.569357706E-3,-2.374470223E-2,-3.373375654E-2,4.194129696E-2
3.780073292E0,-8.333579656E-3,-3.265039996E-2,-3.283562422E-2,4.704971185E-2
3.790019292E0,-5.391480010E-3,-2.656219223E-2,-4.690636396E-2,5.417402600E-2
3.799965292E0,-8.752313387E-3,-2.105564084E-2,-4.286476851E-2,4.855235710E-2
3.809911292E0,-1.669581980E-2,-2.396791968E-2,-3.762566328E-2,4.763299393E-2
3.819857292E0,-2.267404050E-2,-2.182556839E-2,-1.846550703E-2,3.648893665E-2
3.829803292E0,-7.768446263E-3,-2.010429428E-2,-3.493126631E-2,4.104539891E-2
3.839749292E0,-2.332565786E-2,-2.690020697E-2,-2.759593427E-2,4.504712020E-2
3.849695292E0,-1.633465374E-2,-2.119664096E-2,-1.621842206E-2,3.129146393E-2
3.859641292E0,-1.741133627E-2,-2.498818573E-2,-2.984009564E-2,4.263795685E-2
3.869587292E0,-4.919783296E-3,-2.548057610E-2,-5.154496014E-2,5.770915822E-2
3.879533292E0,-7.095395196E-3,-2.711993437E-2,-4.944873333E-2,5.684199769E-2
3.889479292E0,2.024479648E-3,-2.276645848E-2,-3.837235272E-2,4.466371685E-2
3.899426292E0,-8.121691179E-4,-3.298119705E-2,-2.998919964E-2,4.458442634E-2
3.909372292E0,4.095691340E-3,-3.380209588E-2,-1.262355387E-2,3.631405355E-2
3.919318292E0,8.906917423E-3,-3.412081938E-2,-1.920868814E-2,4.015640912E-2
3.929264292E0,1.949183042E-2,-3.964727414E-2,-2.354907632E-2,5.006392709E-2
3.939210292E0,1.165594932E-2,-3.548126089E-2,-2.759067178E-2,4.643302917E-2
3.949156292E0,1.111293484E-2,-4.083752970E-2,-3.417697549E-2,5.439914344E-2
3.959102292E0,1.368838666E-2,-4.037069349E-2,-4.435522377E-2,6.151870202E-2
3.969048292E0,4.826913066E-3,-4.255646492E-2,-3.956459999E-2,5.830702675E-2
3.978994292E0,1.619088532E-2,-3.351673348E-2,-4.091121376E-2,5.531042941E-2
3.988940292E0,6.036318261E-3,-2.942283285E-2,-2.474658608E-2,3.891701111E-2
3.998886292E0,7.109848782E-4,-3.484105473E-2,-1.621491373E-2,3.843602505E-2
4.008832292E0,8.159423992E-4,-3.266501343E-2,-1.486771524E-2,3.589871614E-2
4.018778292E0,-5.002649305E-3,-2.499292745E-2,-2.100495279E-2,3.302848716E-2
4.028724292E0,-9.878843436E-3,-2.466879071E-2,-4.240985513E-2,5.004734353E-2
4.038670292E0,-1.877888124E-2,-2.635480793E-2,-4.196254313E-2,5.299129464E-2
4.048616292E0,-1.906162153E-2,-2.249655923E-2,-3.238188028E-2,4.379528243E-2
4.058562292E0,-1.967433664E-2,-2.238876946E-2,-4.121585369E-2,5.086337696E-2
4.068508292E0,-2.427652476E-2,-1.403651069E-2,-3.537857831E-2,4.514440264E-2
4.078455292E0,-1.798142153E-2,-2.089744168E-2,-3.373200238E-2,4.356469411E-2
4.088401292E0,-2.127127519E-2,-2.051428003E-2,-2.115873456E-2,3.634549328E-2
4.098347292E0,-1.828993524E-2,-1.671915385E-2,-1.651896894E-2,2.978133932E-2
4.108293292E0,-1.931317057E-3,-1.656951538E-2,-1.097990155E-2,1.997090543E-2
4.118239292E0,2.892909944E-3,-2.709960616E-2,-2.744507611E-2,3.867802716E-2
4.128185292E0,4.374356847E-3,-3.507150812E-2,-4.241628706E-2,5.521129493E-2
4.138131292E0,1.206749280E-2,-3.064390507E-2,-4.017271042E-2,5.194728061E-2
4.148077292E0,1.342773789E-2,-3.385411782E-2,-3.373551071E-2,4.964363122E-2
4.158023292E0,1.664853045E-2,-4.275874661E-2,-3.777710617E-2,5.943562676E-2
4.167969292E0,1.517873229E-2,-4.341394996E-2,-2.295792282E-2,5.140263792E-2
4.177915292E0,1.491406356E-2,-3.573446360E-2,-1.951508224E-2,4.336149923E-2
4.187861292E0,1.836479788E-2,-3.590531194E-2,-1.981445968E-2,4.493406323E-2
4.197807292E0,1.996948399E-2,-3.920026821E-2,-2.505414963E-2,5.062757877E-2
4.207753292E0,8.948231656E-3,-2.641101429E-2,-1.697095871E-2,3.264392693E-2
4.217699292E0,3.188852146E-3,-2.163719212E-2,-2.909632981E-2,3.639963281E-2
4.227645292E0,-2.060558796E-3,-2.560590751E-2,-5.334648728E-2,5.920942584E-2
4.237591292E0,-2.874271944E-5,-2.480866707E-2,-4.855878711E-2,5.452913527E-2
4.247537292E0,-1.370238343E-2,-2.466893232E-2,-3.373843431E-2,4.398401395E-2
4.257483292E0,-1.475367626E-2,-2.936469873E-2,-3.119314134E-2,4.530969611E-2
4.267430292E0,-2.428382465E-2,-2.473577330E-2,-1.562609911E-2,3.802285620E-2
4.277376292E0,-2.338572887E-2,-2.511724474E-2,-1.757263720E-2,3.855600960E-2
4.287322292E0,-1.984001384E-2,-1.881623033E-2,-9.939097166E-3,2.909402560E-2
4.297268292E0,-2.497302865E-2,-2.390885824E-2,-2.835139453E-2,4.471115335E-2
4.307214292E0,-1.950971925E-2,-2.225754515E-2,-3.793205738E-2,4.811307970E-2
4.317160292E0,-3.028407290E-2,-2.776775105E-2,-3.104813039E-2,5.149912106E-2
4.327106292E0,-1.529880121E-2,-2.419560478E-2,-3.898221731E-2,4.836417968E-2
4.337052292E0,-1.197317904E-2,-2.461836761E-2,-3.898221731E-2,4.763438156E-2
4.346998292E0,-2.025100915E-3,-2.742757101E-2,-2.775790215E-2,3.907523278E-2
4.356944292E0,-1.569151483E-2,-2.593986119E-2,-2.641187310E-2,4.020804742E-2
4.366890292E0,-5.781178661E-3,-2.715964976E-2,-2.072370172E-2,3.464881548E-2
4.376836292E0,-3.812877964E-3,-3.309240835E-2,-2.192121148E-2,3.987712429E-2
4.386782292E0,6.742296461E-3,-2.003747157E-2,-2.012494683E-2,2.918856477E-2
4.396728292E0,9.662788818E-3,-3.260863805E-2,-3.599078178E-2,4.951796781E-2
4.406674292E0,1.085367478E-2,-2.453689031E-2,-3.479327202E-2,4.393669332E-2
4.416620292E0,6.048131464E-3,-2.909200835E-2,-2.820755303E-2,4.097061010E-2
4.426566292E0,1.211154792E-2,-3.013676418E-2,-3.704035699E-2,4.926359908E-2
4.436512292E0,1.084183417E-2,-3.327201380E-2,-3.180183649E-2,4.728561171E-2
4.446459292E0,8.465050645E-3,-3.317397244E-2,-2.147389948E-2,4.041408033E-2
4.456405292E0,3.198838094E-3,-2.939955819E-2,-1.638389826E-2,3.380826392E-2
4.466351292E0,6.169050056E-3,-3.360731050E-2,-3.120308161E-2,4.627246265E-2
4.476297292E0,-2.782772155E-3,-2.524735899E-2,-4.213269711E-2,4.919692188E-2
4.486243292E0,-1.424802002E-3,-2.440661618E-2,-2.851277769E-2,3.755917285E-2
4.496189292E0,-1.761035174E-3,-2.697458995E-2,-2.656799376E-2,3.790234874E-2
4.506135292E0,-1.076029292E-2,-1.700842200E-2,-4.108896911E-2,4.575340103E-2
4.516081292E0,-1.516631610E-2,-2.384324608E-2,-4.093986511E-2,4.974525187E-2
4.526027292E0,-1.962978817E-2,-2.053575941E-2,-2.582130432E-2,3.838991736E-2
4.535973292E0,-1.707277335E-2,-2.016954099E-2,-2.163060486E-2,3.414927584E-2
4.545919292E0,-2.349435917E-2,-2.304909827E-2,-2.207908630E-2,3.963246013E-2
4.555865292E0,-2.587849740E-2,-2.286904971E-2,-3.495231628E-2,4.913608120E-2
4.565810542E0,-1.840728155E-2,-1.795350564E-2,-3.061251283E-2,3.997852324E-2
4.575756542E0,-1.730083304E-2,-2.481272814E-2,-2.432675600E-2,3.881728171E-2
4.585702542E0,-8.030885747E-3,-2.508584336E-2,-3.600364566E-2,4.461005676E-2
4.595648542E0,-2.939395308E-3,-2.634498644E-2,-3.031605899E-2,4.027110364E-2
4.605594542E0,-1.267513728E-2,-2.571760761E-2,-2.807131290E-2,4.012546640E-2
4.615540542E0,1.823289748E-3,-2.491353780E-2,-2.402854800E-2,3.466092714E-2
4.625486542E0,2.898994703E-3,-2.819310401E-2,-2.911913395E-2,4.063470495E-2
4.635433542E0,3.538954183E-3,-2.894699740E-2,-2.672469914E-2,3.955581372E-2
4.645379542E0,1.352339468E-2,-3.233037454E-2,-3.361154974E-2,4.855792002E-2
4.655325542E0,8.572785594E-3,-3.202690404E-2,-3.121653020E-2,4.553775350E-2
4.665271542E0,3.032292947E-3,-2.372018503E-2,-2.672762275E-2,3.586373930E-2
4.675217542E0,1.600956682E-2,-2.848663880E-2,-3.301513374E-2,4.645205998E-2
4.685163542E0,1.156078588E-2,-3.194476894E-2,-3.556101143E-2,4.918033720E-2
4.695109542E0,1.242897863E-2,-2.394239293E-2,-3.286836863E-2,4.252113998E-2
4.705055542E0,6.773579065E-3,-2.101978553E-2,-2.837946117E-2,3.595979106E-2
4.715001542E0,1.388902838E-2,-3.481476510E-2,-1.266273022E-2,3.956409629E-2
4.724947542E0,9.381400701E-4,-3.027100802E-2,-2.104646802E-2,3.688045349E-2
4.734893542E0,-1.230746618E-2,-3.098048085E-2,-3.152526319E-2,4.588143564E-2
4.744839542E0,-1.644265364E-2,-2.818254248E-2,-5.457908034E-2,6.358846256E-2
4.754785542E0,-1.546281561E-2,-2.637372916E-2,-5.428028762E-2,6.229784812E-2
4.764731542E0,-1.458121081E-2,-1.153433180E-2,-2.913316727E-2,3.456000512E-2
4.774677542E0,-1.011996799E-2,-1.457959826E-2,-2.688842118E-2,3.221747400E-2
4.784623542E0,-2.216571646E-2,-1.291598318E-2,-3.197725296E-2,4.099617439E-2
4.794569542E0,-1.625230850E-2,-1.504654868E-2,-4.305363357E-2,4.841643855E-2
4.804515542E0,-1.941434568E-2,-2.428476111E-2,-9.521021247E-3,3.251640026E-2
4.814461542E0,-1.943525861E-2,-3.029304929E-2,-1.610732496E-2,3.943151062E-2
4.824408542E0,-2.036388782E-2,-3.456699391E-2,-7.134480178E-2,8.185136368E-2
4.834354542E0,-1.452070126E-2,-2.729112532E-2,-1.221892655E-2,3.324091533E-2
4.844300542E0,-1.108305009E-2,-2.314187257E-2,3.946870565E-3,2.596070208E-2
4.854246542E0,-6.274336483E-3,-1.560068199E-2,6.639513373E-3,1.807848763E-2
4.864192542E0,6.009941837E-3,-2.069609646E-2,-5.892648518E-2,6.274375240E-2
4.874138542E0,-4.141290486E-3,-2.239521967E-2,-4.845119834E-2,5.353704112E-2
4.884084542E0,1.559391201E-2,-1.813868879E-2,-2.375606775E-2,3.371250329E-2
4.894030542E0,3.248311020E-3,-1.758522242E-2,2.159435213E-2,2.803761074E-2
4.903976542E0,-8.382075001E-4,-2.778143262E-2,-4.412776709E-2,5.215141818E-2
4.913922542E0,1.153589867E-2,-2.852036536E-2,-2.916415751E-2,4.239146473E-2
4.923868542E0,-1.185871979E-2,-3.167411137E-2,-1.026735985E-1,1.081006309E-1
4.933814542E0,1.853650502E-2,-2.431675178E-2,7.680200815E-2,8.266471370E-2
4.943760542E0,3.286645914E-2,-2.370954128E-2,1.496185541E-2,4.319957872E-2
4.953706542E0,1.844324193E-2,-1.923247900E-2,-8.593945205E-2,8.997572362E-2
4.963652542E0,1.664164170E-2,-6.123953406E-4,-7.426840961E-2,7.611252152E-2
4.973598542E0,1.196682750E-1,1.772157675E-2,-2.368999422E-2,1.232711083E-1
4.983544542E0,6.160691462E-1,3.880823341E-1,8.526994586E-2,7.330893906E-1
4.993490542E0,9.553379738E-1,4.345417150E-1,-6.550343335E-2,1.051564475E0
5.003436542E0,2.300935821E-1,4.864619841E-2,4.167532790E-1,4.785319265E-1
5.013383542E0,-3.021930950E-1,-1.341168362E-1,2.918128985E-1,4.409793194E-1
5.023329542E0,-2.802970631E-1,-5.302752167E-1,1.120871480E0,1.271263593E0
5.033275542E0,3.815852735E-1,-1.138233343E-1,1.241819966E-1,4.171141818E-1
5.043221542E0,3.624175524E-2,-4.245106703E-1,-2.077375388E-1,4.740017501E-1
5.053167542E0,-4.044893289E-1,-6.287479014E-3,-2.590006632E-1,4.803462221E-1
5.063113542E0,-7.138239938E-1,-1.510557997E-1,-1.222535849E-2,7.297342038E-1
5.073059542E0,-6.783311755E-1,-2.800282374E-1,1.622894704E-2,7.340384024E-1
5.083005542E0,-3.357920001E-1,-4.963683826E-1,6.573381364E-2,6.028754207E-1
5.092951542E0,2.144277220E-1,-3.509530629E-1,1.789598823E-1,4.485241797E-1
5.102897542E0,4.184033998E-1,-2.249701970E-1,4.725123274E-1,6.700305172E-1
5.112843542E0,4.652428497E-1,-1.704232032E-1,8.658703119E-1,9.976103319E-1
5.122789542E0,-2.887165237E-1,1.377135043E-1,7.043684614E-1,7.736001355E-1
5.132735542E0,-7.616074401E-1,1.034679702E-1,4.367911023E-1,8.840463680E-1
5.142681542E0,-9.008049403E-1,-1.469220375E-1,1.221658766E-1,9.208475048E-1
5.152627542E0,-9.661299605E-2,-1.357948410E-1,-6.341083181E-1,6.556429432E-1
5.162573542E0,2.394951192E-1,-2.253190747E-2,-1.153684300E0,1.178496102E0
5.172519542E0,6.889924038E-1,1.556181628E0,-4.251013488E-1,1.754173010E0
5.182465542E0,-7.110421079E-1,2.052724441E-1,4.363402820E-1,8.591335735E-1
5.192411542E0,-3.368476418E-1,-1.397061641E0,1.210247340E0,1.878815102E0
5.202358542E0,-5.501389392E-1,-1.712896071E0,1.240683267E0,2.185397166E0
5.212304542E0,-1.807614825E-1,-9.993216801E-1,6.513231057E-1,1.206457758E0
5.222250542E0,-2.056748604E-1,5.006759715E-2,-9.408696234E-2,2.316490211E-1
5.232196542E0,-3.385836802E-1,5.727733282E-1,-6.596127033E-1,9.369082732E-1
5.242142542E0,-4.994530812E-2,7.821039775E-1,-6.220455122E-1,1.000560735E0
5.252088542E0,6.482498091E-1,1.605426148E0,5.681008548E-1,1.822185367E0
5.262034542E0,4.230649097E-1,1.055672905E0,1.583731223E0,1.949777882E0
5.271980542E0,1.835117642E0,2.354647285E0,2.388405746E0,3.823153489E0
5.281926542E0,3.199072495E0,3.052174065E0,2.143083474E0,4.913515862E0
5.291872542E0,5.683839769E0,3.902440497E0,1.105393900E0,6.982619282E0
5.301818542E0,1.848482185E0,2.106400090E0,-1.798721648E0,3.330046140E0
5.311764542E0,-5.945842393E0,-1.973713318E0,-2.811781581E0,6.866928111E0
5.321710542E0,-5.803467954E0,-3.551342387E0,-6.869648087E-1,6.838435033E0
5.331656542E0,-3.859460539E-1,-1.748456644E0,1.151550651E-2,1.790583033E0
5.341602542E0,-5.399637607E-1,-1.036072673E0,-2.650435851E0,2.896518194E0
5.351548542E0,-4.294160677E0,-2.468190126E0,-2.286211034E0,5.455138798E0
5.361494542E0,-2.103722650E0,-2.290068004E0,2.041643053E-1,3.116367037E0
5.371440542E0,7.973459145E-1,-1.356295877E0,8.187850231E-1,1.773614368E0
5.381386542E0,2.407988656E-1,-3.344269311E-1,1.064980284E0,1.141931903E0
5.391333542E0,-4.492526883E-1,3.759298465E-1,7.055303031E-1,9.170192125E-1
5.401279542E0,3.657228738E-1,7.159108651E-1,2.620575875E-1,8.455505699E-1
5.411225542E0,8.702481222E-1,1.082009861E0,-4.211614949E-1,1.451018311E0
5.421171542E0,1.800904414E-1,9.407709517E-1,-5.926696855E-1,1.126383552E0
5.431117542E0,1.730188188E-1,3.597237402E-1,-2.858329511E-1,4.909553512E-1
5.441063542E0,2.883811677E-1,-3.327911360E-1,-1.150983471E-1,4.551497199E-1
5.451009542E0,4.625556886E-1,-5.075527905E-1,4.391194636E-1,8.151033698E-1
5.460955542E0,3.569576052E-1,-6.833021128E-1,1.120622973E0,1.360189824E0
5.470901542E0,1.465163139E-1,-1.093455932E0,1.081445459E0,1.544874488E0
5.480847542E0,-2.943847963E-1,-1.462142321E0,1.833809620E-1,1.502714594E0
5.490793542E0,-4.907720125E-1,-1.054553602E0,-3.406962061E-1,1.212029031E0
5.500739542E0,-5.157595038E-1,-1.632570019E-1,2.464385051E-1,5.944683770E-1
5.510685542E0,-1.650569576E-1,4.008960687E-1,1.162150483E0,1.240385103E0
5.520631542E0,3.821528189E-1,2.768813390E-1,1.481786773E0,1.555119318E0
5.530577542E0,2.858329511E-1,-7.253813079E-1,1.858700048E0,2.015600254E0
5.540523542E0,1.889955316E-1,-1.367258237E0,1.856277546E0,2.313197079E0
5.550469542E0,1.367328988E-1,-1.031285850E0,1.434536008E0,1.772044003E0
5.560415542E0,2.235435860E-1,-8.377130449E-2,9.315526700E-1,9.616546902E-1
5.570361917E0,3.045727108E-1,4.296449277E-1,1.089464330E0,1.210079265E0
5.580307917E0,2.227515075E-1,1.897743807E-1,1.083776159E0,1.122587775E0
5.590253917E0,1.666849686E-1,-1.990516461E-1,1.168733279E0,1.197223000E0
5.600199917E0,4.166753648E-1,-3.197585694E-1,9.920935714E-1,1.122547797E0
5.610146917E0,1.403424581E0,1.054095564E-1,5.122587758E-1,1.497705172E0
5.620092917E0,9.181257087E-1,2.138735704E-1,9.909720755E-1,1.367743534E0
5.630038917E0,5.475093001E-1,-3.895860552E-1,1.331222139E0,1.491206261E0
5.639984917E0,1.270328943E0,-5.127993875E-1,9.253207076E-1,1.653153727E0
5.649930917E0,1.337613438E0,-5.417006761E-3,1.050333009E0,1.700717050E0
5.659876917E0,1.222138238E0,7.090698420E-1,1.254435918E0,1.889447376E0
5.669822917E0,1.249471925E0,7.572382544E-1,7.584721631E-1,1.646168244E0
5.679768917E0,1.076735526E0,5.371671105E-1,8.460774869E-1,1.470970772E0
5.689714917E0,1.146864692E0,1.080197078E-1,6.230588347E-1,1.309644681E0
5.699660917E0,9.435195816E-1,5.014506362E-2,1.047329879E-1,9.506380631E-1
5.709606917E0,5.031417972E-1,5.134974354E-1,1.217401993E-1,7.291446772E-1
5.719552917E0,5.627699482E-1,6.889827559E-1,2.895798469E-1,9.355553112E-1
5.729498917E0,6.023684621E-1,-6.189537969E-1,-6.552337235E-1,1.084104607E0
5.739444917E0,-5.137246728E-1,-8.085195051E-1,-9.889161944E-2,9.630142169E-1
5.749390917E0,-1.117357303E0,-6.513505876E-3,2.678703046E-1,1.149036234E0
5.759336917E0,-8.959092128E-1,2.820764074E-1,-7.830059105E-1,1.222832234E0
5.769282917E0,-2.300265402E-1,-3.790786453E-1,-7.444967330E-1,8.665380625E-1
5.779228917E0,2.761476231E-1,-1.180976032E0,-7.139830381E-1,1.407385405E0
5.789174917E0,2.063805755E0,-2.214417751E0,-8.762637377E-1,3.151313743E0
5.799120917E0,3.010098671E0,-9.105091256E-1,5.404289067E-2,3.145256986E0
5.809066917E0,2.866243132E0,7.861780981E-1,-2.314877594E-1,2.981109236E0
5.819012917E0,1.546728873E0,2.323322142E0,1.011162511E0,2.968610047E0
5.828959917E0,-1.089256169E0,3.270450041E0,8.915202928E-1,3.560495879E0
5.838905917E0,-3.210651151E0,2.587517764E0,-2.482201517E-2,4.123608265E0
5.848851917E0,-1.332384565E0,1.105090868E0,-5.792228436E-1,1.825369431E0
5.858797917E0,2.038489065E0,-2.118594604E-1,-2.562068051E0,3.280932001E0
5.868743917E0,4.045937601E0,-9.784979180E-1,-5.803955027E0,7.142335977E0
5.878689917E0,4.785494606E0,-4.751579002E-1,-5.543311297E0,7.338598898E0
5.888635917E0,4.172575428E0,-2.517914117E-1,-3.666785427E0,5.560494582E0
5.898581917E0,2.909734722E0,-2.204859307E-1,-3.179666755E0,4.315721362E0
5.908527917E0,1.067087620E0,-4.314030392E-1,-1.732897203E0,2.080316632E0
5.918473917E0,-2.090079049E0,-1.525166681E0,5.545505172E-1,2.646146275E0
5.928419917E0,-3.809312478E0,-1.469223007E0,1.950050513E0,4.524618747E0
5.938365917E0,-2.334634166E0,8.805923583E-1,1.021614994E0,2.696230106E0
5.948311917E0,-5.484933865E-1,2.552783257E0,-1.013398486E0,2.800807713E0
5.958257917E0,-6.062539369E-1,2.376580775E0,-8.296824789E-1,2.589218614E0
5.968203917E0,-2.943663776E-1,1.517138161E0,-2.221766531E-1,1.561320669E0
5.978149917E0,2.191214830E-1,1.173858509E0,-3.787177259E-1,1.252751029E0
5.988095917E0,6.130840695E-1,1.771601093E0,-3.071302646E-1,1.899676685E0
5.998041917E0,5.189240170E-1,2.043052817E0,-6.989206105E-1,2.220773957E0
6.007987917E0,2.676966423E-1,1.467546756E0,-1.906955949E0,2.421122873E0
6.017933917E0,1.347747248E0,6.313075749E-1,-1.825974936E0,2.355664739E0
6.027879917E0,1.374088369E0,-6.848370800E-1,-8.518843567E-1,1.755798289E0
6.037826917E0,1.354383253E0,-1.555308785E0,-4.388411361E-1,2.108535263E0
6.047772917E0,1.165187819E0,-2.270513160E0,1.455594170E-1,2.556184698E0
6.057718917E0,8.791259497E-1,-2.360076424E0,1.709144059E0,3.043681419E0
6.067664917E0,-4.485428363E-2,-2.568618686E0,5.014414269E0,5.634195978E0
6.077610917E0,-6.048231232E-1,-2.587557233E0,5.169682987E0,5.812648762E0
6.087556917E0,2.059067756E-1,-1.316076535E0,1.386342087E0,1.922602254E0
6.097502917E0,-1.737780797E-1,-4.708053790E-2,-4.415992677E-2,1.853793332E-1
6.107448917E0,-1.270809584E0,1.360764027E0,-3.049065685E-1,1.886691218E0
6.117394917E0,-1.215216012E0,2.741069156E0,-2.342850673E-1,3.007507201E0
6.127340917E0,-9.090926376E-1,3.430816947E0,-2.916550237E-1,3.561181966E0
6.137286917E0,-1.093184913E0,2.387613448E0,-1.023432308E-1,2.627969819E0
6.147232917E0,-1.375339966E0,1.004597330E0,-8.014661551E-2,1.705051113E0
6.157178917E0,-1.067580833E0,2.715394324E-1,-1.018783187E0,1.500460490E0
6.167124917E0,-3.753628859E-1,-3.273681358E-1,-1.065336964E0,1.176014473E0
6.177070917E0,3.805967286E-1,-1.048090309E0,2.796430886E-1,1.149585762E0
6.187016917E0,8.917303540E-1,-1.260764506E0,9.459368205E-1,1.810940814E0
6.196962917E0,1.121807911E0,-1.297696543E0,6.332446843E-1,1.828515282E0
6.206908917E0,8.487996581E-1,-1.306989523E0,2.097068810E-1,1.572469220E0
6.216854917E0,1.757319269E-1,-1.050444691E0,1.813788754E-1,1.080376811E0
6.226801917E0,-7.845054290E-1,-5.436201708E-1,-3.262103140E-1,1.008654959E0
6.236747917E0,-5.321628441E-1,6.270745562E-1,-1.420668166E0,1.641559573E0
6.246693917E0,-9.185461966E-1,1.711441284E0,-6.280745763E-1,2.041380919E0
6.256639917E0,3.041005298E-2,2.201734848E0,2.631363988E-1,2.217611750E0
6.266585917E0,2.386984726E-1,1.709179434E0,5.481735438E-1,1.810736186E0
6.276531917E0,-1.496137302E-1,9.067849609E-1,8.271155512E-1,1.236431708E0
6.286477917E0,2.633366659E-3,1.181155103E-1,3.677243757E-1,3.862375239E-1
6.296423917E0,2.104226533E-1,-3.263932588E-1,-2.477038425E-1,4.606163762E-1
6.306369917E0,8.103873982E-1,-6.042427871E-1,-3.802263075E-1,1.080004225E0
6.316315917E0,1.065529776E0,-8.872038782E-1,9.594228387E-2,1.389852275E0
6.326261917E0,1.649292873E-1,-1.315697197E0,8.871910143E-1,1.595421160E0
6.336207917E0,6.867816447E-1,-1.022765872E0,-6.466324693E-1,1.391349204E0
6.346153917E0,3.393829215E-1,-1.108611476E0,-1.172139866E0,1.648669779E0
6.356099917E0,-3.290464329E-1,-1.187107861E0,-1.388697345E0,1.856334277E0
6.366045917E0,-2.807620995E-1,-1.158727962E0,-1.269789537E0,1.741793132E0
6.375991917E0,-3.445635545E-1,-1.113522699E0,-9.234630471E-1,1.487091404E0
6.385937917E0,-6.574118114E-1,-7.517383634E-1,-6.548875684E-1,1.194227191E0
6.395883917E0,-1.457027615E0,-1.487631065E-1,-7.118148905E-1,1.628416523E0
6.405829917E0,-1.412392163E0,6.931192955E-1,-9.293582100E-1,1.827285600E0
6.415775917E0,-1.074620881E0,1.385589404E0,-7.394640344E-1,1.903017365E0
6.425721917E0,-9.407952176E-1,1.340423171E0,3.373165154E-1,1.672008478E0
6.435667917E0,-4.338739264E-1,4.172836214E-1,5.756829393E-1,8.329364029E-1
6.445614917E0,-1.371055126E-2,-4.803221610E-1,-3.738434869E-1,6.088154977E-1
6.455560917E0,-5.615208368E-1,-1.092970905E0,-5.859652680E-1,1.361339908E0
6.465506917E0,-3.370731251E-1,-8.698816480E-1,3.742978156E-2,9.336559118E-1
6.475452917E0,-3.358482796E-1,-3.502194200E-1,3.235194254E-1,5.831916732E-1
6.485398917E0,-1.073113907E0,-1.752341826E-1,3.467925131E-1,1.141291165E0
6.495344917E0,-1.146292103E0,-1.679216547E-1,3.760385317E-1,1.218026373E0
6.505290917E0,-2.051852292E-1,-6.811034136E-1,3.839188242E-1,8.083294513E-1
6.515236917E0,2.559911013E-1,-9.484926385E-1,4.557735032E-1,1.083004716E0
6.525182917E0,1.193226680E-1,-6.976106881E-1,3.501119775E-1,7.896055775E-1
6.535128917E0,3.062648767E-1,-4.360315490E-1,3.583711696E-1,6.421460750E-1
6.545074917E0,1.294611552E-1,-3.623101464E-1,3.085622478E-1,4.931931606E-1
6.555020917E0,2.165997250E-1,-2.937540279E-1,-2.088040709E-3,3.649811361E-1
6.564966917E0,2.063065790E-1,-6.612984556E-1,-5.327807486E-2,6.947780978E-1
6.574912417E0,-1.133680098E-1,-7.814859268E-1,-8.509394467E-2,7.942377093E-1
6.584858417E0,-4.489916101E-1,-5.648096032E-1,-1.392637199E-1,7.348453834E-1
6.594804417E0,-7.995642020E-1,-4.069352192E-1,-2.534750444E-1,9.322814939E-1
6.604750417E0,-7.448143829E-1,-2.115605946E-1,-3.656503683E-1,8.562748052E-1
6.614696417E0,-6.216829848E-1,-2.995142663E-1,-7.559865117E-2,6.942000327E-1
6.624642417E0,-1.799702811E-1,-3.834350402E-1,9.368876696E-2,4.338079266E-1
6.634588417E0,1.461365372E-2,-1.663642488E-1,3.103994429E-2,1.698649473E-1
6.644534417E0,1.617353006E-1,-1.785740391E-1,-3.972598314E-2,2.441826133E-1
6.654481417E0,2.233496046E-1,-3.066420221E-1,-6.690442622E-2,3.852149762E-1
6.664427417E0,2.002975416E-1,-4.311240540E-1,-8.184523165E-2,4.823750585E-1
6.674373417E0,8.809488192E-2,3.146850134E-1,4.154370707E-1,5.285596708E-1
6.684319417E0,3.057452785E-1,-2.727283541E-1,-3.160484380E-1,5.174432777E-1
6.694265417E0,-3.628109604E-2,6.160293851E-2,-3.042253679E-1,3.125129028E-1
6.704211417E0,5.862440340E-2,3.037030654E-1,-3.393835062E-1,4.591879102E-1
6.714157417E0,4.224187924E-1,2.917628866E-1,-2.381337047E-1,5.659248002E-1
6.724103417E0,5.133181451E-1,-4.307897760E-2,1.292795992E-1,5.310974781E-1
6.734049417E0,4.077094636E-1,4.031098976E-1,4.613985246E-1,7.359437443E-1
6.743995417E0,3.819024850E-1,5.302033142E-2,6.329979318E-1,7.411794960E-1
6.753941417E0,2.964119529E-1,-1.287697585E-1,9.618067485E-1,1.014649653E0
6.763887417E0,1.622392575E-1,-2.573690159E-1,1.053824966E0,1.096862546E0
6.773833417E0,1.922139122E-1,1.330168562E-1,8.827804595E-1,9.132037077E-1
6.783779417E0,3.756247681E-1,-3.013127236E-1,8.151702744E-1,9.467765840E-1
6.793725417E0,2.864542177E-1,-1.364042122E-1,7.386688131E-1,8.039239662E-1
6.803671417E0,3.524241127E-1,-1.151174510E-1,6.897907680E-1,7.831130738E-1
6.813617417E0,3.964975738E-1,-2.216560682E-1,6.018240863E-1,7.540119160E-1
6.823563417E0,4.355101966E-1,-2.162320996E-1,6.693676132E-1,8.273321303E-1
6.833509417E0,4.002234196E-1,-3.328848193E-2,6.599068183E-1,7.725049627E-1
6.843455417E0,3.564931901E-1,-4.991060855E-2,6.288592726E-1,7.245981287E-1
6.853401417E0,3.066184140E-1,-7.886278622E-2,6.293983859E-1,7.045399343E-1
6.863347417E0,3.010371005E-1,-4.836926423E-3,6.729981494E-1,7.372741965E-1
6.873294417E0,1.692962620E-1,-5.587604759E-2,6.635753614E-1,6.871067001E-1
6.883240417E0,1.002296086E-1,-4.594067803E-2,6.782501185E-1,6.871533625E-1
6.893186417E0,2.006615308E-1,-1.533859883E-1,7.736550432E-1,8.138393191E-1
6.903132417E0,1.100144123E-1,-3.016226626E-1,8.200760883E-1,8.806839343E-1
6.913078417E0,1.162769996E-2,-2.839728421E-1,8.609808701E-1,9.066773611E-1
6.923024417E0,-2.038880244E-2,-2.425176546E-1,7.920176393E-1,8.285665073E-1
6.932970417E0,-7.701433517E-2,-1.608358161E-1,6.424306601E-1,6.667207216E-1
6.942916417E0,-1.411650152E-1,-1.061566387E-1,4.133478606E-1,4.495033340E-1
6.952862417E0,-2.555954640E-1,-4.443463627E-2,1.844796538E-1,3.183335056E-1
6.962808417E0,-2.380400761E-1,-1.074791327E-4,1.860513854E-1,3.021228350E-1
6.972754417E0,-2.242288797E-1,4.803195298E-2,2.387751442E-1,3.310577419E-1
6.982700417E0,-1.869897904E-1,1.719688050E-2,4.252071834E-1,4.648247661E-1
6.992646417E0,-1.167354213E-1,-3.380977035E-2,5.954629004E-1,6.077386979E-1
7.002592417E0,-1.911637522E-2,-1.033590384E-2,6.515599179E-1,6.519222295E-1
7.012538417E0,3.004781798E-2,-1.357643075E-1,6.453840888E-1,6.601934872E-1
7.022484417E0,1.559694343E-1,-2.946113028E-1,6.364711779E-1,7.184830162E-1
7.032430417E0,2.019572738E-1,-4.929792633E-1,7.799460626E-1,9.445269477E-1
7.042376417E0,2.229688778E-1,-7.235967377E-1,1.036974460E0,1.283987301E0
7.052322417E0,1.607200778E-1,-8.915540604E-1,1.290634276E0,1.576843816E0
7.062268417E0,5.212222651E-2,-1.057032018E0,1.590766593E0,1.910646950E0
7.072214417E0,9.009287551E-2,-1.180912005E0,1.855619735E0,2.201361963E0
7.082161417E0,7.711081423E-2,-1.337746024E0,2.016343905E0,2.420981876E0
7.092107417E0,1.701804341E-1,-1.495723465E0,1.989592894E0,2.494920830E0
7.102053417E0,2.203715446E-1,-1.730620590E0,1.986205602E0,2.643600563E0
7.111999417E0,2.305235535E-1,-1.980674136E0,1.983859699E0,2.812811840E0
7.121945417E0,1.440443303E-1,-2.096919999E0,1.836089450E0,2.790886368E0
7.131891417E0,4.155484602E-2,-2.288501388E0,1.517679321E0,2.746327718E0
7.141837417E0,1.486573450E-1,-2.413142099E0,1.406807342E0,2.797223747E0
7.151783417E0,1.159317946E-1,-2.161934020E0,9.054957229E-1,2.346768287E0
7.161729417E0,1.941647626E-1,-2.053789474E0,7.038872355E-1,2.179726680E0
7.171675417E0,3.201076481E-1,-2.094604794E0,7.992512298E-1,2.264650233E0
7.181621417E0,4.177651396E-1,-1.951246269E0,4.972080427E-1,2.056478921E0
7.191567417E0,7.046625763E-1,-2.047062253E0,4.013604838E-1,2.201840923E0
7.201513417E0,1.064478593E0,-2.456277886E0,5.511567932E-1,2.733164748E0
7.211459417E0,1.038109404E0,-2.979875582E0,6.340872681E-1,3.218601604E0
7.221405417E0,4.875732931E-1,-3.173810184E0,4.532445824E-1,3.242873641E0
7.231351417E0,2.005100879E-1,-2.762321153E0,-1.557335722E-1,2.773963842E0
7.241297417E0,-5.827852598E-1,-2.671897472E0,-5.575635874E-1,2.790976874E0
7.251243417E0,-5.961913173E-1,-2.798050565E0,-2.141007712E-1,2.868862177E0
7.261189417E0,-5.856578507E-1,-2.233331155E0,-3.567339492E-1,2.336241057E0
7.271135417E0,-8.557104823E-1,-1.867171494E0,-5.981380016E-1,2.139237922E0
7.281081417E0,-8.279297760E-1,-1.761053300E0,-4.773362803E-1,2.003653255E0
7.291027417E0,-8.151741482E-1,-9.500532603E-1,-8.741297963E-1,1.526831029E0
7.300974417E0,-8.635861702E-1,-5.320603716E-1,-1.649857970E0,1.936724202E0
7.310920417E0,-4.232091898E-1,-7.852395469E-1,-1.739226814E0,1.954639884E0
7.320866417E0,3.961079299E-2,-6.700657707E-1,-1.459353345E0,1.606321679E0
7.330812417E0,-8.759794168E-2,-5.536991626E-1,-1.835147463E0,1.918859654E0
7.340758417E0,-2.070178927E-1,-5.089708865E-2,-2.523115654E0,2.532105749E0
7.350704417E0,5.506542251E-3,2.218375146E-2,-2.813057443E0,2.813150302E0
7.360650417E0,5.134622790E-2,-2.913036060E-1,-3.230766742E0,3.244279268E0
7.370596417E0,-2.438087198E-1,-2.747080386E-1,-3.445955973E0,3.465475402E0
7.380542417E0,-1.147127232E-1,-3.213460153E-1,-3.509012054E0,3.525562064E0
7.390488417E0,-6.072764687E-2,-2.559285361E-1,-3.731758226E0,3.741016803E0
7.400434417E0,-6.562944084E-2,-4.437188834E-1,-3.704121361E0,3.731180608E0
7.410380417E0,1.379855917E-1,-4.169585162E-1,-3.396947242E0,3.425221890E0
7.420326417E0,4.318265238E-1,-2.285056794E-1,-3.349259983E0,3.384705515E0
7.430272417E0,6.639696099E-1,-1.016515052E-1,-3.190208116E0,3.260155900E0
7.440218417E0,7.792456392E-1,-4.217304289E-2,-2.894196916E0,2.997562030E0
7.450164417E0,1.034484423E0,5.293016553E-2,-2.805275092E0,2.990405987E0
7.460110417E0,1.032636411E0,1.545676374E-1,-2.999086025E0,3.175648925E0
7.470056417E0,9.491830485E-1,1.852520710E-1,-3.067608083E0,3.216439979E0
7.480002417E0,7.220913720E-1,2.615366006E-1,-3.101938256E0,3.195596703E0
7.489948417E0,6.272866639E-1,1.930651206E-1,-2.868398708E0,2.942528479E0
7.499894417E0,4.542325426E-1,-7.208447456E-2,-2.745651911E0,2.783905133E0
7.509840417E0,4.424016519E-1,-2.692362142E-1,-2.744997023E0,2.793423709E0
7.519786417E0,5.156530114E-1,-5.489699346E-1,-2.324746524E0,2.443708743E0
7.529733417E0,4.121760055E-1,-9.330197364E-1,-1.821040471E0,2.087247777E0
7.539679417E0,2.019280377E-1,-9.712885934E-1,-1.614739593E0,1.895141266E0
7.549625417E0,-1.032162932E-1,-6.389375335E-1,-1.455735673E0,1.593129349E0
7.559571417E0,-2.874480434E-1,-5.601562428E-1,-1.581625641E0,1.702334004E0
7.569521958E0,-4.602301779E-1,-5.000269854E-1,-1.893367605E0,2.011636073E0
7.579467958E0,-5.517738207E-1,-9.172410250E-2,-2.011301851E0,2.087630905E0
7.589413958E0,-5.373030948E-1,-3.795568013E-1,-2.033230079E0,2.137003167E0
7.599359958E0,-4.678269535E-1,-7.351388490E-1,-1.816580215E0,2.014759256E0
7.609305958E0,-1.501876983E-1,-9.864679652E-1,-1.500748708E0,1.802199233E0
7.619251958E0,3.749805145E-1,-1.159537362E0,-1.252347293E0,1.747429834E0
7.629197958E0,6.199477505E-1,-1.412226541E0,-1.155788713E0,1.927321085E0
7.639143958E0,7.242416856E-1,-1.578540065E0,-9.537077701E-1,1.981381656E0
7.649089958E0,8.393413483E-1,-1.764035965E0,-7.499200255E-1,2.092533591E0
7.659035958E0,7.674138714E-1,-2.047279184E0,-5.758659571E-1,2.260950621E0
7.668981958E0,6.063663496E-1,-2.140876442E0,-3.413019776E-1,2.251115086E0
7.678927958E0,3.170497736E-1,-2.165197059E0,-1.533005458E-1,2.193649908E0
7.688873958E0,8.533733502E-2,-2.324658816E0,4.415676928E-1,2.367763311E0
7.698819958E0,2.607026415E-1,-2.423676150E0,1.358611082E0,2.790698124E0
7.708765958E0,7.628298005E-1,-1.772743931E0,1.878136777E0,2.692940420E0
7.718711958E0,1.129915660E0,-1.121176704E0,1.931358719E0,2.502777078E0
7.728657958E0,1.347786132E0,-1.030916744E0,1.985423244E0,2.611746973E0
7.738603958E0,1.565726185E0,-9.854555199E-1,2.021816899E0,2.740504450E0
7.748549958E0,1.644652779E0,-8.466195238E-1,2.081191281E0,2.784421758E0
7.758496958E0,1.592378378E0,-8.540682918E-1,2.171997955E0,2.825363103E0
7.768442958E0,1.199478523E0,-9.334799123E-1,2.346127453E0,2.795433329E0
7.778388958E0,7.413076615E-1,-8.927199952E-1,2.440240728E0,2.702084538E0
7.788334958E0,4.910368913E-1,-7.253051479E-1,2.350767803E0,2.508643867E0
7.798280958E0,3.059766090E-1,-6.414687932E-1,2.368222327E0,2.472565649E0
7.808226958E0,1.544515702E-1,-5.606770836E-1,2.397913318E0,2.467428289E0
7.818172958E0,2.888115227E-2,-3.493198259E-1,2.353712461E0,2.379668214E0
7.828118958E0,-1.786909103E-3,-2.347167380E-1,2.383027477E0,2.394559478E0
7.838064958E0,4.098313451E-2,-2.411217780E-1,2.463538374E0,2.475649541E0
7.848010958E0,8.620140731E-2,-2.482072878E-1,2.601902792E0,2.615135881E0
7.857956958E0,2.829227918E-1,-3.221809977E-1,2.802549997E0,2.835160028E0
7.867902958E0,3.384725100E-1,-3.833238700E-1,2.887731650E0,2.932660040E0
7.877848958E0,3.535741138E-1,-5.298515859E-1,3.034466942E0,3.100604293E0
7.887794958E0,4.826142696E-1,-7.565756187E-1,3.356852008E0,3.474734321E0
7.897740958E0,8.193600968E-1,-1.028286959E0,3.695664825E0,3.922583784E0
7.907686958E0,8.891439843E-1,-1.376237513E0,4.189474466E0,4.498477856E0
7.917632958E0,9.809607652E-1,-1.865164437E0,4.637416794E0,5.093795924E0
7.927578958E0,1.102347793E0,-2.452255002E0,5.172598409E0,5.829622591E0
7.937524958E0,1.355157424E0,-3.048109373E0,5.517059637E0,6.447121019E0
7.947470958E0,1.604984537E0,-3.625991450E0,5.286250155E0,6.608194160E0
7.957416958E0,1.629399147E0,-4.020594599E0,5.243109398E0,6.805168526E0
7.967362958E0,1.849135465E0,-4.157151058E0,4.988735636E0,6.751939732E0
7.977308958E0,1.626692032E0,-3.906161081E0,4.357928656E0,6.074188302E0
7.987254958E0,9.877970374E-1,-3.790037717E0,3.727708152E0,5.407026627E0
7.997200958E0,1.089682139E0,-3.787783030E0,3.326426606E0,5.157501470E0
8.007147958E0,1.298466037E0,-3.553250626E0,2.543003789E0,4.558340962E0
8.017093958E0,9.240020873E-1,-3.195645441E0,1.708714288E0,3.739737179E0
8.027039958E0,6.551175101E-1,-2.960841726E0,9.131865656E-1,3.166965801E0
8.036985958E0,6.131955320E-1,-2.798287961E0,2.606229731E-1,2.876516749E0
8.046931958E0,1.944550768E-1,-2.660659123E0,-5.556559333E-1,2.725008855E0
8.056877958E0,9.773387074E-2,-2.402467130E0,-1.493336193E0,2.830451060E0
8.066823958E0,3.837885775E-2,-1.666053003E0,-2.637315576E0,3.119717775E0
8.076769958E0,-3.499775646E-1,-8.332633138E-1,-4.001060806E0,4.101865383E0
8.086715958E0,-6.406420700E-1,-6.968243837E-2,-4.964048692E0,5.005702480E0
8.096661958E0,6.150459565E-2,-5.403985012E-1,-5.693153214E0,5.719073953E0
8.106607958E0,5.524216191E-1,-1.474488278E0,-5.980859029E0,6.184655209E0
8.116553958E0,4.069413587E-1,-1.582170601E0,-6.022315788E0,6.239964145E0
8.126499958E0,5.009639286E-1,-1.108733245E0,-6.307326035E0,6.423598367E0
8.136445958E0,6.927096981E-1,-1.073057043E0,-6.132019494E0,6.263622052E0
8.146391958E0,9.503231093E-1,-1.873529756E0,-5.322927985E0,5.722481113E0
8.156337958E0,9.239001265E-1,-2.211383631E0,-4.635384302E0,5.218294418E0
8.166283958E0,1.015334426E0,-2.299768973E0,-4.039550688E0,4.757920878E0
8.176229958E0,8.043789455E-1,-2.172448776E0,-3.594172364E0,4.276053573E0
8.186175958E0,6.210255385E-1,-2.032048942E0,-3.177117954E0,3.822168771E0
8.196121958E0,5.291187105E-1,-1.785143829E0,-3.060218664E0,3.582128330E0
8.206067958E0,3.525251964E-1,-1.387586374E0,-3.236563087E0,3.539069168E0
8.216013958E0,2.402261308E-1,-8.891287816E-1,-3.428975074E0,3.550511039E0
8.225959958E0,3.901313446E-2,-4.876203632E-1,-3.604977727E0,3.638015950E0
8.235905958E0,-5.351949178E-2,-3.376474679E-1,-3.617478781E0,3.633596412E0
8.245852958E0,1.700944801E-1,-4.538480151E-1,-3.524698964E0,3.557866347E0
8.255798958E0,4.848655938E-1,-7.561028713E-1,-3.324544972E0,3.443745848E0
8.265744958E0,5.971642940E-1,-1.111888987E0,-2.697721115E0,2.978355507E0
8.275690958E0,7.269391523E-1,-1.329945107E0,-1.913546638E0,2.441076659E0
8.285636958E0,6.157980546E-1,-1.314349414E0,-1.308023896E0,1.953880277E0
8.295582958E0,5.095056874E-1,-1.123830755E0,-8.361302036E-1,1.490538604E0
8.305528958E0,3.354996394E-1,-8.806625980E-1,-6.483398563E-1,1.143884255E0
8.315474958E0,1.190357890E-1,-2.094455105E-1,-7.273497730E-1,7.662079569E-1
8.325420958E0,2.936274357E-2,4.556127048E-1,-9.268187642E-1,1.033168974E0
8.335366958E0,8.727247104E-2,7.017243505E-2,-1.288781878E0,1.293638042E0
8.345312958E0,-4.127608001E-2,-2.521629292E-1,-1.466125005E0,1.488224576E0
8.355258958E0,-7.047027759E-2,-1.647347760E-1,-1.435408412E0,1.446547931E0
8.365204958E0,1.011664056E-1,-2.134011519E-1,-1.112268471E0,1.137064574E0
8.375150958E0,1.856865191E-1,-7.367538500E-1,-7.707086313E-1,1.082255752E0
8.385096958E0,4.321579879E-1,-1.691916992E0,-4.053272349E-1,1.792661095E0
8.395042958E0,5.249707688E-1,-1.577409799E0,1.885610104E-1,1.673132163E0
8.404988958E0,4.710687230E-1,-1.154316384E0,5.093152875E-1,1.346756889E0
8.414934958E0,4.169903105E-1,-1.110876834E0,4.901843673E-1,1.283825912E0
8.424880958E0,3.352786146E-1,-1.239074698E0,7.901839525E-1,1.507351497E0
8.434826958E0,2.848159741E-1,-1.136117510E0,9.712546796E-1,1.521584302E0
8.444772958E0,2.912176520E-1,-6.635157198E-1,8.994356686E-1,1.155008811E0
8.454718958E0,3.271210179E-2,-7.188274562E-2,8.885978544E-1,8.921005311E-1
8.464664958E0,-1.309504411E-1,-7.162102425E-1,5.620431393E-1,9.197812892E-1
8.474610958E0,-3.005838682E-1,-1.014443676E0,6.112743562E-1,1.221925928E0
8.484557958E0,-3.550378181E-1,-8.872442240E-1,9.360749066E-1,1.337718354E0
8.494503958E0,-3.065205462E-1,-8.014711252E-1,8.817326385E-1,1.230350867E0
8.504449958E0,-4.503086954E-2,-9.230923337E-1,1.098345081E0,1.435440404E0
8.514395958E0,1.871800442E-1,-7.267130113E-1,1.610758808E0,1.776989620E0
8.524341958E0,3.970506473E-1,-1.090976420E-1,1.610479896E0,1.662286680E0
8.534287958E0,7.307072443E-1,-2.484449771E-1,1.795740738E0,1.954569718E0
8.544233958E0,8.005054575E-1,-4.571888217E-1,2.238886594E0,2.421248394E0
8.554179958E0,8.004595569E-1,-2.925742060E-1,2.424285430E0,2.569726642E0
8.564125958E0,8.683775979E-1,-2.308711705E-1,2.496065850E0,2.652871251E0
8.574071958E0,7.506769475E-1,-2.187642181E-1,2.600322289E0,2.715336015E0
8.584017958E0,6.475510669E-1,-6.370424509E-2,2.678491961E0,2.756392534E0
8.593963958E0,7.433176419E-1,-2.101211563E-1,2.802564615E0,2.907067326E0
8.603909958E0,7.627745444E-1,-3.673215026E-1,3.052443622E0,3.167674566E0
8.613855958E0,8.059837139E-1,-3.254548538E-1,3.230455670E0,3.345351169E0
8.623801958E0,8.816998941E-1,-3.759192485E-1,3.408780545E0,3.540973706E0
8.633747958E0,9.064254302E-1,-5.137963012E-1,3.677935483E0,3.822669632E0
8.643693958E0,9.214513126E-1,-8.043806997E-1,4.023919326E0,4.205713682E0
8.653639958E0,1.151444231E0,-1.276078802E0,4.438771091E0,4.759925390E0
8.663585958E0,1.587635263E0,-1.847117006E0,4.890059779E0,5.463067967E0
8.673531958E0,1.904419135E0,-2.525088797E0,5.265088497E0,6.141990113E0
8.683477958E0,1.915262504E0,-3.294724756E0,5.761998332E0,6.908260740E0
8.693423958E0,1.795951676E0,-3.935780151E0,6.235247993E0,7.589079348E0
8.703369958E0,1.287911228E0,-4.507670587E0,6.418466402E0,7.948240082E0
8.713315958E0,2.005144441E0,-4.496770792E0,6.794351152E0,8.390754398E0
8.723261958E0,2.199078311E0,-3.897037670E0,6.101940247E0,7.566804002E0
8.733208958E0,7.986555447E-1,-3.922130411E0,4.305556900E0,5.878671437E0
8.743154958E0,4.060303625E-1,-4.019542685E0,3.829157928E0,5.566330433E0
8.753100958E0,1.573194687E0,-4.259373252E0,3.829221078E0,5.939708418E0
8.763046958E0,2.180692034E0,-4.085278253E0,3.326791472E0,5.701969629E0
8.772992958E0,1.167928409E0,-3.011825938E0,1.421837025E0,3.529415359E0
8.782938958E0,7.155011214E-1,-2.720867903E0,5.096117413E-1,2.859155142E0
8.792884958E0,6.143535000E-1,-2.512287780E0,-4.546192628E-1,2.625966258E0
8.802830958E0,1.130510176E-1,-1.834723540E0,-1.982673006E0,2.703698069E0
8.812776958E0,2.871643621E-1,-1.457668762E0,-3.272015925E0,3.593514965E0
8.822722958E0,1.348261949E-1,-7.565045750E-1,-4.649685422E0,4.712754162E0
8.832668958E0,4.351980284E-2,-8.002446717E-1,-6.013446146E0,6.066615206E0
8.842614958E0,2.590132347E-1,-1.896602284E0,-6.676105834E0,6.945111747E0
8.852560958E0,3.024182128E-1,-2.379161298E0,-6.692324840E0,7.109084120E0
8.862506958E0,1.834455737E-1,-2.092564116E0,-7.298383480E0,7.594661170E0
8.872452958E0,6.593415387E-2,-1.658446360E0,-7.613205172E0,7.792026992E0
8.882398958E0,1.703410133E-1,-1.952036812E0,-7.253730049E0,7.513725001E0
8.892344958E0,1.474603468E-1,-2.274126593E0,-6.872659988E0,7.240638896E0
8.902290958E0,1.871828216E-1,-2.319769374E0,-6.351531571E0,6.764489681E0
8.912236958E0,7.519811690E-2,-2.114231558E0,-5.581236337E0,5.968737630E0
8.922182958E0,4.760459460E-2,-2.022680533E0,-5.182371445E0,5.563315247E0
8.932128958E0,1.931526095E-1,-2.006229976E0,-4.785405144E0,5.192530120E0
8.942074958E0,2.270079882E-1,-2.069864640E0,-4.229887497E0,4.714638957E0
8.952020958E0,1.830356839E-1,-1.930748270E0,-3.825134459E0,4.288699637E0
8.961966958E0,1.161175898E-1,-1.757788800E0,-3.402799720E0,3.831755563E0
8.971912958E0,1.715271210E-1,-1.691366184E0,-2.966429618E0,3.419041649E0
8.981858958E0,3.117671067E-1,-1.595781165E0,-2.598724830E0,3.065466849E0
8.991804958E0,3.870751512E-1,-1.508846517E0,-2.246337993E0,2.733583612E0
9.001751958E0,2.470550209E-1,-1.560707812E0,-1.854631263E0,2.436493829E0
9.011697958E0,-1.409866020E-2,-1.563776430E0,-1.502913640E0,2.168950185E0
9.021643958E0,-1.746590359E-1,-1.309449447E0,-1.269493960E0,1.832151344E0
9.031589958E0,-3.255374457E-1,-1.303122175E0,-1.062159587E0,1.712391608E0
9.041535958E0,-4.978882201E-1,-9.011910027E-1,-7.060202998E-1,1.248400003E0
9.051481958E0,-4.830326378E-1,-1.183985156E-1,-7.125469619E-1,8.689429847E-1
9.061427958E0,-2.591703055E-1,-2.795261443E-2,-8.863004833E-1,9.238393490E-1
9.071373958E0,-2.047646682E-1,-2.841512918E-2,-9.725042295E-1,9.942336071E-1
9.081319958E0,3.639540911E-2,-6.003745615E-2,-9.239103591E-1,9.265740519E-1
9.091265958E0,3.002787897E-1,-4.451801026E-1,-1.084650317E0,1.210297065E0
9.101211958E0,6.185422991E-1,-5.740363634E-1,-1.167924024E0,1.440888215E0
9.111157958E0,1.191967482E0,-1.173611026E0,-1.024307637E0,1.961467678E0
9.121103958E0,1.208737004E0,-1.833556436E0,-5.876311398E-1,2.273386176E0
9.131049958E0,1.233904298E0,-2.207668895E0,1.586349607E-1,2.534065274E0
9.140995958E0,9.687620115E-1,-1.038750844E0,9.481599319E-1,1.707779379E0
9.150941958E0,8.649368039E-1,-5.811296207E-1,1.422183765E0,1.763075146E0
9.160887958E0,7.334256148E-1,-7.986349332E-1,1.805949392E0,2.106462460E0
9.170833958E0,5.248491468E-1,-6.844247782E-1,1.838535925E0,2.030792518E0
9.180779958E0,2.831284676E-1,-2.915550363E-1,1.752355567E0,1.798865226E0
9.190725958E0,3.329764196E-1,-8.256549168E-1,1.441408240E0,1.694177397E0
9.200671958E0,3.631559461E-3,-9.083053100E-1,1.124193867E0,1.445283217E0
9.210617958E0,-2.216802245E-1,-5.305816108E-1,1.074174446E0,1.218404575E0
9.220563958E0,-3.460029928E-1,-2.752272713E-1,9.050665373E-1,1.007280278E0
9.230509958E0,-4.475489558E-1,-3.373121300E-1,6.443842149E-1,8.539968134E-1
9.240455958E0,-2.738558069E-1,-5.690758780E-1,7.157167375E-1,9.545128633E-1
9.250401958E0,-1.043801084E-1,-7.488722044E-1,9.504590571E-1,1.214527564E0
9.260347958E0,4.225987405E-2,-8.703925484E-1,1.498515657E0,1.733470005E0
9.270294958E0,1.491180325E-1,-7.646123242E-1,1.921740049E0,2.073632805E0
9.280240958E0,1.741961557E-1,-5.557486117E-1,2.152584030E0,2.229981800E0
9.290186958E0,3.092814553E-1,-5.167415437E-1,2.298988954E0,2.376557816E0
9.300132958E0,4.980512112E-1,-5.163427636E-1,2.391280822E0,2.496575420E0
9.310078958E0,5.797414917E-1,-3.696358305E-1,2.419823420E0,2.515606533E0
9.320024958E0,6.233295608E-1,-1.893296269E-1,2.458588121E0,2.543430950E0
9.329970958E0,6.194832623E-1,4.807376057E-2,2.413481530E0,2.492180510E0
9.339916958E0,7.798320419E-1,1.460260248E-1,2.391856188E0,2.520007467E0
9.349862958E0,9.379419225E-1,6.712018847E-2,2.362689106E0,2.542939241E0
9.359808958E0,1.092853376E0,-3.777301311E-4,2.614186038E0,2.833425010E0
9.369754958E0,1.241419139E0,-8.709106117E-2,3.063605372E0,3.306718041E0
9.379700958E0,1.509059648E0,-4.102532217E-1,3.558885003E0,3.887316708E0
9.389646958E0,1.962000760E0,-7.955148590E-1,4.212996646E0,4.715043118E0
9.399592958E0,2.285669290E0,-1.536298610E0,5.137484710E0,5.829086263E0
9.409538958E0,2.437151059E0,-2.299457316E0,6.287894568E0,7.124944023E0
9.419484958E0,2.694018365E0,-3.159518127E0,6.664907831E0,7.852470066E0
9.429430958E0,2.833260743E0,-4.252242865E0,6.770443642E0,8.482207432E0
9.439376958E0,2.874641488E0,-5.163781977E0,6.330438910E0,8.660407888E0
9.449322958E0,2.803048764E0,-5.597115621E0,5.684412212E0,8.455609253E0
9.459268958E0,2.120890075E0,-5.526996396E0,4.948161807E0,7.715579637E0
9.469214958E0,1.464975297E0,-4.948927208E0,3.870770808E0,6.451426181E0
9.479160958E0,7.766953030E-1,-4.117123944E0,2.798385025E0,5.038345354E0
9.489106958E0,9.028431335E-1,-3.730869741E0,1.812990024E0,4.245167556E0
9.499052958E0,8.418173517E-1,-3.596929327E0,1.177044511E0,3.877111143E0
9.508998958E0,3.518738166E-1,-3.169667432E0,7.769136965E-1,3.282407912E0
9.518944958E0,2.850259622E-1,-2.589880332E0,-7.294191027E-1,2.705692547E0
9.528890958E0,-2.407968556E-1,-1.684340755E0,-2.087964111E0,2.693432946E0
9.538836958E0,1.139834658E-1,-1.561560920E0,-2.758019064E0,3.171456116E0
9.548782958E0,3.056201481E-1,-1.558128605E0,-3.825399923E0,4.141841739E0
9.558729958E0,4.757451799E-2,-1.049194556E0,-5.299702259E0,5.402769344E0
9.568675958E0,-7.743767358E-2,-5.436027753E-1,-6.527905814E0,6.550958318E0
9.578621292E0,1.441318924E-1,-1.057903984E0,-7.110369769E0,7.190082969E0
9.588567292E0,2.551144209E-1,-1.484773530E0,-7.318591458E0,7.472042340E0
9.598513292E0,4.337061844E-1,-1.343756815E0,-7.435158625E0,7.568049102E0
9.608459292E0,6.597629768E-1,-1.221083985E0,-7.205070105E0,7.337531499E0
9.618405292E0,7.816882405E-1,-1.716934889E0,-6.677335503E0,6.938711072E0
9.628351292E0,8.697594412E-1,-2.031430891E0,-6.053655694E0,6.444372756E0
9.638297292E0,8.528275126E-1,-1.942534502E0,-5.427378552E0,5.827280069E0
9.648243292E0,7.640160544E-1,-1.832075336E0,-4.935279806E0,5.319511945E0
9.658189292E0,7.325681207E-1,-1.702149035E0,-4.567284997E0,4.928900448E0
9.668135292E0,6.329491076E-1,-1.573310900E0,-4.347568560E0,4.666613777E0
9.678081292E0,5.391646290E-1,-1.363726811E0,-4.019320491E0,4.278479464E0
9.688027292E0,4.178533961E-1,-1.201322150E0,-3.684026235E0,3.897412689E0
9.697973292E0,3.627998507E-1,-1.037441652E0,-3.460119098E0,3.630472846E0
9.707919292E0,4.386375434E-1,-9.888150376E-1,-3.095019245E0,3.278612847E0
9.717865292E0,6.077871499E-1,-1.183314480E0,-2.577878045E0,2.900878072E0
9.727811292E0,6.738610522E-1,-1.533611814E0,-1.987319789E0,2.599133290E0
9.737757292E0,5.283554662E-1,-1.446808729E0,-1.515394814E0,2.160749046E0
9.747703292E0,2.295286863E-1,-1.158367335E0,-1.124133641E0,1.630390979E0
9.757649292E0,-3.330621544E-2,-8.587834865E-1,-8.077618521E-1,1.179448002E0
9.767595292E0,-2.701630344E-1,-6.993205601E-1,-7.472762069E-1,1.058517378E0
9.777541292E0,-4.833393974E-1,-5.334543478E-1,-7.044807279E-1,1.007215771E0
9.787487292E0,-5.910125115E-1,-3.120454341E-1,-7.405118555E-1,9.975098745E-1
9.797433292E0,-6.548425448E-1,-1.238837886E-1,-9.155049866E-1,1.132393629E0
9.807379292E0,-6.900204174E-1,9.305843711E-3,-9.780965066E-1,1.197032811E0
9.817325292E0,-5.068551446E-1,-1.063678694E-1,-8.283042902E-1,9.768849770E-1
9.827272292E0,-2.922515128E-1,-1.861566353E-1,-9.274496788E-1,9.900647182E-1
9.837218292E0,-9.395481527E-2,-2.472337264E-1,-9.401451534E-1,9.766396123E-1
9.847164292E0,1.859956176E-1,-4.847224832E-1,-8.101095092E-1,9.621993933E-1
9.857110292E0,5.917559849E-1,-1.073198546E0,-5.651673067E-1,1.349571913E0
9.867056292E0,9.228903124E-1,-1.587214994E0,-1.688786978E-1,1.843772758E0
9.877002292E0,1.322921285E0,-2.221150235E0,7.669424397E-1,2.696633049E0
9.886948292E0,1.330508925E0,-2.136422911E0,1.569682118E0,2.966219615E0
9.896894292E0,1.022099728E0,-1.234559478E0,1.920875246E0,2.501716744E0
9.906840292E0,9.964810297E-1,-9.368876696E-1,1.930019122E0,2.365524626E0
9.916786292E0,8.461862451E-1,-8.647780520E-1,2.162710238E0,2.478142009E0
9.926732292E0,5.877817056E-1,-1.230506188E0,2.221244960E0,2.606446237E0
9.936678292E0,2.048574927E-1,-8.204953337E-1,2.305740150E0,2.455935020E0
9.946624292E0,-1.381871013E-1,-3.722787720E-1,1.982916543E0,2.022287115E0
9.956570292E0,-2.885609695E-1,-3.102161327E-1,1.611327158E0,1.666096243E0
9.966516292E0,-1.785318661E-1,-2.389947072E-1,1.433532625E0,1.464243110E0
9.976462292E0,1.064413981E-1,-1.805050090E-1,1.291164619E0,1.308058830E0
9.986408292E0,2.957197157E-1,-2.145080298E-1,1.204877257E0,1.259044499E0
9.996354292E0,4.270198202E-1,-1.824869227E-1,1.341878105E0,1.419959243E0
1.000630029E1,5.505001509E-1,-1.273570347E-1,1.696798248E0,1.788405581E0
1.001624629E1,6.635089955E-1,-1.154304689E-1,2.087004583E0,2.192978912E0
1.002619229E1,7.682302889E-1,-1.704618314E-1,2.388892234E0,2.515162245E0
1.003613829E1,7.437459505E-1,-2.002150959E-1,2.518185282E0,2.633344117E0
1.004608429E1,8.095537314E-1,-2.747404906E-1,2.762300103E0,2.891567299E0
1.005603029E1,8.630332428E-1,-4.348012948E-1,2.962739148E0,3.116360345E0
1.006597629E1,7.877254906E-1,-5.755437756E-1,3.058682016E0,3.210498055E0
1.007592229E1,7.214320984E-1,-7.287411180E-1,3.329896928E0,3.484213174E0
1.008586829E1,8.528994334E-1,-1.079028804E0,3.934912425E0,4.168366154E0
1.009581429E1,1.266066030E0,-1.929942523E0,4.854697573E0,5.375471129E0
1.010576029E1,1.687404111E0,-2.931362404E0,5.694278219E0,6.623067462E0
1.011570729E1,2.383906313E0,-3.518171425E0,6.129902217E0,7.458970483E0
1.012565329E1,3.063073860E0,-4.335016927E0,6.513594754E0,8.402482362E0
1.013559929E1,3.193525533E0,-5.032160568E0,7.287465559E0,9.414265749E0
1.014554529E1,3.036443301E0,-5.735495242E0,7.224541917E0,9.711328411E0
1.015549129E1,3.282749366E0,-5.512750239E0,6.950531452E0,9.459214876E0
1.016543729E1,3.041561369E0,-4.700039889E0,6.243337031E0,8.385745512E0
1.017538329E1,2.218090387E0,-5.180295684E0,5.596652521E0,7.942160146E0
1.018532929E1,1.555061886E0,-5.347728365E0,4.997153873E0,7.482510472E0
1.019527529E1,9.330173975E-1,-4.674339037E0,3.747186981E0,6.063116127E0
1.020522129E1,4.196445809E-1,-3.626719136E0,2.131022422E0,4.227345483E0
1.021516729E1,7.227772504E-1,-3.257538219E0,4.920689249E-1,3.372846577E0
1.022511329E1,3.564290169E-1,-2.940171234E0,-9.493422389E-1,3.110128489E0
1.023505929E1,5.335133682E-1,-2.614054475E0,-2.715944255E0,3.807134160E0
1.024500529E1,8.723006411E-1,-2.177002587E0,-4.561178750E0,5.128801055E0
1.025495129E1,6.361503120E-1,-1.687257931E0,-5.943278389E0,6.210803857E0
1.026489729E1,5.421322006E-1,-1.843528277E0,-6.960309750E0,7.220693572E0
1.027484329E1,6.907456183E-1,-2.080023592E0,-7.439445219E0,7.755576885E0
1.028478929E1,6.913793103E-1,-2.129447767E0,-7.666898984E0,7.987107936E0
1.029473529E1,7.546486688E-1,-2.008954779E0,-8.095847801E0,8.375448975E0
1.030468129E1,9.694625811E-1,-1.861998462E0,-8.194621891E0,8.459238968E0
1.031462729E1,8.529172674E-1,-1.978428220E0,-8.062318697E0,8.345215926E0
1.032457329E1,6.954950923E-1,-1.695127698E0,-7.546445757E0,7.765694747E0
1.033451929E1,8.347485796E-1,-1.403086174E0,-6.881658853E0,7.072671671E0
1.034446529E1,1.032403911E0,-1.716989853E0,-6.275673888E0,6.587715441E0
1.035441129E1,9.768102653E-1,-1.814979247E0,-5.742535874E0,6.101231534E0
1.036435729E1,8.856034222E-1,-1.647532532E0,-5.126784305E0,5.457341310E0
1.037430329E1,8.969256051E-1,-1.614315085E0,-4.512895659E0,4.876137402E0
1.038424929E1,9.357130370E-1,-1.625746391E0,-3.919784508E0,4.345494311E0
1.039419629E1,8.441783843E-1,-1.450162107E0,-3.429508924E0,3.818001931E0
1.040414129E1,7.596262573E-1,-1.199724106E0,-2.982165937E0,3.302981026E0
1.041408829E1,6.995594189E-1,-8.168513489E-1,-2.801943056E0,3.001252138E0
1.042403429E1,6.580256228E-1,-6.539315486E-1,-2.712543222E0,2.866795235E0
1.043398029E1,6.065964375E-1,-7.185578996E-1,-2.591621340E0,2.756952278E0
1.044392629E1,4.806946287E-1,-7.798718029E-1,-2.465919652E0,2.630594436E0
1.045387229E1,4.062142575E-1,-7.732702965E-1,-2.165863057E0,2.335362874E0
1.046381829E1,1.509253337E-1,-7.589843792E-1,-1.967628998E0,2.114331955E0
1.047376429E1,-5.016947575E-2,-9.289453965E-1,-1.567642609E0,1.822898757E0
1.048371029E1,-2.763402888E-1,-6.721929878E-1,-1.176318871E0,1.382726819E0
1.049365629E1,-3.680597135E-1,-2.543147045E-1,-8.870565283E-1,9.934853829E-1
1.050360229E1,-3.935145436E-1,-1.957717967E-1,-8.694558245E-1,9.742349425E-1
1.051354829E1,-3.513727102E-1,-7.824246973E-1,-7.767616689E-1,1.157155944E0
1.052349429E1,-3.372766082E-1,-1.257427939E0,-6.750002360E-1,1.466460313E0
1.053344029E1,-2.292064682E-2,-1.606085714E0,-5.838579315E-1,1.709071900E0
1.054338629E1,3.797924441E-1,-1.802448079E0,-6.227056628E-1,1.944434036E0
1.055333229E1,6.008758141E-1,-1.934833134E0,-3.543991560E-1,2.056752237E0
1.056327829E1,6.444280690E-1,-1.952522131E0,-2.367923534E-1,2.069710325E0
1.057322092E1,6.215446982E-1,-1.994522097E0,-1.149492431E-1,2.092283330E0
1.058316692E1,6.841976139E-1,-2.240295773E0,2.760932440E-1,2.358660426E0
1.059311292E1,6.347323622E-1,-2.576075056E0,7.415509057E-1,2.754804096E0
1.060305892E1,4.414981109E-1,-2.644716690E0,1.397389816E0,3.023598063E0
1.061300492E1,4.333617103E-1,-2.366416706E0,2.128134483E0,3.211959959E0
1.062295092E1,5.500466993E-1,-2.126089126E0,2.437006633E0,3.280519421E0
1.063289692E1,8.966760752E-1,-2.135014609E0,2.553619409E0,3.447214448E0
1.064284292E1,1.073607266E0,-1.847517833E0,2.883824540E0,3.589205857E0
1.065278892E1,1.150281805E0,-1.435190311E0,3.073777773E0,3.582042609E0
1.066273492E1,1.125862078E0,-1.255949178E0,3.190457207E0,3.608876687E0
1.067268092E1,8.864940262E-1,-1.007126763E0,3.180240952E0,3.451681979E0
1.068262692E1,6.784389836E-1,-7.503766930E-1,3.044766228E0,3.208417993E0
1.069257292E1,6.080712515E-1,-5.304178888E-1,3.002922968E0,3.109443702E0
1.070251892E1,3.877279928E-1,-3.436034417E-1,2.956517125E0,3.001564564E0
1.071246592E1,1.339541557E-1,-1.627920386E-1,3.050645603E0,3.057921444E0
1.072241192E1,3.042294610E-1,9.956200272E-2,3.117972783E0,3.134361567E0
1.073235792E1,5.662113270E-1,2.536595240E-1,3.019711493E0,3.082790282E0
1.074230392E1,6.574474794E-1,3.056281149E-1,3.154449468E0,3.236695411E0
1.075224992E1,7.908882496E-1,3.085540617E-1,3.198068528E0,3.308829421E0
1.076219592E1,8.521580064E-1,1.039947769E-1,3.157460200E0,3.272085435E0
1.077214192E1,9.393148488E-1,-7.631727397E-2,3.416388357E0,3.543987319E0
1.078208792E1,1.259741389E0,-4.516012225E-1,3.908657842E0,4.131403896E0
1.079203392E1,1.401365630E0,-9.290179020E-1,4.509270970E0,4.812527877E0
1.080197992E1,1.794858393E0,-1.610423178E0,5.530255634E0,6.033134081E0
1.081192592E1,2.785933380E0,-2.688407085E0,6.261635892E0,7.361863996E0
1.082187192E1,3.144194329E0,-3.755062011E0,6.670601265E0,8.275467958E0
1.083181792E1,2.708804512E0,-4.612761424E0,7.008565652E0,8.816755772E0
1.084176392E1,2.970417419E0,-5.435105063E0,6.969617933E0,9.324125740E0
1.085170992E1,3.083820658E0,-6.211360363E0,6.331497256E0,9.390357017E0
1.086165592E1,2.569020098E0,-6.251382215E0,5.264723046E0,8.567202146E0
1.087160192E1,1.911310955E0,-5.584641171E0,4.182557795E0,7.234301368E0
1.088154792E1,1.216339262E0,-4.518600202E0,2.946610773E0,5.529895481E0
1.089149392E1,3.878034219E-1,-3.127640569E0,1.561272653E0,3.517115199E0
1.090143992E1,5.401100872E-1,-2.226117445E0,-3.825546688E-1,2.322426718E0
1.091138592E1,4.223197552E-1,-2.308001268E0,-2.019573323E0,3.095787498E0
1.092133192E1,-1.015324413E-1,-1.686233498E0,-3.608243981E0,3.984108040E0
1.093127792E1,1.928688003E-1,-1.130094293E0,-5.124933077E0,5.251595046E0
1.094122392E1,2.727058057E-1,-9.195278710E-1,-6.174216510E0,6.248267718E0
1.095116992E1,3.032978168E-1,-1.737903589E0,-6.729263456E0,6.956671985E0
1.096111592E1,6.263351027E-1,-2.289892441E0,-6.928824248E0,7.324241156E0
1.097106192E1,6.783848968E-1,-1.942612855E0,-7.171694198E0,7.461042048E0
1.098100792E1,6.662076317E-1,-1.861188623E0,-7.230007310E0,7.495389343E0
1.099095392E1,7.178237086E-1,-2.111498569E0,-7.015498695E0,7.361448161E0
1.100089992E1,6.739153583E-1,-2.199602661E0,-6.832591943E0,7.209488638E0
1.101084592E1,4.633056671E-1,-1.943236753E0,-6.668258870E0,6.961070146E0
1.102079292E1,2.362601106E-1,-1.715187156E0,-6.589204515E0,6.812877656E0
1.103073892E1,1.074775247E-1,-1.356904280E0,-6.400785007E0,6.543912388E0
1.104068492E1,3.584343195E-2,-1.169734907E0,-5.949974036E0,6.063971927E0
1.105063092E1,7.653544821E-2,-1.154353221E0,-5.231318488E0,5.357712399E0
1.106057692E1,3.162306518E-1,-1.270019917E0,-4.438427274E0,4.627373886E0
1.107052292E1,4.750694610E-1,-1.365352921E0,-3.486576872E0,3.774400334E0
1.108046892E1,4.203105788E-1,-1.303751335E0,-2.675666587E0,3.005930839E0
1.109041492E1,3.982711805E-1,-1.176396639E0,-2.073195506E0,2.416747524E0
1.110036092E1,3.907495415E-1,-9.824696392E-1,-1.682826326E0,1.987419493E0
1.111030692E1,4.270872825E-1,-8.437339228E-1,-1.597480366E0,1.856403512E0
1.112025292E1,4.871661077E-1,-9.146583098E-1,-1.568524370E0,1.879946632E0
1.113019892E1,3.135968466E-1,-9.302738839E-1,-1.400076027E0,1.709960632E0
1.114014492E1,2.194378173E-1,-7.462754560E-1,-1.334880157E0,1.544987070E0
1.115009092E1,2.449451262E-1,-7.023312914E-1,-1.313336676E0,1.509344421E0
1.116003692E1,-1.592898488E-2,-9.226970619E-1,-9.994289035E-1,1.360324128E0
1.116998292E1,-1.043296762E-2,-1.054609078E0,-3.992201105E-1,1.127690494E0
1.117992892E1,3.738351546E-2,-1.124503770E0,-1.211823750E-1,1.131632195E0
1.118987492E1,-1.648462386E-1,-1.123177037E0,-6.660504878E-2,1.137161893E0
1.119982092E1,-1.231055242E-1,-1.356217816E0,2.170211631E-1,1.378977854E0
1.120976692E1,-2.288307846E-2,-9.811230254E-1,7.605713135E-1,1.241609741E0
1.121971292E1,8.749305725E-2,-7.157424653E-1,8.296052957E-1,1.099175718E0
1.122965892E1,1.146587826E-1,-3.413411540E-1,7.042088324E-1,7.909301483E-1
1.123960492E1,2.455811571E-1,-5.337233198E-1,5.966943240E-1,8.373856955E-1
1.124955092E1,3.319133958E-1,-3.154145998E-1,2.810060745E-1,5.372311290E-1
1.125949692E1,4.937334810E-1,-3.293730730E-1,7.431226373E-2,5.981485468E-1
1.126944292E1,6.989447303E-1,-3.442250007E-1,1.638904381E-1,7.961624601E-1
1.127938892E1,9.245696327E-1,-5.659362155E-1,3.395080519E-1,1.135948292E0
1.128933492E1,8.480691947E-1,-8.607235926E-1,4.674410373E-1,1.295595456E0
1.129928092E1,7.379456587E-1,-9.658530217E-1,1.139680803E0,1.666225731E0
1.130922692E1,6.580724005E-1,-9.033421934E-1,1.777051867E0,2.099285531E0
1.131917292E1,5.179047011E-1,-9.760067117E-1,1.798175519E0,2.110509317E0
1.132911892E1,3.834756052E-1,-9.418987334E-1,2.035586507E0,2.275486584E0
1.133906492E1,1.742802094E-1,-7.514619362E-1,2.070593203E0,2.209620973E0
1.134901192E1,-3.237837195E-2,-6.184170225E-1,1.933470148E0,2.030220379E0
1.135895792E1,-2.593379013E-1,-3.793018627E-1,1.823931919E0,1.880918311E0
1.136890392E1,-5.099453250E-1,-1.161751118E-1,1.611674482E0,1.694413033E0
1.137884992E1,-6.766414033E-1,7.997236848E-3,1.516615128E0,1.660731463E0
1.138879592E1,-5.244013962E-1,-3.756426752E-2,1.273010768E0,1.377303276E0
1.139874192E1,-1.747899404E-1,-2.343137187E-1,1.470620345E0,1.499392757E0
1.140868792E1,-1.728378475E-2,-1.628616205E-1,1.777434275E0,1.784963652E0
1.141863392E1,4.307564834E-1,-9.815399319E-2,2.157002771E0,2.201782530E0
1.142857992E1,7.363910303E-1,-2.533358806E-1,2.911420475E0,3.013771723E0
1.143852592E1,1.117751113E0,-4.648565680E-1,3.402518762E0,3.611453046E0
1.144847192E1,1.522912579E0,-6.518043315E-1,3.996089503E0,4.325834362E0
1.145841792E1,1.876050491E0,-1.114732780E0,5.080725203E0,5.529553617E0
1.146836392E1,2.328618843E0,-1.676199676E0,5.881096759E0,6.543654190E0
1.147830992E1,2.649423991E0,-1.960798865E0,6.591661515E0,7.369815547E0
1.148825592E1,2.861532323E0,-2.452793530E0,6.952306666E0,7.908168645E0
1.149820192E1,3.014049634E0,-2.861304574E0,6.963464908E0,8.109340453E0
1.150814792E1,2.943264703E0,-3.049475575E0,6.310761859E0,7.601830282E0
1.151809392E1,2.852698642E0,-3.092987630E0,5.514975690E0,6.936816192E0
1.152803992E1,2.888031320E0,-3.025773302E0,4.600621435E0,6.217857072E0
1.153798592E1,3.169250525E0,-3.287606356E0,3.945641481E0,6.034947484E0
1.154793192E1,3.331500235E0,-3.716556927E0,3.786124760E0,6.264697112E0
1.155787792E1,3.099674506E0,-4.059925311E0,3.085513135E0,5.967526026E0
1.156782392E1,2.540748225E0,-4.402895499E0,2.369188871E0,5.608381783E0
1.157776967E1,2.209450249E0,-4.378705568E0,1.633714977E0,5.169502633E0
1.158771567E1,2.023280896E0,-4.101236474E0,4.475350687E-1,4.595007490E0
1.159766167E1,1.465310488E0,-3.727951981E0,-3.961593854E-1,4.025133918E0
1.160760767E1,5.435021301E-1,-2.922609122E0,-1.369369959E0,3.272951684E0
1.161755367E1,2.894781053E-1,-2.189244318E0,-2.540490071E0,3.366107256E0
1.162749967E1,-2.529381238E-2,-1.578602046E0,-3.536327907E0,3.872756029E0
1.163744567E1,-2.650726312E-1,-1.152686180E0,-4.630401889E0,4.779076332E0
1.164739167E1,-2.474917348E-1,-1.169559490E0,-5.632576645E0,5.758041440E0
1.165733767E1,-1.653849133E-1,-1.639411919E0,-6.358637692E0,6.568660206E0
1.166728367E1,-1.802092130E-1,-1.622900552E0,-7.014228680E0,7.201783497E0
1.167723067E1,-4.125595828E-1,-1.406489253E0,-7.325483571E0,7.470684505E0
1.168717667E1,-3.849082462E-1,-1.345847780E0,-7.530305103E0,7.659305161E0
1.169712267E1,-3.770354819E-1,-1.253054221E0,-7.474271235E0,7.587953027E0
1.170706867E1,-8.824581318E-2,-1.471860539E0,-7.102316399E0,7.253761714E0
1.171701467E1,-9.401401833E-2,-1.583255845E0,-6.405846357E0,6.599273085E0
1.172696067E1,-9.718510956E-3,-1.587067645E0,-5.578622632E0,5.799992123E0
1.173690667E1,8.080852032E-2,-1.598250445E0,-4.844020557E0,5.101516408E0
1.174685267E1,1.658854350E-1,-1.682251545E0,-4.165193319E0,4.495144449E0
1.175679867E1,3.098699044E-1,-1.819432486E0,-3.552243735E0,4.003097486E0
1.176674467E1,2.971940180E-1,-1.707641909E0,-3.122565186E0,3.571383278E0
1.177669067E1,3.341953448E-1,-1.442953075E0,-2.805712756E0,3.172668305E0
1.178663667E1,3.523254409E-1,-1.282631192E0,-2.731845465E0,3.038462710E0
1.179658267E1,3.284883162E-1,-1.297538669E0,-2.701283823E0,3.014704872E0
1.180652867E1,3.176118372E-1,-1.265389507E0,-2.660049551E0,2.962760790E0
1.181647467E1,1.277864396E-1,-1.178075375E0,-2.669094901E0,2.920318228E0
1.182642067E1,5.770412475E-2,-1.288876019E0,-2.625675232E0,2.925525864E0
1.183636667E1,1.016741632E-1,-1.331430300E0,-2.448172183E0,2.788654033E0
1.184631267E1,6.599861942E-2,-1.406168241E0,-2.278815476E0,2.678556498E0
1.185625867E1,-1.749401408E-1,-9.879531580E-1,-2.047035356E0,2.279694989E0
1.186620467E1,-3.421252656E-1,-5.358107758E-1,-1.708980337E0,1.823391531E0
1.187615067E1,-2.712719223E-1,-4.812767190E-1,-1.686625847E0,1.774802097E0
1.188609667E1,-2.932466358E-1,-4.973331732E-1,-1.600323867E0,1.701284913E0
1.189604267E1,-1.937759958E-1,-7.418631470E-1,-1.566707055E0,1.744270926E0
1.190598867E1,-8.032334760E-2,-7.934800279E-1,-1.534281905E0,1.729185751E0
1.191593467E1,2.118256196E-2,-8.880213189E-1,-1.468645155E0,1.716376752E0
1.192588067E1,4.233474764E-1,-1.327292810E0,-1.249479818E0,1.871397634E0
1.193582667E1,6.865541880E-1,-1.927276193E0,-7.965118092E-1,2.195491116E0
1.194577267E1,1.158027319E0,-2.342075332E0,-1.965921611E-1,2.620113091E0
1.195571867E1,1.759267122E0,-3.345666869E0,2.036210990E-1,3.785494572E0
1.196566467E1,1.618194420E0,-2.837305847E0,1.048056103E0,3.430346811E0
1.197561067E1,1.440717684E0,-1.702407482E0,1.665258366E0,2.783333273E0
1.198555667E1,1.445360081E0,-8.791259497E-1,1.443793904E0,2.224065880E0
1.199550267E1,1.269284630E0,-9.861791128E-1,1.367543288E0,2.110404549E0
1.200544867E1,1.224029520E0,-1.709869991E0,1.462354136E0,2.561324515E0
1.201539467E1,9.365458998E-1,-1.492003028E0,1.936405451E0,2.617796273E0
1.202534167E1,6.626152486E-1,-1.059835904E0,2.238336956E0,2.563681618E0
1.203528767E1,6.757668060E-1,-9.689374280E-1,2.307023029E0,2.591882669E0
1.204523367E1,9.003048572E-1,-1.141986652E0,2.580857493E0,2.962348351E0
1.205517967E1,1.132850963E0,-1.042677249E0,3.045855564E0,3.412881959E0
1.206512567E1,9.278189304E-1,-7.983466655E-1,3.394704543E0,3.608631915E0
1.207507167E1,9.937530112E-1,-6.795207185E-1,3.449479505E0,3.653519168E0
1.208501767E1,1.063176126E0,-6.764354351E-1,3.543710893E0,3.761089638E0
1.209496367E1,1.003710527E0,-6.676619804E-1,3.588447356E0,3.785520013E0
1.210490967E1,9.578984696E-1,-6.675657937E-1,3.590742388E0,3.775797196E0
1.211485567E1,8.749486989E-1,-5.566075677E-1,3.542106417E0,3.690781094E0
1.212480167E1,8.495463476E-1,-4.500759763E-1,3.527753257E0,3.656410866E0
1.213474767E1,9.557227206E-1,-5.571247539E-1,3.502034279E0,3.672606432E0
1.214469367E1,1.176437570E0,-9.176719648E-1,3.817086352E0,4.098325927E0
1.215463967E1,1.789075789E0,-1.445000185E0,4.586806803E0,5.131044179E0
1.216458567E1,2.479022678E0,-1.923359143E0,5.422393216E0,6.264759534E0
1.217453167E1,3.249632784E0,-2.562784627E0,6.206117749E0,7.459482273E0
1.218447767E1,3.715447710E0,-3.642929080E0,6.693022998E0,8.477737954E0
1.219442367E1,3.567858432E0,-4.792277961E0,6.891660515E0,9.120884086E0
1.220436967E1,3.681493514E0,-5.845057445E0,6.679515345E0,9.609059073E0
1.221431567E1,3.697634752E0,-6.372386250E0,6.261868612E0,9.669064473E0
1.222426167E1,3.370895265E0,-6.022864841E0,5.255227168E0,8.674978292E0
1.223420767E1,2.200658229E0,-4.979457859E0,3.978816243E0,6.743061316E0
1.224415367E1,1.377125121E0,-4.101917675E0,3.173592668E0,5.365994095E0
1.225409967E1,1.394287576E0,-3.919413210E0,2.754875894E0,4.989506884E0
1.226404567E1,8.006203553E-1,-3.812441323E0,2.151425697E0,4.450206099E0
1.227399167E1,5.394979934E-1,-3.604706708E0,1.031622503E0,3.788035576E0
1.228393767E1,4.760438995E-1,-3.357246695E0,-1.169612700E-1,3.392845871E0
1.229388367E1,3.202527322E-2,-2.913472263E0,-1.458934100E0,3.258501949E0
1.230382967E1,8.231103547E-2,-2.493395426E0,-2.851255257E0,3.788595043E0
1.231377567E1,3.371738434E-1,-2.304908676E0,-4.048500436E0,4.670829261E0
1.232372167E1,9.965694688E-2,-1.960603568E0,-5.234470721E0,5.590490282E0
1.233366767E1,3.470886015E-1,-2.257794735E0,-6.365052087E0,6.762543578E0
1.234361367E1,5.808121169E-1,-2.869690066E0,-7.124614756E0,7.702765686E0
1.235355967E1,6.107869908E-2,-2.495875815E0,-7.579878382E0,7.980456314E0
1.236350567E1,-7.116646171E-2,-1.746493149E0,-8.103713475E0,8.290082935E0
1.237345267E1,1.774264500E-2,-1.635196661E0,-8.189502654E0,8.351175764E0
1.238339867E1,2.545013769E-1,-1.857930554E0,-7.806987746E0,8.029055646E0
1.239334467E1,4.190556201E-1,-1.835685992E0,-7.339775920E0,7.577444241E0
1.240329067E1,4.860731900E-1,-1.679354834E0,-6.743559898E0,6.966498396E0
1.241323667E1,5.465405627E-1,-1.933680063E0,-5.922492122E0,6.254097706E0
1.242318267E1,5.177969661E-1,-1.985421490E0,-5.206524539E0,5.596240699E0
1.243312867E1,5.844989325E-1,-1.863964296E0,-4.642057729E0,5.036338140E0
1.244307467E1,5.890656079E-1,-1.851069431E0,-4.037643326E0,4.480627183E0
1.245302067E1,6.910449958E-1,-1.648998429E0,-3.559698935E0,3.983490368E0
1.246296667E1,8.875881864E-1,-1.343931062E0,-3.179650968E0,3.564287273E0
1.247291267E1,8.520119722E-1,-1.192762411E0,-2.903853593E0,3.252840645E0
1.248285867E1,8.144501898E-1,-1.139426449E0,-2.769861723E0,3.103829201E0
1.249280467E1,7.531492965E-1,-1.174888642E0,-2.575689724E0,2.929466631E0
1.250275067E1,6.771394399E-1,-1.275273056E0,-2.151062585E0,2.590735307E0
1.251269667E1,5.769941774E-1,-1.253114448E0,-1.683938466E0,2.176893855E0
1.252264267E1,4.944630674E-1,-1.309123172E0,-1.351112320E0,1.945199657E0
1.253258867E1,3.884077317E-1,-1.102752128E0,-1.166822993E0,1.651786523E0
1.254253467E1,2.101670569E-1,-5.167354041E-1,-8.582858884E-1,1.023640726E0
1.255248067E1,1.576510204E-1,-4.558863544E-1,-8.308095297E-1,9.606928162E-1
1.256242667E1,1.606010869E-2,-2.183578366E-1,-8.180330712E-1,8.468271237E-1
1.257237267E1,-4.178478777E-2,-3.885322773E-1,-8.653718367E-1,9.495113032E-1
1.258231929E1,-7.221062824E-2,-4.841430241E-1,-8.305946445E-1,9.641038876E-1
1.259226529E1,1.825354546E-2,-4.595706850E-1,-6.083010471E-1,7.626064321E-1
1.260221129E1,2.023098609E-1,-5.485489351E-1,-5.495622575E-1,8.024050653E-1
1.261215729E1,2.540357924E-1,-8.149504191E-1,-5.236661088E-1,1.001451228E0
1.262210329E1,3.243805741E-1,-1.235512574E0,-3.711373955E-1,1.330209399E0
1.263204929E1,5.593855798E-1,-1.065791293E0,1.280013978E-1,1.210457626E0
1.264199529E1,9.534177482E-1,-1.952276548E0,6.394433177E-1,2.264790692E0
1.265194129E1,6.924620685E-1,-2.285400610E0,1.033690664E0,2.602129138E0
1.266188729E1,3.550160372E-1,-1.727733527E0,1.514611287E0,2.324897176E0
1.267183329E1,2.256613013E-1,-1.157966800E0,1.276697438E0,1.738322893E0
1.268177929E1,1.746943384E-2,-1.018604262E0,8.405091834E-1,1.320725373E0
1.269172529E1,1.518194461E-1,-1.589694799E0,7.687585849E-1,1.772334184E0
1.270167129E1,2.194679305E-1,-1.571744431E0,9.194255447E-1,1.834091072E0
1.271161729E1,5.286964685E-2,-1.363142089E0,7.795735949E-1,1.571205443E0
1.272156329E1,-1.147308496E-1,-1.079865541E0,9.126544690E-1,1.418524210E0
1.273151029E1,-3.890930253E-1,-9.210785526E-1,1.566896505E0,1.858747896E0
1.274145629E1,-2.158458728E-1,-1.194331512E0,1.785690544E0,2.159098867E0
1.275140229E1,9.260264665E-2,-1.405159304E0,1.981186936E0,2.430668549E0
1.276134829E1,2.043701273E-1,-1.232926351E0,2.286367155E0,2.605637984E0
1.277129429E1,3.871842018E-1,-8.404524654E-1,2.675845512E0,2.831328514E0
1.278124029E1,7.550717148E-1,-6.325377560E-1,3.048407289E0,3.203595528E0
1.279118629E1,1.041696964E0,-8.513133761E-1,3.041036873E0,3.325322886E0
1.280113229E1,1.190841016E0,-8.751548132E-1,3.072239370E0,3.409201229E0
1.281107829E1,1.370295281E0,-5.052044025E-1,3.083170740E0,3.411580639E0
1.282102429E1,1.471640976E0,-3.580098116E-1,2.925414616E0,3.294229631E0
1.283097029E1,1.466944200E0,-4.510863751E-1,2.801048432E0,3.193943726E0
1.284091629E1,1.500944298E0,-4.081739518E-1,2.737969254E0,3.148954651E0
1.285086229E1,1.639337952E0,-2.671344325E-1,2.803931694E0,3.258960366E0
1.286080829E1,1.921455874E0,-3.649773538E-1,3.155972668E0,3.712864747E0
1.287075429E1,2.246027214E0,-7.573848733E-1,3.711579777E0,4.403872674E0
1.288070029E1,2.535123204E0,-1.153034382E0,4.477048718E0,5.272599280E0
1.289064629E1,2.678048742E0,-1.891432761E0,5.239464828E0,6.180732533E0
1.290059229E1,3.095006966E0,-3.111859227E0,5.857182816E0,7.319106948E0
1.291053829E1,3.594193122E0,-4.310362434E0,6.558028915E0,8.631638996E0
1.292048429E1,3.544726847E0,-5.123306381E0,6.718212218E0,9.162299499E0
1.293043029E1,3.549629445E0,-5.691313096E0,6.197380840E0,9.132274811E0
1.294037629E1,3.277842091E0,-6.082010597E0,5.514629534E0,8.840036232E0
1.295032229E1,2.341428046E0,-5.710950969E0,4.593080281E0,7.693739841E0
1.296026829E1,1.848089252E0,-4.982798374E0,3.631747157E0,6.436870430E0
1.297021429E1,1.018209868E0,-4.436391858E0,2.465994204E0,5.176818663E0
1.298016029E1,1.626954134E-1,-3.911780255E0,1.418726306E0,4.164286120E0
1.299010629E1,-3.153738885E-1,-3.829859594E0,7.968269742E-1,3.924566018E0
1.300005229E1,-5.533945227E-1,-3.771557007E0,3.285024226E-2,3.812081701E0
1.300999829E1,-4.338744380E-1,-3.561364807E0,-8.931276923E-1,3.697193989E0
1.301994429E1,-3.364764167E-1,-2.965953947E0,-2.103926425E0,3.651931762E0
1.302989029E1,-2.332330070E-1,-2.225461972E0,-3.472554372E0,4.131066750E0
1.303983629E1,-1.520007098E-1,-1.540828448E0,-4.887875260E0,5.127239128E0
1.304978229E1,1.770314705E-1,-8.921155393E-1,-5.934174274E0,6.003468547E0
1.305972829E1,5.391369644E-1,-1.164563044E0,-6.977568977E0,7.094599677E0
1.306967429E1,2.782863884E-1,-2.150457398E0,-8.122118171E0,8.406587531E0
1.307962029E1,1.243069808E-1,-2.084962150E0,-8.538007232E0,8.789771720E0
1.308956629E1,2.049399385E-1,-1.608952019E0,-8.477169292E0,8.630940052E0
1.309951229E1,2.499496119E-1,-1.620987343E0,-7.933639607E0,8.101401865E0
1.310945929E1,1.072651246E-1,-1.687018195E0,-7.256977007E0,7.451258382E0
1.311940529E1,7.761754856E-2,-1.721370002E0,-6.632321298E0,6.852505014E0
1.312935129E1,1.093572584E-1,-1.821943865E0,-5.813953766E0,6.093726024E0
1.313929729E1,1.915882601E-1,-1.852233612E0,-4.916265246E0,5.257103706E0
1.314924329E1,3.875116459E-1,-1.819366413E0,-4.242107593E0,4.632033706E0
1.315918929E1,4.756207073E-1,-1.490061752E0,-3.906217214E0,4.207734783E0
1.316913529E1,6.180964489E-1,-1.249709614E0,-3.640477050E0,3.898318931E0
1.317908129E1,5.589872383E-1,-1.060327070E0,-3.432861133E0,3.636109980E0
1.318902729E1,7.651875441E-1,-8.972271752E-1,-3.074681168E0,3.293052211E0
1.319897329E1,1.161438585E0,-7.544042552E-1,-2.504966189E0,2.862327894E0
1.320891929E1,1.185058997E0,-9.255879253E-1,-1.991098113E0,2.495105114E0
1.321886529E1,1.095130282E0,-1.287636994E0,-1.450328168E0,2.227278868E0
1.322881129E1,9.121077543E-1,-1.171228285E0,-7.288393512E-1,1.653760276E0
1.323875729E1,6.725935221E-1,-5.120634788E-1,-4.491582558E-1,9.572534623E-1
1.324870329E1,5.322574228E-1,-3.639774799E-1,-2.034281409E-1,6.761365088E-1
1.325864929E1,3.068159768E-1,-4.324600697E-2,9.367239475E-3,3.099903320E-1
1.326859529E1,1.012354758E-1,8.789008319E-1,-1.205774805E-1,8.928909355E-1
1.327854129E1,4.557787657E-2,9.745987022E-1,-6.496654201E-1,1.172171119E0
1.328848729E1,-1.285636076E-1,1.033355033E0,-9.724659303E-1,1.424795147E0
1.329843329E1,-6.249094784E-2,7.318649930E-1,-1.292101927E0,1.486290307E0
1.330837929E1,2.565641284E-2,5.190818918E-1,-1.440150504E0,1.531057718E0
1.331832529E1,4.733876556E-1,-1.704229474E-1,-1.153689562E0,1.258626020E0
1.332827129E1,7.064293125E-1,-1.249385678E0,-3.876049089E-1,1.486689111E0
1.333821729E1,8.703761762E-1,-1.444742323E0,3.736230469E-1,1.727550071E0
1.334816329E1,1.232015939E0,-1.189184500E0,8.274067426E-1,1.901742613E0
1.335810929E1,1.241386102E0,-1.030719109E0,1.084147457E0,1.943912818E0
1.336805529E1,1.034788186E0,-8.397794509E-1,1.151921364E0,1.761516093E0
1.337800129E1,8.167168629E-1,-7.165751088E-1,9.948341614E-1,1.473160320E0
1.338794729E1,7.367310458E-1,-6.348082298E-1,9.146805292E-1,1.335063517E0
1.339789329E1,6.422289312E-1,-4.863351452E-1,6.713381249E-1,1.048653781E0
1.340783929E1,1.805281055E-1,-3.877212685E-1,4.871555096E-1,6.482581812E-1
1.341778529E1,2.635486275E-2,-3.667198241E-1,4.017352903E-1,5.445817217E-1
1.342773129E1,1.490221381E-1,-6.045453805E-1,1.532321334E-1,6.412197762E-1
1.343767729E1,2.438414642E-1,-1.227392546E0,4.136969393E-1,1.317989484E0
1.344762329E1,1.940085688E-1,-1.471179923E0,9.413941187E-1,1.757336786E0
1.345756929E1,3.512372741E-1,-1.296718597E0,1.089643255E0,1.729788763E0
1.346751529E1,8.388418499E-1,-1.153232017E0,1.220061892E0,1.876739394E0
1.347746129E1,9.258691764E-1,-1.031652909E0,1.459708271E0,2.013029978E0
1.348740729E1,7.864335483E-1,-9.045198226E-1,1.697468339E0,2.077987631E0
1.349735429E1,8.202699235E-1,-8.674435052E-1,1.746000813E0,2.115140615E0
1.350730029E1,7.209792316E-1,-7.807345596E-1,1.789717521E0,2.081452932E0
1.351724629E1,5.995261306E-1,-6.526641646E-1,1.602724734E0,1.831428040E0
1.352719229E1,5.680464756E-1,-5.929316407E-1,1.564581592E0,1.766963578E0
1.353713829E1,6.673833606E-1,-6.548431295E-1,1.588304331E0,1.843076428E0
1.354708429E1,7.934189245E-1,-9.084120217E-1,1.644439940E0,2.039340263E0
1.355703029E1,9.955434287E-1,-1.437366645E0,1.970630373E0,2.634485464E0
1.356697629E1,1.318748274E0,-1.765501862E0,2.680570062E0,3.470093614E0
1.357692196E1,1.736106155E0,-1.169315076E0,2.920079616E0,3.592802151E0
1.358686796E1,2.303658541E0,-3.693586725E-1,3.136655806E0,3.909204286E0
1.359681396E1,2.892763764E0,-2.078182304E-1,3.525998508E0,4.565515971E0
1.360675996E1,2.884460717E0,-1.986299157E-1,3.586850481E0,4.607066729E0
1.361670596E1,2.736869978E0,2.266538662E-1,3.733968766E0,4.635121573E0
1.362665196E1,2.642620463E0,3.439700621E-1,3.823519458E0,4.660585732E0
1.363659796E1,2.693726297E0,-6.483544743E-1,3.753273933E0,4.665146311E0
1.364654396E1,2.570635683E0,-1.675003628E0,3.788998082E0,4.875480636E0
1.365648996E1,2.648014812E0,-2.039539810E0,4.131030377E0,5.313860842E0
1.366643596E1,2.684651711E0,-2.781445349E0,4.208439910E0,5.714434313E0
1.367638196E1,2.580206406E0,-3.926593883E0,4.152096725E0,6.270208277E0
1.368632796E1,2.780202816E0,-4.558809750E0,3.910538891E0,6.618503490E0
1.369627396E1,3.151354537E0,-5.190063457E0,3.391668668E0,6.954941442E0
1.370621996E1,3.308903377E0,-6.012919897E0,2.757926971E0,7.396634939E0
1.371616596E1,3.201604924E0,-6.430164927E0,2.004806764E0,7.457650115E0
1.372611196E1,3.034509627E0,-6.378629322E0,1.144852080E0,7.155826087E0
1.373605796E1,2.415337144E0,-5.584562818E0,1.405506921E-1,6.086127660E0
1.374600396E1,1.580698419E0,-4.073080376E0,-5.677359885E-1,4.405782041E0
1.375594996E1,1.041020148E0,-2.622434705E0,-1.553186538E0,3.220756922E0
1.376589596E1,7.440174805E-1,-2.130555230E0,-2.366281928E0,3.269880390E0
1.377584196E1,5.027766386E-1,-2.022871737E0,-3.037247293E0,3.683702693E0
1.378578796E1,4.920191505E-1,-1.759605530E0,-4.240166025E0,4.617066427E0
1.379573396E1,1.360291864E-1,-1.708172252E0,-5.259349455E0,5.531465725E0
1.380567996E1,-6.808044747E-2,-1.844731050E0,-5.686771563E0,5.978882705E0
1.381562596E1,-5.287357179E-1,-1.457543632E0,-6.410197855E0,6.595045977E0
1.382557196E1,-1.423503335E0,-9.789221334E-1,-7.241535680E0,7.444762541E0
1.383551796E1,-1.755834368E0,-7.840250802E-1,-7.478123966E0,7.721398041E0
1.384546396E1,-1.560061694E0,-8.435859883E-1,-7.474851864E0,7.682372042E0
1.385540996E1,-1.405414389E0,-9.289296091E-1,-7.521397455E0,7.707757099E0
1.386535596E1,-1.460734019E0,-9.785496658E-1,-7.370795984E0,7.577594391E0
1.387530196E1,-1.412929961E0,-1.129922385E0,-6.870042774E0,7.104265155E0
1.388524796E1,-1.304462649E0,-1.154640904E0,-6.198970113E0,6.439103111E0
1.389519396E1,-1.243196839E0,-1.117879459E0,-5.513127970E0,5.761056576E0
1.390514096E1,-1.127182891E0,-1.257108096E0,-4.973242854E0,5.252047840E0
1.391508696E1,-8.407258958E-1,-1.412632338E0,-4.271585162E0,4.576984810E0
1.392503296E1,-7.200050855E-1,-1.372158496E0,-3.664043376E0,3.978245859E0
1.393497896E1,-5.170154127E-1,-1.378170018E0,-3.277028743E0,3.592433008E0
1.394492496E1,-3.606006398E-1,-1.461121543E0,-2.872679163E0,3.243022442E0
1.395487096E1,-3.546177687E-1,-1.562474840E0,-2.498988873E0,2.968505815E0
1.396481696E1,-2.109210554E-1,-1.609236778E0,-2.050607420E0,2.615171407E0
1.397476296E1,-2.122118282E-1,-1.499525471E0,-1.673563752E0,2.257083545E0
1.398470896E1,-2.283425421E-1,-1.382001114E0,-1.284999899E0,1.900866154E0
1.399465496E1,-1.367742679E-1,-1.142326083E0,-9.616295779E-1,1.499449074E0
1.400460096E1,-6.829767153E-2,-9.019412005E-1,-8.364325047E-1,1.231982888E0
1.401454696E1,-5.014411345E-2,-6.910099125E-1,-8.638764113E-1,1.107380506E0
1.402449296E1,1.232588674E-1,-5.151455462E-1,-8.075349802E-1,9.657538125E-1
1.403443896E1,5.324386865E-1,-6.562640029E-1,-6.704779994E-1,1.078755832E0
1.404438496E1,6.439222848E-1,-7.771388143E-1,-4.155469984E-1,1.091448557E0
1.405433096E1,7.378867480E-1,-9.310293442E-1,-1.958612591E-1,1.204015833E0
1.406427696E1,9.144280757E-1,-1.133077542E0,-1.275862455E-2,1.456092787E0
1.407422296E1,1.289341165E0,-1.443581066E0,4.283015299E-1,1.982364531E0
1.408416896E1,1.414780312E0,-1.726690384E0,6.990814090E-1,2.339183154E0
1.409411496E1,1.118632581E0,-1.753768839E0,9.121609640E-1,2.271361181E0
1.410406096E1,7.956981692E-1,-1.575467353E0,1.391075408E0,2.247292537E0
1.411400696E1,5.224715227E-1,-1.401292248E0,1.611583850E0,2.198590222E0
1.412395296E1,4.512968749E-1,-1.293609340E0,1.669939063E0,2.160044089E0
1.413389896E1,3.491422167E-1,-1.215255480E0,1.760446360E0,2.167468006E0
1.414384496E1,2.289746261E-1,-1.069078013E0,1.786962898E0,2.094897032E0
1.415379096E1,-2.619961917E-2,-3.030436456E-1,1.724335125E0,1.750957879E0
1.416373696E1,1.352536994E-1,1.241697174E-1,1.510971395E0,1.522086147E0
1.417368296E1,2.487218428E-1,2.977647793E-1,1.171828794E0,1.234386140E0
1.418362896E1,2.094759160E-1,3.228829560E-1,1.161217852E0,1.223339880E0
1.419357496E1,3.154751185E-1,2.775044695E-1,1.233836762E0,1.303413379E0
1.420352096E1,4.331304529E-1,1.043339154E-1,1.451049714E0,1.517904090E0
1.421346696E1,5.804297090E-1,-7.087146968E-2,1.787389745E0,1.880607219E0
1.422341296E1,8.989184824E-1,-1.382009885E-1,2.132234550E0,2.318097955E0
1.423335896E1,1.072239895E0,-2.393791616E-2,2.240495748E0,2.483967112E0
1.424330496E1,1.201212515E0,5.589294970E-2,2.301844735E0,2.597022278E0
1.425325096E1,1.272839153E0,-6.631853521E-2,2.723733038E0,3.007197918E0
1.426319696E1,1.398716842E0,-2.582481265E-1,3.306460703E0,3.599414297E0
1.427314296E1,1.578247997E0,-4.439010242E-1,3.611523977E0,3.966235028E0
1.428308896E1,1.973734368E0,-7.689532971E-1,4.096420122E0,4.611678040E0
1.429303496E1,2.372954771E0,-1.394511232E0,4.911098061E0,5.629783307E0
1.430298196E1,2.693799680E0,-2.099289291E0,5.842020986E0,6.767036385E0
1.431292796E1,3.031552982E0,-2.834573151E0,6.552041366E0,7.755924477E0
1.432287396E1,3.260604499E0,-3.722777195E0,7.189333493E0,8.727950952E0
1.433281996E1,3.522425274E0,-4.625896025E0,7.365001978E0,9.383477392E0
1.434276596E1,3.412424822E0,-5.250969225E0,7.376433284E0,9.676212532E0
1.435271196E1,2.620706853E0,-5.969887898E0,7.092543948E0,9.633890469E0
1.436265796E1,2.287360012E0,-6.220667961E0,5.728041796E0,8.760090668E0
1.437260396E1,2.550934075E0,-5.407775761E0,5.059770536E0,7.832788853E0
1.438254996E1,2.033658388E0,-4.135247388E0,4.538555580E0,6.467961360E0
1.439249596E1,1.873144863E0,-3.668972871E0,3.861706454E0,5.646486548E0
1.440244196E1,1.847607441E0,-3.173190964E0,2.425472415E0,4.400648882E0
1.441238796E1,5.137726200E-1,-2.857644217E0,6.818616512E-1,2.982453367E0
1.442233396E1,4.137418167E-1,-2.582960152E0,-5.591473058E-1,2.674978719E0
1.443227996E1,8.066127281E-1,-2.354308877E0,-1.811907997E0,3.078377003E0
1.444222596E1,2.507851790E-1,-2.142937878E0,-3.731234023E0,4.310125670E0
1.445217196E1,-2.531182180E-1,-1.851998554E0,-5.431828868E0,5.744452309E0
1.446211796E1,-1.081158945E-1,-2.274811302E0,-6.362836577E0,6.758116958E0
1.447206396E1,-4.293199687E-1,-2.133170105E0,-7.426249807E0,7.738469909E0
1.448200996E1,-8.154882167E-1,-1.630263366E0,-8.381500073E0,8.577431034E0
1.449195596E1,-8.169337946E-1,-1.478311772E0,-8.868925139E0,9.028323191E0
1.450190196E1,-5.705733499E-1,-1.557296546E0,-9.084202663E0,9.234363243E0
1.451184796E1,-3.947947915E-1,-1.974459715E0,-8.698668838E0,8.928672557E0
1.452179396E1,-4.933914189E-1,-1.995238965E0,-8.026971109E0,8.285932585E0
1.453173996E1,7.699131176E-2,-1.857590246E0,-7.504513035E0,7.731383128E0
1.454168596E1,3.342424880E-1,-2.094812370E0,-6.531543952E0,6.867388390E0
1.455163196E1,1.348568197E-1,-2.296624340E0,-5.618909363E0,6.071639989E0
1.456157796E1,2.413761319E-1,-2.182629948E0,-4.576105814E0,5.075714762E0
1.457152396E1,2.774452664E-1,-1.975606939E0,-3.763562109E0,4.259624209E0
1.458147017E1,4.546351965E-1,-1.951564357E0,-3.214578726E0,3.787982707E0
1.459141617E1,3.696877246E-1,-1.604675950E0,-2.862055357E0,3.301971348E0
1.460136217E1,3.716535585E-1,-1.195967270E0,-2.767607621E0,3.037781431E0
1.461130817E1,3.503834344E-1,-1.019339257E0,-2.832887691E0,3.031018598E0
1.462125417E1,2.249991041E-1,-4.206586343E-1,-2.817282057E0,2.857386301E0
1.463120017E1,4.208565626E-1,-5.042732334E-1,-2.935250802E0,3.007841254E0
1.464114617E1,5.177270919E-1,-1.078994890E0,-2.811683055E0,3.055786792E0
1.465109217E1,5.411375892E-1,-1.517198680E0,-2.431095098E0,2.916323902E0
1.466103817E1,6.266693442E-1,-1.896097085E0,-1.870709936E0,2.736321306E0
1.467098417E1,4.531212062E-1,-1.839089071E0,-1.410574703E0,2.361628343E0
1.468093017E1,1.448384553E-1,-1.606331881E0,-1.152811895E0,1.982487215E0
1.469087617E1,4.826774195E-2,-1.418376058E0,-6.490426916E-1,1.560569393E0
1.470082217E1,1.248887788E-1,-1.159966548E0,-1.915097612E-1,1.182284056E0
1.471076917E1,8.431392610E-2,-6.255409777E-1,-1.404968977E-2,6.313538997E-1
1.472071517E1,6.477545500E-2,-6.124437994E-1,-6.077829838E-2,6.188515723E-1
1.473066117E1,1.301368010E-1,-8.372055066E-1,-2.716552073E-1,8.897444570E-1
1.474060717E1,1.827269509E-1,-1.033920459E0,-3.294683826E-1,1.100422678E0
1.475055317E1,2.416402799E-1,-1.284973587E0,-4.207305551E-1,1.373521512E0
1.476049917E1,5.839014933E-1,-1.800558844E0,-3.282574242E-1,1.921121037E0
1.477044517E1,6.269086415E-1,-2.111613175E0,1.805520791E-1,2.210095857E0
1.478039117E1,7.388497844E-1,-2.752869714E0,8.564872849E-1,2.976199109E0
1.479033717E1,1.179695638E0,-3.450366235E0,1.750350557E0,4.044803583E0
1.480028317E1,9.994598937E-1,-2.461754973E0,2.982026773E0,3.993950588E0
1.481022917E1,9.066470397E-1,-1.559120000E0,3.332570275E0,3.789312427E0
1.482017517E1,9.816940060E-1,-1.247009370E0,2.834547715E0,3.248602198E0
1.483012117E1,7.865846989E-1,-1.345630555E0,2.564801624E0,3.001273805E0
1.484006717E1,7.672175512E-1,-1.618838491E0,3.012117130E0,3.504584203E0
1.485001317E1,6.641571593E-1,-1.084007124E0,3.147249792E0,3.394312512E0
1.485995917E1,4.918926314E-1,-6.681595784E-1,2.650711255E0,2.777528711E0
1.486990517E1,3.817793280E-1,-5.470210576E-1,2.278138368E0,2.373794835E0
1.487985117E1,2.564734966E-1,-4.179045957E-1,2.118743854E0,2.174741002E0
1.488979717E1,2.115203950E-1,-2.262504083E-1,2.063208754E0,2.086327033E0
1.489974317E1,2.323285890E-1,2.209779739E-2,1.864226251E0,1.878777369E0
1.490968917E1,2.580943447E-1,1.193682763E-1,1.697699304E0,1.721349587E0
1.491963517E1,2.450275719E-1,1.086278182E-1,1.669413983E0,1.690793175E0
1.492958117E1,2.519378114E-1,1.700817624E-1,1.597841724E0,1.626498891E0
1.493952717E1,2.970332927E-1,1.704287946E-1,1.488590008E0,1.527473392E0
1.494947317E1,3.279957613E-1,1.940723035E-1,1.584998900E0,1.630173853E0
1.495941917E1,5.313122204E-1,1.499883905E-1,1.851518497E0,1.932073999E0
1.496936517E1,7.449528158E-1,-1.355507380E-1,2.306704355E0,2.427800174E0
1.497931117E1,9.945695749E-1,-7.719742611E-1,2.947270339E0,3.204920490E0
1.498925717E1,1.464031702E0,-1.549784628E0,3.873562269E0,4.421504932E0
1.499920317E1,1.840326634E0,-2.306243595E0,5.266997613E0,6.037120629E0
1.500914917E1,2.363617060E0,-3.271626793E0,6.524045482E0,7.671596765E0
1.501909517E1,3.102709796E0,-4.708430058E0,7.187077053E0,9.135108004E0
1.502904117E1,2.842344977E0,-5.726795754E0,7.066923788E0,9.529770533E0
1.503898717E1,2.568234524E0,-6.169191413E0,6.483961065E0,9.311095658E0
1.504893317E1,2.698234500E0,-6.154678624E0,6.029127209E0,9.028339453E0
1.505887917E1,2.196784303E0,-5.362414232E0,4.819625974E0,7.537250307E0
1.506882617E1,1.575909842E0,-4.291586148E0,3.373803086E0,5.681879157E0
1.507877217E1,1.370620093E0,-3.353740119E0,2.524871573E0,4.416010495E0
1.508871817E1,6.567887905E-1,-2.775663330E0,1.697694626E0,3.319314007E0
1.509866417E1,4.978725788E-1,-3.275592082E0,6.215540537E-1,3.371010240E0
1.510861017E1,3.928717884E-1,-3.733299260E0,5.790673077E-2,3.754360770E0
1.511855617E1,6.293612561E-1,-3.367196901E0,-1.151516737E0,3.613876223E0
1.512850217E1,1.006156710E-1,-2.804059748E0,-2.619259374E0,3.838410381E0
1.513844817E1,-6.359558921E-1,-2.290021665E0,-3.692612287E0,4.391357947E0
1.514839417E1,-5.783782133E-1,-1.526891025E0,-4.680623040E0,4.957232050E0
1.515834017E1,-4.035638608E-1,-5.312914628E-1,-6.017162637E0,6.054038371E0
1.516828617E1,-1.503766456E-1,-3.056643677E-1,-7.721140680E0,7.728651709E0
1.517823217E1,7.468107685E-2,-8.125325954E-1,-8.638512683E0,8.676963055E0
1.518817817E1,8.292667419E-1,-1.179725459E0,-8.623792318E0,8.743525000E0
1.519812417E1,9.006878498E-1,-1.280532042E0,-8.633154294E0,8.773958855E0
1.520807017E1,6.493011385E-1,-1.184980937E0,-8.794513473E0,8.897709762E0
1.521801617E1,9.095922822E-1,-1.176867925E0,-8.107353367E0,8.242666732E0
1.522796217E1,8.482672691E-1,-1.429239015E0,-7.043851259E0,7.237273111E0
1.523790817E1,6.969392815E-1,-1.722970970E0,-5.942469719E0,6.226339188E0
1.524785417E1,7.341065231E-1,-1.467509626E0,-4.753032035E0,5.028300947E0
1.525780017E1,9.612790373E-1,-1.105879219E0,-4.004579076E0,4.264232616E0
1.526774617E1,1.004887279E0,-1.004856289E0,-3.239001376E0,3.537041775E0
1.527769217E1,9.913606229E-1,-5.824446595E-1,-2.591990300E0,2.835568969E0
1.528763817E1,9.622096217E-1,-1.060649836E-1,-2.452103559E0,2.636268006E0
1.529758417E1,1.093290163E0,7.066418588E-2,-2.377168567E0,2.617481080E0
1.530753017E1,9.512472618E-1,9.716084361E-2,-2.147646056E0,2.350892419E0
1.531747617E1,1.039705987E0,-4.742793560E-2,-1.807674613E0,2.085887210E0
1.532742217E1,1.481113466E0,-5.816962159E-1,-1.542505722E0,2.216165943E0
1.533736817E1,1.543678381E0,-1.229847207E0,-1.222120112E0,2.321431598E0
1.534731417E1,1.499105348E0,-2.039167927E0,-4.627235037E-1,2.572865274E0
1.535726017E1,1.038603202E0,-1.785954253E0,-6.598816752E-2,2.067047083E0
1.536720617E1,4.490202615E-1,-6.981481934E-1,6.981341600E-2,8.330090084E-1
1.537715217E1,2.545526862E-1,-2.841466141E-1,1.952858931E-1,4.285708207E-1
1.538709817E1,1.879470527E-2,-2.816399127E-1,5.862242997E-1,6.506406158E-1
1.539704417E1,-5.969349369E-2,-5.126429379E-1,4.510787737E-1,6.854474123E-1
1.540699017E1,-2.071836613E-1,-2.395089698E-1,3.502973342E-1,4.722264695E-1
1.541693717E1,-3.614946060E-1,-7.659852505E-4,1.090289372E-1,3.775794566E-1
1.542688317E1,-3.015875427E-1,-7.386027396E-2,-4.689806092E-1,5.624528405E-1
1.543682917E1,-2.617808680E-1,-2.269900811E-1,-8.652423209E-1,9.320396953E-1
1.544677517E1,-1.494375828E-1,-3.906676805E-1,-1.059376312E0,1.138960491E0
1.545672117E1,8.577865362E-2,-8.783862770E-1,-1.085225099E0,1.398797321E0
1.546666717E1,2.404018396E-1,-1.738432762E0,-5.801268232E-1,1.848374595E0
1.547661317E1,4.171102515E-1,-2.327599381E0,1.681261611E-1,2.370646799E0
1.548655917E1,5.971322805E-1,-2.438183677E0,5.920282459E-1,2.579109158E0
1.549650517E1,5.163483185E-1,-2.469600182E0,8.735412741E-1,2.669946629E0
1.550645117E1,2.279814765E-1,-1.288048638E0,1.404059735E0,1.918965499E0
1.551639717E1,5.019609520E-1,-1.024950246E0,1.527617834E0,1.906857113E0
1.552634317E1,4.821119937E-1,-7.451653621E-1,1.170893240E0,1.469249594E0
1.553628917E1,4.144409975E-1,-6.390667570E-1,1.129644642E0,1.362448046E0
1.554623517E1,2.257683054E-1,-3.651741126E-1,1.104285852E0,1.184808298E0
1.555618117E1,-1.522816685E-1,-2.065581554E-1,8.220834374E-1,8.612068023E-1
1.556612717E1,-2.652399346E-1,-1.781968206E-1,6.325032574E-1,7.086372135E-1
1.557607242E1,-3.236112267E-2,-3.903665489E-1,7.052870589E-1,8.067608817E-1
1.558601842E1,-4.141465902E-2,-4.742588907E-1,7.264282519E-1,8.685244237E-1
1.559596442E1,3.051729092E-1,-4.653743389E-1,9.197681916E-1,1.075024328E0
1.560591042E1,6.605108356E-1,-4.023103639E-1,1.411168780E0,1.609200273E0
1.561585642E1,9.517477834E-1,-3.163007453E-1,1.842185172E0,2.097502375E0
1.562580242E1,1.121563205E0,-3.135940692E-1,2.055694497E0,2.362652139E0
1.563574842E1,1.191313471E0,-3.971215448E-1,2.331786572E0,2.648426311E0
1.564569442E1,1.259867982E0,-4.716881624E-1,2.431575154E0,2.778905321E0
1.565564042E1,1.246329339E0,-4.771477076E-1,2.542450642E0,2.871421603E0
1.566558642E1,1.200150953E0,-5.607017881E-1,2.750540768E0,3.052904080E0
1.567553242E1,9.769744259E-1,-8.161906135E-1,3.033686339E0,3.289969445E0
1.568547842E1,6.304201868E-1,-8.330569071E-1,3.474786839E0,3.628437267E0
1.569542442E1,7.724923244E-1,-1.000082915E0,3.989459930E0,4.184817889E0
1.570537042E1,1.484081220E0,-1.624897376E0,4.688700968E0,5.179450291E0
1.571531642E1,2.019430066E0,-2.022239068E0,5.703019806E0,6.379026850E0
1.572526242E1,2.202302320E0,-2.263373856E0,6.122159334E0,6.888674156E0
1.573520842E1,2.503012634E0,-3.006738568E0,5.992058786E0,7.156138453E0
1.574515542E1,2.780233221E0,-3.820073109E0,5.814137369E0,7.491785413E0
1.575510142E1,2.803946897E0,-4.462849925E0,5.628004122E0,7.710614635E0
1.576504742E1,2.598500297E0,-4.652823622E0,4.980598066E0,7.294335374E0
1.577499342E1,1.931283875E0,-4.514536972E0,4.581208094E0,6.715531928E0
1.578493942E1,1.437404505E0,-4.040662243E0,3.979957620E0,5.850909821E0
1.579488542E1,1.039417427E0,-3.641868103E0,3.188398402E0,4.950704620E0
1.580483142E1,6.707082336E-1,-3.408652491E0,2.455807185E0,4.254380128E0
1.581477742E1,6.779293987E-1,-3.278095860E0,1.485937126E0,3.662445888E0
1.582472342E1,5.486413211E-1,-3.031762020E0,7.293237931E-1,3.166149308E0
1.583466942E1,3.720620596E-1,-2.673889618E0,-1.581420404E-1,2.704278974E0
1.584461542E1,2.969542821E-1,-1.943794577E0,-1.637578817E0,2.558941888E0
1.585456142E1,8.687917270E-2,-9.917152566E-1,-3.291719580E0,3.438962770E0
1.586450742E1,-2.158452149E-1,-1.524866134E-1,-4.633513485E0,4.641043906E0
1.587445342E1,-2.688768297E-1,4.543725103E-1,-5.894786260E0,5.918382734E0
1.588439942E1,-5.685196616E-2,-3.560743833E-1,-7.229892704E0,7.238879031E0
1.589434542E1,-2.169614484E-1,-9.382629347E-1,-7.914709246E0,7.973081716E0
1.590429142E1,-6.132113926E-2,-1.082452934E0,-7.982545134E0,8.055835863E0
1.591423742E1,3.874193329E-1,-1.449771513E0,-7.775507507E0,7.918992876E0
1.592418342E1,-5.639274046E-2,-1.494940084E0,-7.618899191E0,7.764383484E0
1.593412942E1,-2.717945903E-1,-1.269739836E0,-7.361720520E0,7.475362237E0
1.594407542E1,3.151618539E-1,-2.026549636E0,-6.456560428E0,6.774466988E0
1.595402142E1,6.371126175E-2,-2.302439396E0,-5.059633126E0,5.559242185E0
1.596396742E1,-7.543975309E-2,-2.170206369E0,-4.239639776E0,4.763405533E0
1.597391342E1,-6.055266894E-2,-1.998009376E0,-3.825714211E0,4.316456569E0
1.598385942E1,2.145898908E-2,-2.088234252E0,-3.179583140E0,3.804067787E0
1.599380542E1,1.405707188E-2,-2.026419827E0,-2.687318918E0,3.365747745E0
1.600375142E1,-6.158959955E-2,-1.630175657E0,-2.638454614E0,3.102049113E0
1.601369742E1,-1.643674247E-1,-1.241112453E0,-2.721507003E0,2.995659717E0
