"Time (s)","Linear Acceleration x (m/s^2)","Linear Acceleration y (m/s^2)","Linear Acceleration z (m/s^2)","Absolute acceleration (m/s^2)"
3.639333299E-3,2.572567950E-2,1.763311020E-2,-3.918043792E-2,5.007837734E-2
1.361733332E-2,1.028314300E-2,-3.439752515E-3,-9.092420340E-3,1.415086693E-2
2.359633334E-2,6.761202839E-3,3.156902594E-3,-9.394136667E-3,1.199707054E-2
3.357433330E-2,-7.496563297E-3,-1.049645559E-2,-3.693744600E-2,3.912478700E-2
4.355233331E-2,-1.716529755E-2,-9.533071993E-3,-2.359936237E-3,1.977615232E-2
5.353033333E-2,-1.034199431E-2,1.646117287E-2,-3.873488009E-2,4.333956615E-2
6.350833329E-2,-2.020083273E-2,4.352228791E-3,-1.403741062E-2,2.498128170E-2
7.348633331E-2,-2.321022560E-2,4.892310519E-3,-2.137215793E-2,3.192833239E-2
8.346433332E-2,-1.451228104E-2,9.141299408E-4,-3.304904759E-2,3.610652962E-2
9.344233334E-2,4.557904030E-3,-7.103115348E-3,1.827839613E-3,8.635376914E-3
1.034203333E-1,1.518466059E-2,2.114718631E-3,-4.759048820E-3,1.605286572E-2
1.133983333E-1,1.127915908E-2,-3.998335199E-3,-2.721177220E-2,2.972686765E-2
1.233773333E-1,-3.710939982E-3,-1.441191564E-2,-3.050433934E-2,3.394096502E-2
1.333553333E-1,1.032797013E-2,9.627349209E-3,-1.658270359E-2,2.177932226E-2
1.433333333E-1,9.747527763E-3,-1.269183839E-3,1.380293727E-2,1.694538882E-2
1.533113333E-1,3.213433293E-3,-6.577350162E-3,-1.014784276E-2,1.251264966E-2
1.632893333E-1,-1.843679743E-2,-1.326660141E-3,-4.263029516E-2,4.646522992E-2
1.732673333E-1,-2.260757638E-2,4.022856960E-3,-2.077457249E-2,3.096560592E-2
1.832453333E-1,-1.337343073E-2,1.227877828E-2,-3.230060399E-2,3.705328681E-2
1.932233333E-1,4.967226114E-4,-3.635122608E-3,-2.900628269E-2,2.923739532E-2
2.032013333E-1,-2.183528482E-2,-1.102466930E-2,-2.631130099E-2,3.592502688E-2
2.131793333E-1,-2.487569991E-3,-1.367746881E-2,-2.571371555E-2,2.923108491E-2
2.231583333E-1,4.812027220E-3,1.529192160E-2,-2.376659274E-2,2.866791591E-2
2.331363333E-1,1.155952736E-2,-5.512891961E-3,-5.636715889E-4,1.281921902E-2
2.431143333E-1,7.732735992E-3,-1.694376916E-2,-2.780760348E-2,3.346863204E-2
2.530923333E-1,1.749642582E-2,-2.125683074E-2,-4.068200290E-2,4.912232822E-2
2.630703333E-1,2.347821081E-2,2.139313482E-3,-2.556519628E-2,3.477617439E-2
2.730483333E-1,-1.180483747E-2,9.094613045E-3,-2.885659397E-2,3.247721031E-2
2.830263333E-1,-1.482732034E-2,-6.340108523E-3,-3.065168917E-2,3.463484450E-2
2.930043333E-1,-1.788929362E-2,4.084682129E-3,-2.661067843E-2,3.232397966E-2
3.029823333E-1,-2.325967797E-2,1.685015889E-2,-1.987702489E-2,3.492902221E-2
3.129603333E-1,-2.634251964E-2,2.486238836E-2,-2.826017797E-2,4.594240258E-2
3.229393333E-1,-3.739701888E-2,4.284684313E-3,-2.017640233E-2,4.270811107E-2
3.329173333E-1,-2.971184690E-3,6.306934711E-3,-3.708888888E-2,3.773845575E-2
3.428953333E-1,3.838021277E-3,-7.761137243E-3,-2.870632052E-2,2.998363715E-2
3.528733333E-1,1.489951975E-2,-1.697142466E-2,-2.017523289E-2,3.028308052E-2
3.628513333E-1,1.979477786E-2,-3.392554522E-3,-2.750881076E-2,3.405990790E-2
3.728293333E-1,1.921336134E-2,-1.587740147E-2,-1.673180759E-2,3.001996864E-2
3.828073333E-1,1.096262143E-2,-1.811885851E-2,-2.092426121E-2,2.977073747E-2
3.927853333E-1,9.140527393E-3,-5.216154903E-3,-5.507492423E-3,1.187813057E-2
4.027633333E-1,-1.782740535E-4,8.593342211E-3,-2.736146092E-2,2.867972901E-2
4.127413333E-1,-9.100217579E-4,6.243090425E-4,-1.987760961E-2,1.990822105E-2
4.227203333E-1,-3.855970059E-3,2.923516463E-4,-9.996984601E-3,1.071884675E-2
4.326983333E-1,-4.356367523E-3,1.534116612E-2,-1.852865696E-2,2.444668576E-2
4.426763333E-1,-1.363146995E-2,1.680106055E-2,-2.526464939E-2,3.326251821E-2
4.526543333E-1,-1.028408517E-2,-4.895754894E-3,-7.151144743E-3,1.344878043E-2
4.626323333E-1,2.669667933E-3,-1.444948400E-2,-1.807725191E-2,2.329595998E-2
4.726103333E-1,1.722948444E-2,3.926560627E-3,-2.810405731E-2,3.319805792E-2
4.825883333E-1,6.671713602E-3,-3.069331404E-3,-3.154748261E-2,3.239098975E-2
4.925663333E-1,1.193751117E-3,-1.148246974E-4,-1.747615814E-2,1.751725806E-2
5.025443333E-1,-6.145070762E-3,-1.879194612E-2,-1.927183807E-2,2.760983296E-2
5.125233333E-1,6.345640537E-3,-5.955937319E-4,-3.169775605E-2,3.233217630E-2
5.225013333E-1,-1.658910355E-2,-2.872499507E-3,-8.047522902E-3,1.866044573E-2
5.324793333E-1,3.821257641E-3,-2.151355091E-3,-9.095343947E-3,1.009730757E-2
5.424573333E-1,-1.253542537E-2,1.361651159E-2,-2.107044160E-2,2.804478180E-2
5.524353333E-1,-3.018983394E-3,-1.071568049E-2,-9.693514109E-3,1.476158138E-2
5.624133333E-1,4.331700438E-6,-6.694632517E-3,-2.466238618E-2,2.555487068E-2
5.723913333E-1,-2.186730175E-3,-6.327418238E-4,-2.076989472E-2,2.089427380E-2
5.823693333E-1,1.111231358E-2,1.771779433E-3,-2.989973724E-2,3.194709693E-2
5.923473333E-1,-2.225511490E-2,-4.370830245E-3,-1.133716643E-2,2.535597837E-2
6.023253333E-1,-1.187368615E-2,1.345612429E-2,-2.055881023E-3,1.806317665E-2
6.123043333E-1,-8.932867298E-3,-5.124709932E-3,-4.337055266E-2,4.457649165E-2
6.222823333E-1,-2.615978959E-2,3.653066251E-3,-1.148568571E-2,2.880278563E-2
6.322603333E-1,6.722091019E-3,-1.121834004E-3,-2.735152066E-2,2.818777575E-2
6.422383333E-1,7.505297005E-3,1.358084357E-2,-1.911688685E-2,2.462161973E-2
6.522163333E-1,1.205927701E-2,-1.432863850E-2,-8.187856078E-3,2.043959467E-2
6.621943333E-1,8.169626927E-3,-9.040973978E-3,-1.611960411E-2,2.020701985E-2
6.721723333E-1,4.793569091E-3,1.063049387E-2,-1.596816123E-2,1.977290766E-2
6.821503333E-1,8.465832939E-3,-4.560243487E-3,-1.087932944E-2,1.451984701E-2
6.921283333E-1,-1.278693102E-2,4.799065702E-3,-3.378111899E-2,3.643762666E-2
7.021063333E-1,4.567390909E-3,-1.323754806E-3,-3.872084677E-2,3.901175927E-2
7.120853333E-1,-3.649495110E-2,1.244780850E-2,-3.991309404E-3,3.876544780E-2
7.220633333E-1,-6.417533424E-2,3.400983648E-2,-1.686336994E-2,7.456216030E-2
7.320413333E-1,-5.452648738E-2,2.262895298E-2,-5.967200518E-2,8.394019026E-2
7.420193333E-1,-4.482290510E-2,-1.613700871E-2,-2.015301347E-2,5.172658720E-2
7.519973333E-1,-3.145053703E-3,-1.142206983E-2,-5.069009721E-2,5.205613314E-2
7.619753333E-1,4.079184833E-2,-1.331580025E-2,-3.482250810E-2,5.526203486E-2
7.719533333E-1,5.984670445E-2,-1.966960405E-2,-1.132196367E-2,6.400553272E-2
7.819313333E-1,9.650252935E-2,-4.851111403E-2,-3.197842240E-2,1.126440671E-1
7.919093333E-1,7.257570006E-2,-4.389937850E-2,-4.006219804E-2,9.380494328E-2
8.018873333E-1,2.251455769E-2,3.761769645E-3,-5.036791563E-3,2.337574572E-2
8.118663333E-1,-1.862742580E-2,2.521719558E-2,-6.682782769E-3,3.205538224E-2
8.218443333E-1,-5.658183850E-2,8.103500856E-3,-4.111001909E-2,7.040742037E-2
8.318223333E-1,-6.881763061E-2,2.972785651E-2,-2.090028763E-2,7.782309271E-2
8.418003333E-1,-7.988583882E-2,3.256614980E-2,-3.556861281E-2,9.331359802E-2
8.517783333E-1,-3.450327753E-2,2.097617352E-2,-1.401168287E-2,4.274111923E-2
8.617563333E-1,-6.900655506E-3,5.365076177E-3,-1.131553173E-2,1.429840366E-2
8.717343333E-1,5.648120244E-2,-2.322442794E-2,-2.852681100E-2,6.740385173E-2
8.817123333E-1,7.445599560E-2,-4.260359896E-2,-3.152117014E-2,9.139117075E-2
8.916903333E-1,5.001599091E-2,-2.570879110E-2,-6.524907947E-3,5.661374135E-2
9.016693333E-1,4.913846088E-2,-1.144289140E-2,-2.807949901E-2,5.774068207E-2
9.116473333E-1,-3.599937673E-3,6.945761293E-4,-2.374086499E-2,2.402229502E-2
9.216253333E-1,-3.603808028E-2,1.346262932E-2,-3.684915304E-3,3.864665857E-2
9.316033333E-1,-5.077150599E-2,4.127702105E-2,-2.703869462E-2,7.079992439E-2
9.415811250E-1,-5.624775692E-2,2.159989784E-2,-2.464309037E-2,6.509721690E-2
9.515591250E-1,-3.876800365E-2,3.517164169E-3,-8.026472926E-3,3.974610445E-2
9.615371250E-1,2.642071245E-3,-1.222104616E-2,-3.721343458E-2,3.925779187E-2
9.715151250E-1,5.716672452E-2,-1.915440953E-2,-6.825454831E-3,6.067546976E-2
9.814931250E-1,6.953495150E-2,-3.231208828E-2,-1.136114001E-3,7.668423100E-2
9.914721250E-1,3.847059051E-2,-1.294429192E-2,-1.311179638E-2,4.265513137E-2
1.001450125E0,2.645392737E-2,-4.264940824E-3,2.304387689E-3,2.689442686E-2
1.011428125E0,-5.672659135E-3,2.274493799E-3,-1.401402175E-2,1.528872753E-2
1.021406125E0,-3.366721477E-2,2.941303876E-2,-1.895608842E-2,4.855863968E-2
1.031384125E0,-6.490038441E-2,1.452819301E-2,-1.581321001E-2,6.836070436E-2
1.041362125E0,-5.810924543E-2,8.971547429E-3,-3.257834673E-2,6.721995049E-2
1.051340125E0,-1.911697022E-2,2.747676984E-2,-1.641138017E-2,3.727954977E-2
1.061318125E0,-8.107390054E-3,-2.933274005E-3,-1.416487992E-2,1.658245136E-2
1.071296125E0,-2.602598828E-3,-5.219800277E-3,-2.898347855E-2,2.956453727E-2
1.081274125E0,3.797491793E-2,-2.241975971E-2,-1.805620193E-2,4.765255969E-2
1.091252125E0,5.233321506E-2,-2.898650265E-2,-3.407347977E-2,6.884754722E-2
1.101231125E0,1.966189989E-2,-1.190159633E-2,-2.703927934E-2,3.548747567E-2
1.111209125E0,2.710983194E-2,-9.915936710E-3,-2.793858111E-2,4.017254165E-2
1.121187125E0,-1.025986605E-2,4.572385596E-3,-1.910694659E-2,2.216409189E-2
1.131165125E0,-6.037653071E-2,2.167622228E-2,-1.744224429E-3,6.417340876E-2
1.141143125E0,-6.437325336E-2,1.819939476E-2,-6.655944049E-2,9.436785913E-2
1.151121125E0,-3.950995137E-2,-3.616347564E-3,6.525492668E-4,3.968047438E-2
1.161099125E0,-2.915303410E-2,7.052208027E-3,-5.338507891E-2,6.123397492E-2
1.171077125E0,3.498093909E-3,1.796752525E-2,-2.703635573E-2,3.265016319E-2
1.181055125E0,1.966628301E-2,-1.296441914E-2,-6.229038835E-3,2.436472401E-2
1.191034125E0,4.720556782E-2,-2.173157897E-2,-5.023576856E-2,7.227903984E-2
1.201012125E0,3.580737564E-2,-2.311771626E-2,-1.460868359E-2,4.505563884E-2
1.210990125E0,2.700049586E-2,-1.433171743E-2,-1.490864575E-2,3.401018405E-2
1.220968125E0,-4.772012336E-3,-6.587774651E-3,-1.356144726E-2,1.581403581E-2
1.230946125E0,-1.711627687E-2,8.075169269E-3,-9.370163083E-3,2.111812607E-2
1.240924125E0,-4.073813617E-2,1.324799996E-2,-3.092592359E-2,5.283481798E-2
1.250902125E0,-6.078806506E-2,1.891040705E-2,-2.703401685E-2,6.916379410E-2
1.260880125E0,-4.522617111E-2,2.082035436E-2,-3.481607616E-2,6.075403582E-2
1.270858125E0,-2.448157246E-3,-2.998525277E-3,-2.254043162E-2,2.287041069E-2
1.280836125E0,1.956538657E-2,-6.403870583E-3,-4.753786325E-2,5.180407660E-2
1.290815125E0,2.423931500E-2,-2.894880638E-2,-7.612957835E-2,8.497817651E-2
1.300793125E0,9.420147641E-2,-4.967219747E-2,-4.050541699E-2,1.139382910E-1
1.310771125E0,1.232897206E-1,-3.234197304E-2,1.046920574E-1,1.649447947E-1
1.320749125E0,6.132213512E-2,1.799910022E-2,5.050298631E-2,8.145503969E-2
1.330727125E0,-5.206555876E-2,5.645765369E-2,-7.508468091E-2,1.074057651E-1
1.340705125E0,-1.816066975E-1,3.400705906E-2,-3.526748121E-2,1.880990906E-1
1.350683125E0,-1.883002976E-1,5.327649429E-2,-2.074650586E-2,1.967887305E-1
1.360661125E0,-1.744408251E-1,7.394098381E-2,-4.724140942E-2,1.952655149E-1
1.370639125E0,-1.090819367E-1,4.280799570E-2,-2.688257396E-2,1.202250648E-1
1.380618125E0,-8.626693610E-3,-2.674269760E-3,-2.523482859E-2,2.680239048E-2
1.390596125E0,1.207589269E-1,-6.263604102E-2,-5.756700754E-2,1.477157826E-1
1.400574125E0,1.994591971E-1,-8.318873908E-2,-9.517512918E-3,2.163213366E-1
1.410552125E0,1.977492337E-1,-8.271460298E-2,1.263407886E-2,2.147232752E-1
1.420530125E0,1.397804676E-1,-4.989218982E-2,-5.996553540E-2,1.600739678E-1
1.430508125E0,5.420360687E-2,-2.916339006E-2,1.562434494E-2,6.350318475E-2
1.440486125E0,-5.563000772E-2,2.389207947E-2,-6.981575489E-3,6.094482436E-2
1.450464125E0,-1.284727839E-1,7.382379281E-2,-1.910694659E-2,1.493997457E-1
1.460442125E0,-1.889098150E-1,6.681166562E-2,-1.177161455E-2,2.007219166E-1
1.470420125E0,-1.730146344E-1,6.239759339E-2,-8.476708531E-3,1.841178372E-1
1.480399125E0,-9.027141659E-2,4.272951510E-2,-3.586974442E-2,1.061196432E-1
1.490377125E0,-1.092092861E-3,8.354657041E-3,3.350454569E-3,9.067442137E-3
1.500355125E0,9.552657424E-2,-4.168721236E-2,-1.550857008E-2,1.053739332E-1
1.510333125E0,1.553925334E-1,-5.496225569E-2,-3.870973706E-2,1.693107579E-1
1.520311125E0,1.380588829E-1,-6.005093216E-2,-7.125416994E-3,1.507220659E-1
1.530289125E0,1.228679354E-1,-4.088858320E-2,-7.127755880E-3,1.296888996E-1
1.540267125E0,2.104520265E-2,5.228342693E-3,-4.545040727E-2,5.035847141E-2
1.550245125E0,-7.752503464E-2,1.057310893E-2,-1.611375690E-2,7.988475943E-2
1.560223125E0,-1.191362972E-1,4.813530251E-2,-1.476831257E-2,1.293389644E-1
1.570201125E0,-1.202936530E-1,6.658648387E-2,-2.479804158E-2,1.397113655E-1
1.580180125E0,-9.895010987E-2,4.391587861E-2,-1.357080281E-2,1.091049739E-1
1.590158125E0,-6.283251203E-2,1.698729437E-2,-2.225040972E-2,6.878643377E-2
1.600136125E0,2.273238703E-2,-1.513783833E-2,-3.556978226E-2,4.484556811E-2
1.610114125E0,1.001583182E-1,-5.207551274E-2,-1.012153029E-2,1.133401655E-1
1.620092125E0,1.447449456E-1,-5.644823419E-2,-1.461219192E-2,1.560481290E-1
1.630070125E0,1.304871040E-1,-5.486878247E-2,-4.095799148E-2,1.473601869E-1
1.640048125E0,6.869187893E-2,-2.791130019E-2,-1.476480424E-2,7.560168221E-2
1.650026125E0,-6.512052066E-3,4.765489893E-3,-2.569383502E-2,2.693120632E-2
1.660004125E0,-5.098831435E-2,3.403803103E-2,-2.270064533E-2,6.537365719E-2
1.669983125E0,-8.890505933E-2,3.603700220E-2,8.733401299E-3,9.632781219E-2
1.679961125E0,-1.403234547E-1,4.103867392E-2,-7.164885700E-2,1.628140147E-1
1.689939125E0,-1.068353725E-1,4.291267913E-2,-3.377585649E-2,1.199837628E-1
1.699917125E0,-4.982590615E-2,1.049376952E-2,1.831698775E-2,5.411332703E-2
1.709895125E0,6.486131314E-2,-1.948030044E-2,-7.239203811E-2,9.913162577E-2
1.719873125E0,6.310747735E-2,-4.770395159E-2,-2.186273932E-3,7.913912110E-2
1.729851125E0,7.625004013E-2,-3.724531104E-2,-2.015008986E-2,8.721988269E-2
1.739829125E0,8.258850412E-2,-1.802474574E-2,-4.889149368E-2,9.765311376E-2
1.749807125E0,5.143417825E-2,-2.438464344E-2,7.388541698E-3,5.739926895E-2
1.759785125E0,-6.403249887E-3,-2.154635928E-2,-2.808885455E-2,3.597542157E-2
1.769764125E0,-7.330639645E-2,2.514500074E-2,-1.461803913E-2,7.886561920E-2
1.779742125E0,-6.189375069E-2,4.499923063E-2,-2.150255084E-2,7.948664557E-2
1.789720125E0,-5.881135899E-2,2.409717056E-2,-2.359819293E-2,6.779619668E-2
1.799698125E0,-3.410405888E-2,-9.727939591E-4,-4.215784013E-2,5.423390678E-2
1.809676125E0,-3.438787725E-2,1.655465523E-3,-2.104939163E-2,4.035273913E-2
1.819654125E0,1.418838984E-2,-1.551604355E-2,-2.030211747E-2,2.922728156E-2
1.829632125E0,7.877623829E-2,-3.458936865E-2,-3.601884842E-2,9.327099004E-2
1.839610125E0,6.569198778E-2,-5.515336828E-2,-1.700779617E-2,8.744481930E-2
1.849588125E0,3.279711939E-2,-2.274056171E-2,-3.437227249E-2,5.267102907E-2
1.859566125E0,1.707127729E-2,-3.613369139E-3,-2.060207963E-2,2.699871534E-2
1.869545125E0,-2.300715820E-2,1.342064814E-2,-2.042432427E-3,2.671356687E-2
1.879523125E0,-4.383802841E-2,1.692811872E-2,-3.347764850E-2,5.769823990E-2
1.889501125E0,-7.536156028E-2,2.482983582E-2,-4.305655718E-2,9.027598036E-2
1.899479125E0,-6.127693340E-2,3.350158554E-2,-5.035622120E-3,7.001839965E-2
1.909457125E0,-2.392008672E-2,1.880480999E-2,-2.793741167E-2,4.130726810E-2
1.919435125E0,2.953280162E-3,1.227680485E-2,-2.374437332E-2,2.689306724E-2
1.929413125E0,3.910155990E-2,-2.707234352E-2,-9.073124528E-3,4.841658144E-2
1.939391458E0,5.357809184E-2,-1.483828730E-2,-1.775565505E-2,5.836137406E-2
1.949369458E0,5.401768825E-2,-1.435547174E-2,-1.775682449E-2,5.864550306E-2
1.959348458E0,3.827078019E-2,-9.496161444E-3,-1.536063552E-2,4.231759471E-2
1.969326458E0,1.382959578E-3,-6.682801042E-3,-3.482075393E-2,3.548319759E-2
1.979304458E0,-1.432473046E-2,1.493656620E-2,-2.090028763E-2,2.941293824E-2
1.989282458E0,-3.952524549E-2,1.527841819E-2,-2.015242875E-2,4.692329355E-2
1.999260458E0,-4.240448300E-2,1.514668224E-2,-1.805795610E-2,4.851445083E-2
2.009238458E0,-4.167327498E-2,1.771948454E-2,-2.269830644E-2,5.065427025E-2
2.019216458E0,-2.191068878E-2,1.230877267E-2,-2.254861772E-2,3.376424630E-2
2.029194458E0,-8.569768339E-4,1.196525789E-2,-2.075293779E-2,2.397052842E-2
2.039172458E0,2.798078841E-2,-4.119043658E-3,-1.461511552E-2,3.183539921E-2
2.049150458E0,3.012337497E-2,-1.508133961E-2,-1.581262529E-2,3.721429352E-2
2.059129458E0,4.241755701E-2,-2.519352349E-2,-1.671017289E-2,5.208831584E-2
2.069107458E0,1.271344111E-2,-1.846413659E-3,-3.287713945E-2,3.529797624E-2
2.079085458E0,-6.019017583E-3,5.718302820E-3,-2.599321246E-2,2.728689528E-2
2.089063458E0,-2.578843886E-2,5.341431499E-4,-1.611434162E-2,3.041382734E-2
2.099041458E0,-9.589917893E-3,1.066629893E-2,-2.075527668E-2,2.522930772E-2
2.109019458E0,-4.249432912E-2,1.504456610E-2,-1.820998371E-2,4.861800575E-2
2.118997458E0,-2.562811780E-2,5.533987619E-3,-2.135403156E-2,3.381449548E-2
2.128975458E0,-1.018872531E-2,-3.079253398E-3,-9.080141187E-3,1.399074297E-2
2.138953458E0,2.411171094E-2,-8.511462919E-3,-2.689368367E-2,3.710916096E-2
2.148932458E0,3.256405074E-2,-1.231647455E-2,-2.794092000E-2,4.464087764E-2
2.158910458E0,3.110515217E-2,-1.239226908E-2,-2.105465412E-2,3.955246243E-2
2.168888458E0,2.899282952E-2,-1.389091959E-2,-2.883846760E-2,4.318794999E-2
2.178866458E0,8.418271778E-3,-1.053674656E-2,-2.210305989E-2,2.589277089E-2
2.188844458E0,-4.759792569E-3,-6.405167934E-4,-2.569675863E-2,2.614171553E-2
2.198822458E0,-2.123617134E-2,3.618366681E-3,-9.530961514E-3,2.355645937E-2
2.208800458E0,-2.743875837E-2,1.709909496E-2,-1.731477499E-2,3.667514066E-2
2.218778458E0,-2.119494847E-2,1.205945288E-2,-2.360228598E-2,3.393706157E-2
2.228756458E0,-2.242734281E-2,3.854046017E-3,-3.168547690E-2,3.901036814E-2
2.238734458E0,-2.273119075E-3,5.700048544E-3,-9.083064795E-3,1.096173754E-2
2.248713458E0,7.192731351E-3,-1.512870206E-2,-2.420104086E-2,2.943303228E-2
2.258691458E0,2.167173865E-2,-1.996734610E-2,-3.572707236E-2,4.631180050E-2
2.268669458E0,1.426669342E-2,-4.143400965E-3,-2.075878501E-2,2.552711240E-2
2.278647458E0,6.480865394E-3,-6.017762488E-3,-7.437073588E-3,1.155530809E-2
2.288625458E0,-1.029965339E-2,9.180219937E-4,-3.198719323E-2,3.361705155E-2
2.298603458E0,-6.355249614E-5,1.092452659E-2,-3.453190148E-2,3.621880092E-2
2.308581458E0,-1.530341503E-2,2.479886385E-3,-2.061143517E-2,2.579099859E-2
2.318559458E0,-3.923149142E-2,6.804477945E-3,-1.208034754E-2,4.160944167E-2
2.328537458E0,-2.132872408E-2,1.136524220E-2,-2.181069911E-2,3.255441286E-2
2.338515458E0,-1.102464531E-2,7.077716505E-3,-2.285735071E-2,2.634568953E-2
2.348494458E0,-1.397199746E-3,-4.147229064E-3,-2.330583215E-2,2.371315011E-2
2.358472458E0,9.564874793E-3,-2.118541248E-2,-2.061026573E-2,3.106592322E-2
2.368450458E0,2.619344990E-2,-1.735544968E-2,-2.435306847E-2,3.975399849E-2
2.378428458E0,-4.302261934E-3,-5.108694043E-3,-2.839466393E-2,2.916959294E-2
2.388406458E0,3.561429419E-3,3.331250120E-3,-2.764738977E-2,2.807417261E-2
2.398384458E0,8.880935000E-3,-4.395443369E-3,-2.210949183E-2,2.422850713E-2
2.408362458E0,-3.328118205E-2,-1.764168916E-3,-2.585346401E-2,4.217998307E-2
2.418340458E0,-3.383773877E-2,7.940326994E-3,-2.959685147E-2,4.565101285E-2
2.428318458E0,-2.563937597E-2,3.523815377E-3,-2.316082120E-2,3.473065668E-2
2.438297458E0,-2.470320477E-2,5.750480779E-3,-4.748523831E-3,2.580435687E-2
2.448275458E0,-9.141866999E-3,3.660448361E-4,-2.420688808E-2,2.587819838E-2
2.458253458E0,-1.082694890E-2,5.615876047E-3,-2.839758754E-2,3.090604899E-2
2.468231458E0,1.559440652E-2,2.346195281E-4,-2.450568080E-2,2.904770133E-2
2.478209458E0,1.198596069E-2,-7.555662431E-3,-1.312933803E-2,1.931659404E-2
2.488187458E0,1.715656327E-2,-1.068002162E-2,-8.488987684E-3,2.191970430E-2
2.498165458E0,2.676759966E-3,-5.583113367E-3,-1.926657557E-2,2.023702382E-2
2.508143458E0,-7.304450001E-4,-3.380311914E-3,-1.896778286E-2,1.928047834E-2
2.518121458E0,-1.863073541E-2,8.501422154E-3,-2.899751186E-2,3.549977711E-2
2.528099458E0,-1.502098195E-2,1.191552915E-2,-1.821992397E-2,2.644948701E-2
2.538078458E0,3.786184625E-3,3.346927967E-3,-1.193358243E-2,1.295945641E-2
2.548056458E0,-6.191336856E-3,-1.081405990E-2,-2.076580167E-2,2.421766014E-2
2.558034458E0,-4.948095469E-3,-6.443293607E-3,-2.974712491E-2,3.083652253E-2
2.568012458E0,1.578247102E-2,-1.689186598E-2,-2.899809659E-2,3.708518752E-2
2.577990458E0,1.205912511E-2,-7.300559375E-3,-1.732237637E-2,2.233350373E-2
2.587968458E0,2.455065411E-2,-1.105893946E-2,-5.197589993E-3,2.742352459E-2
2.597946458E0,-3.079599434E-3,-2.857022658E-3,-2.720241666E-2,2.752486118E-2
2.607924458E0,-1.172290793E-2,8.262755256E-4,-8.491911292E-3,1.449902959E-2
2.617902458E0,-1.159042396E-2,4.946835805E-3,9.396475554E-4,1.263693197E-2
2.627880458E0,-1.554894784E-2,-1.868450353E-3,-2.899634242E-2,3.295525390E-2
2.637859458E0,-5.810829297E-3,5.641302299E-3,-1.567404628E-2,1.764272528E-2
2.647837458E0,-2.062698740E-2,1.087353704E-3,-2.405602992E-2,3.170721562E-2
2.657815458E0,-5.057165455E-3,7.455675043E-3,-2.809704065E-2,2.950602830E-2
2.667793458E0,1.084437291E-2,1.234921896E-2,-1.582139611E-2,2.281272031E-2
2.677771458E0,1.470920316E-2,-2.774777915E-3,-2.794618249E-2,3.170251040E-2
2.687749458E0,1.939389413E-2,7.044551829E-3,-2.869638026E-2,3.534446321E-2
2.697727458E0,7.364506444E-3,9.980256082E-3,-2.585404873E-2,2.867530823E-2
2.707705458E0,-5.599101847E-3,3.075562343E-3,-1.358074307E-2,1.500818469E-2
2.717683458E0,-7.250776387E-3,-4.735294506E-3,-1.956887662E-2,2.139947907E-2
2.727662458E0,-7.725241392E-3,1.000776540E-2,-1.941860318E-2,2.317146677E-2
2.737640458E0,-3.811689678E-3,-1.063754708E-3,-2.480739713E-2,2.512105699E-2
2.747618458E0,-3.390976801E-3,3.132335152E-3,-3.109549284E-2,3.143628353E-2
2.757596458E0,-4.773626887E-3,6.286971951E-3,-1.852164030E-2,2.013367054E-2
2.767574458E0,1.158048026E-2,-5.971194897E-3,-2.645631194E-2,2.949066180E-2
2.777552458E0,-2.789824788E-3,3.328545783E-3,-2.076872528E-2,2.121797090E-2
2.787530458E0,1.519772547E-2,-3.731172262E-3,-1.582841277E-2,2.225828288E-2
2.797508458E0,-9.745143196E-3,-1.008303917E-2,-2.645514250E-2,2.994177783E-2
2.807486458E0,2.914815590E-4,-1.306021297E-2,-1.537934661E-2,2.017866265E-2
2.817464458E0,1.563224325E-2,9.033811139E-3,-2.481032073E-2,3.068434109E-2
2.827443458E0,2.000406564E-3,1.419804459E-3,-3.169600189E-2,3.179078493E-2
2.837421458E0,-6.531270220E-3,1.252969692E-2,-2.047051728E-2,2.487353761E-2
2.847399458E0,-1.813948336E-3,3.764693253E-3,-3.513942719E-2,3.538704094E-2
2.857377458E0,-1.733558742E-2,3.540744893E-3,-1.283522308E-2,2.185869203E-2
2.867355458E0,1.119928948E-3,8.483999278E-3,-1.747557342E-2,1.945836969E-2
2.877333458E0,5.372873416E-3,-5.415069871E-5,-2.600783050E-2,2.655706965E-2
2.887311458E0,-7.008647412E-4,-1.072464318E-2,-3.109724700E-2,3.290209650E-2
2.897289458E0,1.540537129E-2,-1.026025549E-2,-2.600666106E-2,3.192091362E-2
2.907267458E0,1.371757477E-2,3.493884942E-3,-2.421039641E-2,2.804500640E-2
2.917246458E0,1.116242176E-3,3.916373681E-3,-2.540849090E-2,2.573276878E-2
2.927224458E0,1.133655059E-3,4.317657128E-3,-1.642599821E-2,1.702177294E-2
2.937201583E0,-1.149700641E-3,-5.526843052E-3,-1.567872405E-2,1.666403893E-2
2.947179583E0,-4.724237044E-3,-7.282158919E-3,-1.717619598E-2,1.924499838E-2
2.957157583E0,-1.235072416E-2,6.112688379E-3,-3.005118012E-2,3.306022948E-2
2.967135583E0,-6.677462031E-3,-1.352643706E-3,-3.094931245E-2,3.169034688E-2
2.977113583E0,-5.896937542E-3,-1.692302981E-3,-2.346546113E-2,2.425418785E-2
2.987091583E0,-3.594607799E-3,-4.631734835E-3,-1.553137422E-2,1.660113725E-2
2.997069583E0,-1.488443120E-2,-3.086361419E-3,-2.331577241E-2,2.783338215E-2
3.007047583E0,1.474423963E-2,-5.463821031E-3,-1.957472384E-2,2.510808149E-2
3.017026583E0,2.111641534E-2,-8.714461802E-3,-1.134184420E-2,2.550455393E-2
3.027004583E0,2.557742861E-3,-1.040918590E-2,-1.867542207E-2,2.153287229E-2
3.036982583E0,-7.304371486E-3,-1.402990060E-2,-2.795670748E-2,3.212116820E-2
3.046960583E0,5.515488947E-3,-1.962727569E-3,-2.062079072E-2,2.143571617E-2
3.056938583E0,1.354680239E-3,3.774167569E-3,-2.062079072E-2,2.100705856E-2
3.066916583E0,-7.142194049E-3,-1.229176093E-3,-1.792639375E-2,1.933590966E-2
3.076894583E0,-5.666730835E-3,5.019560549E-4,-9.843787551E-3,1.136943057E-2
3.086872583E0,7.075364485E-3,-8.037911542E-4,-2.107044160E-2,2.224118639E-2
3.096850583E0,-1.452827809E-3,-6.365141915E-3,-2.945300996E-2,3.016795545E-2
3.106828583E0,-9.459427340E-3,-1.342316061E-2,-3.633869112E-2,3.987684138E-2
3.116807583E0,-3.030493672E-3,-2.129756939E-4,-1.852456391E-2,1.877201956E-2
3.126785583E0,9.115712700E-3,-1.294034505E-3,-3.319405854E-2,3.444729693E-2
3.136763583E0,4.071893915E-3,-6.536182109E-4,-1.717619598E-2,1.766434955E-2
3.146741583E0,-1.068773492E-2,1.328172195E-2,-1.897187591E-2,2.550615398E-2
3.156719583E0,4.070908339E-3,-2.459210996E-3,-2.331343353E-2,2.379361671E-2
3.166697583E0,-5.928619858E-3,-3.487526095E-3,-8.642184734E-3,1.104530347E-2
3.176675583E0,1.330635905E-2,-9.348181207E-3,-2.256323576E-2,2.781271815E-2
3.186653583E0,-4.896443541E-3,-2.458123779E-3,-2.271292448E-2,2.336438466E-2
3.196631583E0,1.677433124E-3,-1.587117054E-3,-1.687681854E-2,1.703407545E-2
3.206610583E0,4.657931674E-3,-6.839716556E-3,-2.421039641E-2,2.558556906E-2
3.216588583E0,-6.551565311E-3,2.244590772E-3,-2.361047208E-2,2.460519432E-2
3.226566583E0,3.304187904E-3,3.361335872E-3,-2.480915129E-2,2.525292507E-2
3.236544583E0,-2.963528206E-3,1.883808430E-4,-3.498681486E-2,3.511260743E-2
3.246522583E0,-1.658364348E-2,1.662950872E-2,-2.750237882E-2,3.616543422E-2
3.256500583E0,-2.787938490E-2,-1.321359275E-2,-1.597693205E-2,3.474365400E-2
3.266478583E0,-1.227989405E-2,-8.449391071E-3,-2.825257659E-2,3.194363929E-2
3.276456583E0,1.657336061E-2,-1.726454375E-3,-2.361281097E-2,2.890020361E-2
3.286434583E0,9.176781272E-3,-4.918348901E-3,-2.690479338E-2,2.884911398E-2
3.296412583E0,1.842584646E-2,1.300393352E-3,-2.361105680E-2,2.997807272E-2
3.306391583E0,1.090983889E-2,-1.781515961E-2,-2.899985075E-2,3.574067487E-2
3.316369583E0,3.837041983E-3,-3.316019950E-3,-1.792288542E-2,1.862655903E-2
3.326347583E0,1.168259697E-3,-8.914710665E-3,-2.196506560E-2,2.373396308E-2
3.336325583E0,2.056563960E-4,2.342020003E-3,-1.283346891E-2,1.304704091E-2
3.346303583E0,-1.269663836E-2,-8.755291812E-3,-2.091724455E-2,2.598828351E-2
3.356281583E0,-2.454742901E-2,1.744197020E-3,-3.558615446E-2,4.326653306E-2
3.366259583E0,-4.335356376E-2,3.150982289E-2,-4.247242033E-2,6.838352812E-2
3.376237583E0,1.010455510E-2,-2.594773209E-2,4.680111408E-3,2.823632903E-2
3.386215583E0,6.667779179E-2,-3.456674723E-2,-5.534623504E-2,9.329519637E-2
3.396194583E0,-5.318617079E-3,2.242963602E-2,-5.100409269E-2,5.597136528E-2
3.406172583E0,-7.136629487E-2,4.615793863E-2,3.087505281E-2,9.042661239E-2
3.416150583E0,4.846819866E-3,-7.200955711E-3,-1.702592254E-2,1.911092526E-2
3.426128583E0,6.504567859E-2,-3.448561711E-2,-6.806919158E-2,1.002677063E-1
3.436106583E0,2.820987364E-2,1.479153698E-3,-3.702456951E-3,2.849022734E-2
3.446084583E0,-5.708527920E-2,4.619161494E-2,-1.148627043E-2,7.432582862E-2
3.456062583E0,-2.991047465E-2,2.012175827E-2,-4.561471403E-2,5.813969199E-2
3.466040583E0,3.233860404E-2,-2.999662743E-2,-1.223237514E-2,4.577350729E-2
3.476018583E0,1.494692331E-2,-1.523075424E-2,-1.822050869E-2,2.806017335E-2
3.485996583E0,-3.853925418E-2,1.321973233E-2,-4.022592008E-2,5.725521882E-2
3.495975583E0,-4.576111369E-2,5.574059319E-3,-5.198759437E-3,4.639155918E-2
3.505953583E0,2.261789809E-2,-2.475779629E-2,-3.124401212E-2,4.583346032E-2
3.515931583E0,4.026875094E-2,-1.097832098E-2,-3.543412685E-2,5.475101076E-2
3.525909583E0,-1.862712430E-2,2.511564589E-2,1.800357699E-2,3.608177120E-2
3.535887583E0,-1.965811747E-2,2.960819872E-3,-3.783265471E-2,4.273777953E-2
3.545865583E0,1.146505486E-2,-3.354556756E-3,-4.112522185E-2,4.282504414E-2
3.555843583E0,2.380177197E-2,-1.728029469E-2,7.523612380E-3,3.036013301E-2
3.565821583E0,-4.879507172E-3,5.273841340E-3,-2.690596282E-2,2.784876709E-2
3.575799583E0,-3.216189250E-2,7.772868220E-3,-1.627981782E-2,3.687597155E-2
3.585778583E0,-2.190167127E-2,-1.011308838E-2,-3.364312470E-2,4.139828017E-2
3.595756583E0,2.011233421E-2,-9.667795496E-3,-3.109841645E-2,3.827641261E-2
3.605734583E0,6.978429756E-3,-6.197043601E-4,-3.109900117E-2,3.187836867E-2
3.615712583E0,-2.835477267E-2,6.429232880E-3,6.023801565E-3,2.969199141E-2
3.625690583E0,-1.973248674E-2,6.118252371E-3,-2.211650848E-2,3.026456662E-2
3.635668583E0,2.726944037E-2,-1.491956360E-2,-2.765440643E-2,4.160507121E-2
3.645646583E0,9.024346530E-3,-1.221643235E-2,-6.997362971E-3,1.672253384E-2
3.655624583E0,-2.605713212E-2,2.331549833E-3,-4.471892059E-2,5.180918951E-2
3.665602583E0,-9.902729084E-3,1.074851627E-2,-3.094697356E-2,3.422440384E-2
3.675580583E0,1.332938332E-3,-7.921259589E-3,-1.009229422E-3,8.095778042E-3
3.685559583E0,1.442341250E-2,-3.845165558E-3,-3.244327605E-2,3.571255083E-2
3.695537583E0,-7.730545570E-3,-7.043647338E-3,-2.151658416E-2,2.392358034E-2
3.705515583E0,-1.405263279E-2,1.291575934E-2,-1.403273284E-2,2.368989064E-2
3.715493583E0,4.198077571E-3,-1.326733232E-3,-2.301464081E-2,2.343198173E-2
3.725471583E0,1.893098194E-2,-1.972445824E-2,-2.331343353E-2,3.592982762E-2
3.735449583E0,1.079042093E-2,-2.496761084E-4,-2.121779144E-2,2.380525563E-2
3.745427583E0,-1.619879277E-2,3.346836604E-3,-1.642775238E-2,2.331251275E-2
3.755405583E0,-6.591826589E-3,5.605305377E-3,-5.500475764E-3,1.025313902E-2
3.765383583E0,7.724472803E-3,-3.280607751E-3,-1.777553558E-2,1.965704791E-2
3.775361583E0,-1.370805192E-3,-7.617094740E-4,-4.591818452E-2,4.594495595E-2
3.785340583E0,-3.096321101E-3,-1.141714538E-3,-2.196974337E-2,2.221621796E-2
3.795318583E0,-2.202924564E-2,7.278522681E-3,-5.654842257E-3,2.387973612E-2
3.805296583E0,4.616353060E-3,2.915832857E-3,-2.421624362E-2,2.482416670E-2
3.815274583E0,3.591372702E-3,-1.187437937E-2,-8.049861789E-3,1.478847923E-2
3.825252583E0,-1.138794813E-2,-2.257847507E-3,-3.454418063E-2,3.644288207E-2
3.835230583E0,-1.663924000E-3,2.575835539E-3,-2.226970553E-2,2.247984334E-2
3.845208583E0,8.679564659E-3,-4.882598659E-3,-1.657977998E-2,1.934072689E-2
3.855186583E0,-3.237193316E-4,-1.620989791E-2,-1.717970431E-2,2.362218924E-2
3.865164583E0,-1.691522515E-2,-6.438698061E-4,-1.897713840E-2,2.542973048E-2
3.875142583E0,-2.623837068E-2,-9.994983757E-3,-1.313986301E-2,3.100012575E-2
3.885121583E0,-9.687524139E-3,6.379138688E-3,-2.825783908E-2,3.054581811E-2
3.895099583E0,8.536626503E-3,-5.810670555E-3,-2.676036716E-2,2.868370852E-2
3.905077583E0,-4.477781473E-3,2.110616444E-3,-1.164180636E-2,1.265056853E-2
3.915055583E0,-3.342002658E-3,1.477591395E-3,-3.319581270E-2,3.339632074E-2
3.925033583E0,-4.555905756E-3,-2.892690673E-3,-1.972324312E-2,2.044823356E-2
3.935012208E0,1.374901384E-3,-1.161002127E-2,-2.091958344E-2,2.396480584E-2
3.944990208E0,-1.261646983E-3,-8.050702326E-3,-1.343514740E-2,1.571333023E-2
3.954968208E0,6.677668740E-4,1.492209435E-3,-2.915304780E-2,2.919884925E-2
3.964946208E0,3.138286008E-3,6.517178658E-3,-2.077106416E-2,2.199453485E-2
3.974925208E0,9.735055607E-3,-1.051788929E-2,-3.139837861E-2,3.451456913E-2
3.984903208E0,1.749186283E-3,-3.879006319E-3,-9.843202829E-3,1.072357145E-2
3.994881208E0,-9.636464927E-3,9.142615031E-3,-1.089043915E-2,1.717703498E-2
4.004859208E0,6.292002612E-3,-4.270989038E-3,-2.032082856E-2,2.169715920E-2
4.014837208E0,5.512451136E-3,6.877193553E-3,-1.762584686E-2,1.970668380E-2
4.024815208E0,9.444671685E-3,4.582079183E-3,-1.702592254E-2,2.000198268E-2
4.034793208E0,-8.673933288E-3,1.035616810E-2,-2.196623504E-2,2.578764856E-2
4.044771208E0,4.847507371E-5,1.035151773E-2,-1.882277191E-2,2.148145739E-2
4.054749208E0,-3.951836131E-3,1.603379622E-3,-1.912156463E-2,1.959137741E-2
4.064728208E0,-3.512926080E-5,-1.586306666E-2,-2.570845306E-2,3.020865235E-2
4.074706208E0,4.445262046E-3,-8.375506019E-3,-3.992888153E-2,4.103931086E-2
4.084684208E0,4.234367995E-3,-1.352470117E-2,-1.972031951E-2,2.428453037E-2
4.094662208E0,5.433212228E-3,-7.204025500E-3,-1.807491302E-2,2.020198652E-2
4.104640208E0,5.200746576E-3,-5.182707002E-3,-1.627923310E-2,1.785837750E-2
4.114618208E0,-4.685710231E-3,-8.937715804E-3,-3.469094574E-2,3.612894077E-2
4.124596208E0,-1.292447991E-2,-5.343441479E-4,-2.376483858E-2,2.705725886E-2
4.134574208E0,-1.111990240E-2,-7.533187196E-3,-1.328604341E-2,1.889232881E-2
4.144552208E0,-3.162213911E-3,-3.308975883E-3,-2.556051850E-2,2.596707578E-2
4.154530208E0,-3.446314074E-4,-3.171456680E-3,-1.568106294E-2,1.600226994E-2
4.164509208E0,-1.507579503E-3,-8.329769829E-3,-9.094174504E-3,1.242424530E-2
4.174487208E0,6.126656601E-3,2.550016427E-3,-1.073958099E-2,1.262446453E-2
4.184465208E0,4.784357727E-3,8.149648178E-4,-1.163888276E-2,1.261022753E-2
4.194443208E0,5.148491655E-3,1.317405095E-3,-3.169658661E-2,3.213901251E-2
4.204421208E0,1.412809728E-2,3.631194010E-3,-1.268670380E-2,1.933238619E-2
4.214399208E0,2.206647539E-3,-8.870408870E-3,-3.394308686E-2,3.515233410E-2
4.224377208E0,-1.532226888E-2,1.812508944E-3,-2.945300996E-2,3.324961516E-2
4.234355208E0,7.166495968E-3,-5.228178240E-3,-2.615985811E-2,2.762301013E-2
4.244333208E0,-6.528643541E-3,-2.246664707E-3,-2.885483980E-2,2.966938605E-2
4.254311208E0,-1.075183959E-2,-5.469576884E-3,-3.379515231E-2,3.588357069E-2
4.264290208E0,-7.175158298E-3,-9.341584817E-3,-3.005234957E-2,3.227834906E-2
4.274268208E0,3.433577250E-3,-8.918438265E-3,-2.945417941E-2,3.096573394E-2
4.284246208E0,1.064318187E-2,-1.194721375E-2,-3.184802949E-2,3.564141158E-2
4.294224208E0,6.779814572E-3,-4.358350094E-3,-9.694683552E-3,1.260745773E-2
4.304202208E0,-6.582371116E-3,-2.192783528E-2,-2.496176362E-2,3.387103796E-2
4.314180208E0,1.448115147E-2,1.259727795E-3,-2.376600802E-2,2.785881906E-2
4.324158208E0,-1.082454948E-2,-1.874306705E-3,-2.541375339E-2,2.768650860E-2
4.334136208E0,-1.798366563E-3,-9.231035896E-3,-2.511437595E-2,2.681749476E-2
4.344114208E0,-1.013336291E-2,-1.437952755E-2,-1.703176975E-2,2.448544542E-2
4.354093208E0,-8.830369147E-3,7.211736515E-3,-2.167153537E-2,2.448754802E-2
4.364071208E0,-1.476309747E-3,-7.236660272E-4,-2.227029026E-2,2.233089812E-2
4.374049208E0,-1.343477168E-3,-1.066806223E-2,-2.691122532E-2,2.897976071E-2
4.384027208E0,-1.042734710E-3,8.588792346E-3,-2.631188571E-2,2.769783348E-2
4.394005208E0,-6.915053133E-3,1.790883383E-3,-2.661067843E-2,2.755273906E-2
4.403983208E0,7.872233770E-4,3.697760906E-3,-2.496410251E-2,2.524875384E-2
4.413961208E0,3.943572941E-4,-5.471294504E-3,-1.673180759E-2,1.760806538E-2
4.423939208E0,1.434615502E-3,-8.393714614E-3,-1.508464694E-2,1.732221522E-2
4.433917208E0,-1.884857731E-2,1.077440847E-3,-2.556285739E-2,3.177875742E-2
4.443895208E0,-2.004714232E-2,2.967690350E-3,-3.020203829E-2,3.637111791E-2
4.453874208E0,1.256054441E-2,-7.342832917E-3,-1.792756319E-2,2.308856845E-2
4.463852208E0,-9.771534466E-3,7.861855533E-4,-1.553195894E-2,1.836689201E-2
4.473830208E0,1.130196893E-2,-2.256742017E-3,-2.107102633E-2,2.401698434E-2
4.483808208E0,-2.142973987E-3,-8.860651329E-3,-1.732880831E-2,1.958037479E-2
4.493786208E0,-6.135014008E-3,5.315575842E-4,-2.481265962E-2,2.556538730E-2
4.503764208E0,-1.684423858E-2,9.971731938E-3,-2.481265962E-2,3.160430174E-2
4.513742208E0,-1.246505207E-2,-5.142799756E-3,-1.493261933E-2,2.011986662E-2
4.523720208E0,7.982471486E-3,-6.946135880E-3,-9.394721389E-3,1.415024539E-2
4.533698208E0,8.421696739E-3,-3.991190633E-3,-2.391452730E-2,2.566630465E-2
4.543677208E0,1.522058899E-2,1.102103306E-2,-1.358600557E-2,2.318855421E-2
4.553655208E0,-2.709128359E-3,6.451790342E-3,-1.448355317E-2,1.608534387E-2
4.563633208E0,-1.802053735E-2,1.784234916E-2,-7.296740413E-3,2.638809600E-2
4.573611208E0,-2.981784424E-2,2.933887962E-2,-9.991722107E-3,4.300823414E-2
4.583589208E0,-5.114649067E-2,5.412941119E-3,-1.268553436E-2,5.297344826E-2
4.593567208E0,-7.098468982E-3,-9.004538516E-3,-3.693569183E-2,3.867447876E-2
4.603545208E0,1.778281719E-2,-1.304737651E-2,-2.406246185E-2,3.264145664E-2
4.613523208E0,2.769453295E-2,-3.134583590E-2,-1.807374358E-2,4.556543416E-2
4.623501208E0,3.773391671E-2,-2.313872969E-2,-1.762409270E-2,4.764302599E-2
4.633479208E0,4.686657549E-2,-1.975519267E-2,-2.106576383E-2,5.505006759E-2
4.643458208E0,3.586351348E-2,-2.016034076E-2,-2.750120938E-2,4.948684124E-2
4.653436208E0,1.203045206E-2,-3.998636696E-3,-1.657393277E-2,2.086662693E-2
4.663414208E0,-2.813885510E-2,1.098806938E-2,-1.986649990E-2,3.615536825E-2
4.673392208E0,-2.438039964E-2,-1.153065445E-2,-2.345961392E-2,3.574511664E-2
4.683370208E0,4.365004043E-2,-3.661447870E-2,-1.507821500E-2,5.893469816E-2
4.693348208E0,-4.256410399E-3,3.124554701E-2,-5.294770718E-2,6.162678746E-2
4.703326208E0,-2.990610751E-2,2.334686316E-2,5.581167340E-3,3.834841215E-2
4.713304208E0,-1.951113537E-2,-1.237393258E-2,-3.273914516E-2,4.007056572E-2
4.723282208E0,-6.769405500E-3,-5.861961599E-3,-3.079260707E-2,3.206824122E-2
4.733261208E0,-3.523715563E-2,1.466592235E-2,-4.596496224E-3,3.844312933E-2
4.743239208E0,-5.076746318E-2,2.751950934E-2,-9.836186171E-3,5.857823206E-2
4.753217208E0,6.382455155E-3,3.828263450E-3,-4.471248865E-2,4.532767340E-2
4.763195208E0,3.169929323E-2,-3.324319342E-2,-2.824614465E-2,5.392401865E-2
4.773173208E0,3.665137097E-2,-3.301682395E-2,-1.806789637E-2,5.253458420E-2
4.783151208E0,3.314892991E-2,-2.163743880E-3,-3.842556238E-2,5.079426332E-2
4.793129208E0,2.304659493E-2,-4.897691784E-3,-8.338714242E-3,2.499334067E-2
4.803107208E0,1.809085582E-2,-2.159798836E-2,-2.899634242E-2,4.042944520E-2
4.813085208E0,4.305897030E-3,-7.810034584E-3,-2.315789759E-2,2.481583386E-2
4.823063208E0,-2.251382450E-2,2.754578526E-2,7.826498151E-3,3.642659266E-2
4.833042208E0,-5.230856996E-2,1.548980417E-2,-3.887696743E-2,6.698909703E-2
4.843020208E0,-3.168199369E-2,1.401230413E-3,-4.082350552E-2,5.169401101E-2
4.852998208E0,-9.335329324E-3,3.176901899E-3,-1.447829068E-2,1.751747642E-2
4.862976208E0,-1.052135879E-2,1.214066522E-2,-3.199187100E-2,3.579908592E-2
4.872954208E0,-2.152805903E-3,1.003181208E-3,3.237486362E-2,3.246186594E-2
4.882932208E0,2.790860271E-2,-2.826682004E-2,-5.953459561E-2,7.157004467E-2
4.892910208E0,4.476176515E-2,-2.025496515E-2,-7.291477919E-3,4.966935557E-2
4.902888208E0,9.307026858E-3,-1.570151906E-2,-1.657393277E-2,2.465468915E-2
4.912866208E0,3.759391244E-2,3.552183509E-5,-1.155994534E-3,3.761169815E-2
4.922845208E0,-3.390548881E-2,6.261362974E-4,-5.534331143E-2,6.490652000E-2
4.932823208E0,-6.561542123E-3,2.183153895E-2,-3.101363182E-3,2.300626831E-2
4.942804333E0,-3.874735110E-2,1.434616188E-2,-2.061377406E-2,4.617463870E-2
4.952782333E0,-1.602980367E-2,1.784189234E-2,-1.462564051E-2,2.809265186E-2
4.962760333E0,-2.749292506E-2,8.015445443E-3,-1.671835899E-2,3.316039538E-2
4.972738333E0,-4.615937074E-3,-8.068691650E-3,2.740589976E-3,9.691310203E-3
4.982716333E0,2.856581376E-2,-2.655512989E-3,-6.402057946E-2,7.015477218E-2
4.992694333E0,2.399487398E-2,-1.632990288E-2,2.684047401E-2,3.953265423E-2
5.002672333E0,3.531062726E-2,-1.491060091E-2,-4.650641441E-2,6.026618454E-2
5.012650333E0,8.341485959E-3,-2.146603315E-2,-4.111878991E-2,4.712882187E-2
5.022629333E0,8.646975568E-3,2.722152974E-3,-1.552260339E-2,1.797585935E-2
5.032607333E0,-1.170790503E-2,2.583409511E-2,7.977941036E-3,2.946392800E-2
5.042585333E0,-2.669970229E-2,2.409823037E-2,-7.584598839E-2,8.394172243E-2
5.052563333E0,-2.330910522E-2,-4.443235220E-2,-1.601552367E-3,5.020072986E-2
5.062541333E0,2.518097939E-2,-1.110655772E-2,-2.959509730E-2,4.041419468E-2
5.072519333E0,-6.383337948E-3,4.235056071E-2,6.331949830E-3,4.329446367E-2
5.082497333E0,-3.599317834E-3,6.782313343E-4,-5.531466007E-4,3.704194619E-3
5.092475333E0,-2.111376810E-2,-3.165154478E-2,-7.494610190E-2,8.405075657E-2
5.102453333E0,-7.131930587E-3,-5.744861970E-3,2.592655420E-3,9.517863997E-3
5.112431333E0,-1.949696501E-2,2.312587495E-2,-1.776384115E-2,3.507836640E-2
5.122410333E0,-1.543808258E-2,6.352040498E-3,2.175398111E-2,2.742113248E-2
5.132388333E0,-9.274300723E-3,-2.433515224E-2,-8.212999105E-2,8.616001230E-2
5.142366333E0,-7.441722525E-4,-1.996290587E-2,-5.069360554E-2,5.448773299E-2
5.152344333E0,1.524980566E-2,2.386879111E-3,3.118495524E-2,3.479590777E-2
5.162322333E0,3.782098998E-2,1.646444365E-2,-1.896076620E-2,4.539841233E-2
5.172300333E0,7.352558482E-3,-3.532621832E-2,-3.078559041E-2,4.743157591E-2
5.182278333E0,-3.769236265E-3,-1.038568740E-2,-4.096383870E-2,4.242765284E-2
5.192256333E0,-1.249331171E-2,1.638634678E-2,-4.290102124E-3,2.104756933E-2
5.202234333E0,4.106568075E-3,3.264853159E-2,-9.976519346E-3,3.438490155E-2
5.212213333E0,-3.573870969E-2,7.514942056E-3,-3.676904619E-2,5.182366720E-2
5.222191333E0,-4.955566429E-2,-6.680224612E-3,-2.629200518E-2,5.649476790E-2
5.232169333E0,-3.340915842E-2,2.131592416E-2,-4.649998248E-2,6.109655358E-2
5.242147333E0,-7.992892549E-3,3.058842961E-3,6.381943524E-2,6.439070714E-2
5.252125333E0,1.915148364E-2,1.572535560E-3,-8.571959674E-2,8.784703444E-2
5.262103333E0,2.958007498E-2,-4.233178566E-2,-2.419694781E-2,5.703028316E-2
5.272081333E0,5.526001601E-2,-2.587066761E-2,-7.882046700E-3,6.152306456E-2
5.282059333E0,7.446286608E-2,1.448513375E-2,-4.051477253E-2,8.599990882E-2
5.292037333E0,-1.407250790E-3,-1.267204922E-2,-2.584586263E-2,2.881960793E-2
5.302016333E0,-1.042464561E-2,-2.641231164E-2,-3.467691243E-2,4.481932282E-2
5.311994333E0,-3.459768722E-2,8.531955583E-3,-3.707310140E-2,5.142187350E-2
5.321972333E0,-3.875530423E-2,2.873025756E-2,3.490787745E-4,4.824441068E-2
5.331950333E0,-6.007661880E-2,2.800724021E-2,-2.490913868E-4,6.628474694E-2
5.341928333E0,-4.383389882E-2,-5.521023246E-3,-6.251842976E-2,7.655355277E-2
5.351906333E0,-2.151409452E-2,-2.099027080E-2,-3.153227985E-2,4.356297056E-2
5.361884333E0,2.419539236E-2,1.934496481E-3,-6.958186626E-4,2.428257507E-2
5.371862333E0,2.687327552E-2,2.676499011E-3,-4.709698319E-2,5.429053702E-2
5.381840333E0,3.154158286E-3,-4.686055468E-2,-1.566235185E-2,4.950928767E-2
5.391818333E0,3.908655357E-2,-1.602001872E-2,-1.042324662E-2,4.350912249E-2
5.401797333E0,2.719451378E-2,1.829726254E-2,-2.284682572E-2,3.995383388E-2
5.411775333E0,-2.739100764E-2,1.288666944E-2,-8.327604532E-3,3.139558163E-2
5.421753333E0,-6.605359695E-2,-1.740238273E-2,-1.641079545E-2,7.025122634E-2
5.431731333E0,-5.565037248E-2,2.081295398E-2,-4.365531206E-2,7.372875478E-2
5.441709333E0,-3.532595336E-2,4.124977668E-2,1.187978804E-2,5.559313286E-2
5.451687333E0,-2.276218727E-2,6.210199837E-4,4.097144008E-3,2.313632262E-2
5.461665333E0,-1.419445004E-3,-2.613044844E-2,-7.149682939E-2,7.613548301E-2
5.471643333E0,4.394522432E-2,-1.987423833E-2,-6.532509327E-3,4.867074859E-2
5.481621333E0,5.947932572E-2,-2.776979757E-3,-4.436282516E-3,5.970914843E-2
5.491599333E0,4.953343116E-2,3.346909694E-3,-2.479277909E-2,5.549274279E-2
5.501578333E0,-7.552716553E-3,-2.078183583E-2,-5.143795609E-2,5.598920927E-2
5.511556333E0,-3.099822578E-2,-1.096823453E-2,-2.340055704E-3,3.296464820E-2
5.521534333E0,-4.465159995E-2,1.634546195E-2,-2.374788165E-2,5.314980139E-2
5.531512333E0,-2.870800388E-2,1.296600885E-2,6.340135932E-3,3.213198089E-2
5.541490333E0,-5.627745895E-2,8.539840188E-3,-3.137966752E-2,6.499819066E-2
5.551468333E0,-1.444603734E-2,9.003688842E-3,-5.578009844E-2,5.831958324E-2
5.561446333E0,2.063632010E-2,-7.973117083E-3,1.113134444E-2,2.476560382E-2
5.571424333E0,3.918774237E-2,-2.192777133E-2,-1.192188799E-2,4.646114205E-2
5.581402333E0,2.283913526E-2,-2.074306148E-2,-8.032846391E-2,8.604976940E-2
5.591381333E0,3.538067508E-2,-3.280781340E-2,6.937721372E-3,4.874706932E-2
5.601359333E0,8.641307652E-2,2.677659318E-3,3.881615639E-2,9.476857944E-2
5.611337333E0,8.268476391E-2,-1.810988668E-2,1.311606485E-1,1.561020624E-1
5.621315333E0,-1.601703847E-1,1.346687769E-2,-2.501000315E-1,2.972977206E-1
5.631293333E0,8.365398559E-2,8.051752998E-3,5.990823269E-2,1.032076372E-1
5.641271333E0,-5.299280383E-2,-1.495635537E-3,3.281632841E-2,6.234890210E-2
5.651249333E0,-6.853789159E-2,6.011970090E-3,1.695926428E-2,7.086044745E-2
5.661227333E0,7.886954706E-2,2.980773039E-2,-5.742199659E-2,1.020107442E-1
5.671205333E0,-4.255340427E-2,-1.550877564E-2,-4.048144341E-2,6.074587720E-2
5.681183333E0,-2.306977822E-3,-3.764433326E-2,3.469562352E-2,5.124650490E-2
5.691162333E0,1.158250737E-2,-6.750372928E-3,-4.325887084E-2,4.528854069E-2
5.701140333E0,1.778927654E-1,6.635726388E-3,1.147065836E-1,2.117722106E-1
5.711118333E0,-2.270138354E-1,-3.034973530E-2,-3.518293047E-1,4.198097754E-1
5.721096333E0,9.873642155E-2,5.862354002E-2,-2.469653392E-1,2.723554280E-1
5.731074333E0,-5.971243319E-2,-1.249235697E-1,5.222382188E-1,5.402816211E-1
5.741052333E0,5.766311201E-2,-8.445786810E-3,2.663453507E-1,2.726466792E-1
5.751030333E0,2.420231994E-1,1.142327490E-1,1.025806278E-1,2.866132153E-1
5.761008333E0,2.040244290E-1,2.187846833E-1,1.543793571E-1,3.366388141E-1
5.770986333E0,6.865499122E-2,9.223948888E-2,-1.893989164E-1,2.215707125E-1
5.780965333E0,-3.945284508E-1,-2.418042212E-1,4.068071651E-1,6.161282736E-1
5.790943333E0,6.138002072E-1,1.367116661E-1,1.343721147E0,1.483585958E0
5.800921333E0,1.093861436E0,4.434473533E-1,7.465619695E-1,1.396614897E0
5.810899333E0,7.427490733E-1,4.913273518E-1,5.576577276E-1,1.050743020E0
5.820877333E0,1.444319569E0,1.719795493E0,1.161451156E0,2.528383741E0
5.830855333E0,-8.958027935E-1,1.929849845E0,5.151267182E0,5.573359547E0
5.840833333E0,1.043169877E0,1.994068645E-1,-2.140965613E0,2.389916368E0
5.850811333E0,-8.053431514E-1,2.024084596E-1,-2.249871758E0,2.398222197E0
5.860789333E0,-1.842207537E0,-1.443195295E0,-9.774936587E-1,2.536145722E0
5.870768333E0,-1.227256306E0,-1.866121626E0,-1.535964734E0,2.710674386E0
5.880746333E0,-1.341686024E-1,-1.384621836E0,-6.460676283E-1,1.533812969E0
5.890724333E0,-1.331396386E-2,-1.901903224E0,8.461944312E-1,2.081695979E0
5.900702333E0,5.110041095E-1,-1.666471079E0,1.430232457E0,2.254731899E0
5.910680333E0,1.519512716E0,-9.369098890E-1,2.393151346E0,2.985614241E0
5.920658333E0,1.278100916E0,-4.859753953E-1,5.250172250E0,5.425313142E0
5.930636333E0,2.680740800E-1,-4.667922887E-1,6.212554364E0,6.235831178E0
5.940610958E0,-1.833952000E0,-7.362536938E-1,4.514025341E0,4.927664174E0
5.950588958E0,-3.988122087E0,-6.402245057E-1,1.989073076E0,4.502379027E0
5.960566958E0,-4.655761556E0,-1.496993553E-1,-3.352851927E-1,4.670218595E0
5.970545958E0,-3.595229833E0,4.725660487E-1,-8.571632230E-1,3.726087092E0
5.980523958E0,-2.176604392E0,4.286195453E-1,1.126118186E0,2.487863252E0
5.990501958E0,-5.658169323E-1,-2.633015826E-1,3.907757370E0,3.957277371E0
6.000479958E0,1.634108202E0,-5.014342640E-1,5.550080618E0,5.807335086E0
6.010457958E0,2.877261626E0,-4.176963618E-1,5.636639290E0,6.342302989E0
6.020435958E0,2.619229846E0,-1.735327891E-1,4.584190759E0,5.282545175E0
6.030413958E0,1.813904675E0,-1.394970238E-2,3.328597677E0,3.790779241E0
6.040391958E0,1.033345970E0,2.723880096E-1,2.714873337E0,2.917625123E0
6.050369958E0,5.324690920E-1,9.863507286E-2,2.949908018E0,2.999201481E0
6.060348958E0,4.236440764E-1,-4.349457210E-1,3.498313696E0,3.550612736E0
6.070326958E0,6.862621196E-1,-7.098130962E-1,3.678883901E0,3.809065120E0
6.080304958E0,8.998250932E-1,-5.772543785E-1,3.381410898E0,3.546385128E0
6.090282958E0,7.464068721E-1,-2.688421118E-1,2.942469774E0,3.047544532E0
6.100260958E0,-3.974973746E-2,-3.492767027E-1,2.648828452E0,2.672052848E0
6.110238958E0,-3.921872257E-1,-6.573296580E-1,2.352885080E0,2.474259748E0
6.120216958E0,-3.587989665E-1,-8.525108859E-1,2.091168970E0,2.286591168E0
6.130194958E0,-6.151417047E-2,-1.033696803E0,2.006684890E0,2.258118093E0
6.140172958E0,2.622721803E-1,-1.392098671E0,2.137522187E0,2.564317942E0
6.150150958E0,5.466577993E-1,-1.787876818E0,2.348132463E0,3.001510341E0
6.160129958E0,6.827399761E-1,-2.113237824E0,2.572415868E0,3.398416009E0
6.170107958E0,5.068932977E-1,-2.356337276E0,2.671962960E0,3.598423576E0
6.180085958E0,3.038879105E-1,-2.619875671E0,2.786012317E0,3.836399487E0
6.190063958E0,1.265119293E-1,-2.803484967E0,2.912644297E0,4.044629776E0
6.200041958E0,2.428528462E-1,-2.955058537E0,3.008402393E0,4.223959449E0
6.210019958E0,8.369515912E-1,-3.020064080E0,3.480318890E0,4.683363598E0
6.219997958E0,1.903905749E0,-3.232910331E0,4.698338349E0,6.012565971E0
6.229975958E0,2.837300000E0,-4.149457877E0,5.832523938E0,7.699779701E0
6.239953958E0,2.276032055E0,-6.057696705E0,5.242191385E0,8.328059906E0
6.249932958E0,5.984034652E-1,-7.214852496E0,2.823139213E0,7.770604755E0
6.259910958E0,-2.870641554E-1,-6.642517088E0,1.047367301E0,6.730707047E0
6.269888958E0,-1.867475695E-1,-5.949847151E0,1.488766594E0,6.136121067E0
6.279866958E0,3.423378850E-1,-6.254709281E0,3.535723597E0,7.193046974E0
6.289844958E0,8.899014180E-1,-6.641658717E0,5.505983257E0,8.672912237E0
6.299822958E0,1.059439170E0,-6.915258708E0,6.734031276E0,9.710323968E0
6.309800958E0,9.077820573E-1,-7.555122440E0,7.526154165E0,1.070266041E1
6.319778958E0,4.530745746E-1,-8.657444213E0,7.483085913E0,1.145221340E1
6.329756958E0,3.263331421E-1,-1.024292551E1,6.009285268E0,1.188004738E1
6.339734958E0,1.015051933E0,-1.153900296E1,3.652696561E0,1.214582693E1
6.349713958E0,1.320784128E0,-1.166166585E1,1.495271037E0,1.183109279E1
6.359691958E0,1.151317127E0,-1.135083254E1,2.268888512E-1,1.141132810E1
6.369669958E0,7.150120749E-1,-1.117519855E1,-2.800985867E-1,1.120155169E1
6.379647958E0,2.200927786E-1,-1.076715880E1,-1.072654170E0,1.082269543E1
6.389625958E0,-4.674728315E-1,-1.041519033E1,-2.171854699E0,1.064949169E1
6.399603958E0,-6.169115107E-1,-1.011710044E1,-3.163329927E0,1.061804866E1
6.409581958E0,3.481587151E-1,-8.490844760E0,-4.352479928E0,9.547761034E0
6.419559958E0,1.135043522E0,-6.828686587E0,-5.171100937E0,8.640576902E0
6.429537958E0,1.177495039E0,-6.323872486E0,-5.300203366E0,8.334867336E0
6.439516958E0,9.922991011E-1,-6.558681464E0,-5.112311862E0,8.374765228E0
6.449494958E0,5.183461659E-1,-6.646931736E0,-5.014515426E0,8.342406679E0
6.459472958E0,-1.229757160E-2,-6.730310107E0,-5.695879771E0,8.817044388E0
6.469450958E0,-3.957986122E-1,-6.333270131E0,-7.001006956E0,9.448865831E0
6.479428958E0,-7.165639991E-1,-5.489920371E0,-8.314459991E0,9.989140833E0
6.489406958E0,-9.336035809E-1,-4.686207131E0,-9.145995453E0,1.031898182E1
6.499384958E0,-1.095310815E0,-4.031631804E0,-9.625766514E0,1.049329032E1
6.509362958E0,-1.302635979E0,-3.693607775E0,-9.860108299E0,1.060949266E1
6.519340958E0,-1.361903941E0,-3.484026024E0,-9.959634926E0,1.063896365E1
6.529318958E0,-1.329202072E0,-3.250420403E0,-9.947617729E0,1.054927056E1
6.539297958E0,-1.407767601E0,-3.006125488E0,-9.684262644E0,1.023736016E1
6.549275958E0,-1.453358633E0,-2.899068816E0,-9.189767125E0,9.745187075E0
6.559253958E0,-1.403917940E0,-2.736458918E0,-8.896235145E0,9.412873777E0
6.569231958E0,-1.257229864E0,-2.451965564E0,-8.854042806E0,9.272908717E0
6.579209958E0,-1.204480816E0,-2.308483078E0,-8.667816004E0,9.050464211E0
6.589187958E0,-1.272204876E0,-2.286080056E0,-8.088752205E0,8.501328102E0
6.599165958E0,-1.377186809E0,-2.127298331E0,-7.312923751E0,7.739566880E0
6.609143958E0,-1.551511019E0,-1.976404499E0,-6.519312161E0,6.986758350E0
6.619121958E0,-1.865698726E0,-1.953227890E0,-5.949501581E0,6.533949800E0
6.629100958E0,-2.051324434E0,-1.781581705E0,-5.662848265E0,6.280908834E0
6.639078958E0,-2.151239755E0,-1.666489205E0,-5.141577176E0,5.817287565E0
6.649056958E0,-2.201523617E0,-1.740460576E0,-4.247564800E0,5.090944508E0
6.659034958E0,-2.135928675E0,-1.803018767E0,-3.335192751E0,4.351617937E0
6.669012958E0,-1.975973559E0,-1.767692814E0,-2.569552487E0,3.692128027E0
6.678990958E0,-1.706185075E0,-1.938314567E0,-1.860423515E0,3.182657148E0
6.688968958E0,-1.487226730E0,-2.072743809E0,-1.093831908E0,2.775712248E0
6.698946958E0,-1.429079971E0,-2.182667955E0,-2.088295063E-1,2.617234939E0
6.708924958E0,-1.333988749E0,-2.314493431E0,7.274735878E-1,2.768686268E0
6.718902958E0,-8.582459812E-1,-2.628038676E0,1.318265148E0,3.062841238E0
6.728881958E0,-2.829734433E-1,-2.821587362E0,1.350341803E0,3.140836225E0
6.738859958E0,1.332168949E-1,-2.718928381E0,1.093294914E0,2.933532351E0
6.748837958E0,2.341095047E-1,-2.565957034E0,9.639743114E-1,2.751034211E0
6.758815958E0,1.851765689E-1,-2.521076145E0,9.243348670E-1,2.691562787E0
6.768793958E0,4.366822344E-1,-2.607700891E0,8.800404543E-1,2.786622779E0
6.778771958E0,4.926744406E-1,-2.651476071E0,1.006547304E0,2.878574462E0
6.788749958E0,3.095782746E-1,-2.477285178E0,1.317166017E0,2.822712681E0
6.798727958E0,4.084177076E-1,-2.280600631E0,1.647924880E0,2.843167366E0
6.808705958E0,7.365676893E-1,-2.258368347E0,1.484789756E0,2.801314008E0
6.818683958E0,1.206412663E0,-2.226253100E0,6.859390609E-1,2.623384603E0
6.828662958E0,1.255768499E0,-2.124933132E0,-3.727730079E-1,2.496248195E0
6.838640958E0,7.216476414E-1,-2.122981331E0,-1.201927045E0,2.544101742E0
6.848618958E0,3.882896910E-1,-2.265752796E0,-1.595968569E0,2.798485356E0
6.858596958E0,-4.803348787E-2,-2.286428550E0,-1.195334601E0,2.580482037E0
6.868574958E0,-6.509445716E-1,-2.067062654E0,-2.451214197E-1,2.180954232E0
6.878552958E0,-8.882606893E-1,-1.900616983E0,6.257544011E-1,2.189273975E0
6.888530958E0,-8.428716778E-1,-1.992793660E0,6.655239460E-1,2.263753820E0
6.898508958E0,-5.139371094E-1,-2.173049285E0,-2.456169713E-1,2.246464387E0
6.908486958E0,5.483211129E-1,-2.358702475E0,-1.472442337E0,2.834117119E0
6.918465958E0,1.439226352E0,-2.457253202E0,-1.774282626E0,3.355226464E0
6.928443958E0,1.220545456E0,-2.524801991E0,-1.340031554E0,3.108060629E0
6.938424333E0,5.877251337E-1,-2.572552108E0,-9.708021051E-1,2.811743571E0
6.948402333E0,1.895536483E-1,-2.426259450E0,-6.117339474E-1,2.509359266E0
6.958380333E0,6.770176716E-2,-2.179434444E0,1.134406614E-1,2.183434636E0
6.968358333E0,8.050402656E-2,-2.181040090E0,1.156397992E0,2.469954066E0
6.978336333E0,3.037160754E-1,-2.317204785E0,2.359681883E0,3.321111269E0
6.988314333E0,6.958110613E-1,-2.312900650E0,3.249074374E0,4.048474619E0
6.998292333E0,1.255558291E0,-2.206117628E0,3.679236488E0,4.469917533E0
7.008271333E0,1.502496733E0,-1.742263273E0,3.648315243E0,4.313140602E0
7.018249333E0,1.131551565E0,-1.406882771E0,3.356853177E0,3.811586458E0
7.028227333E0,4.530778637E-1,-1.301929343E0,2.856064884E0,3.171341386E0
7.038205333E0,-1.962449826E-2,-1.284850211E0,2.382924566E0,2.707315030E0
7.048183333E0,-2.781874973E-1,-1.225997400E0,2.131189653E0,2.474353905E0
7.058161333E0,-2.028429077E-1,-1.068677478E0,2.135603131E0,2.396668006E0
7.068139333E0,2.096356181E-1,-9.142244464E-1,2.332639096E0,2.514151662E0
7.078117333E0,7.202766886E-1,-7.765447372E-1,2.525618262E0,2.738716459E0
7.088095333E0,1.214607024E0,-6.965513188E-1,2.634518561E0,2.983478173E0
7.098073333E0,1.469876141E0,-5.456446230E-1,2.808407153E0,3.216428867E0
7.108052333E0,1.210175785E0,-4.699337053E-1,2.989707676E0,3.259404102E0
7.118030333E0,7.488290081E-1,-4.267906094E-1,3.121607997E0,3.238414982E0
7.128008333E0,3.461154421E-1,-2.501894939E-1,3.161697092E0,3.190410504E0
7.137986333E0,6.821479181E-2,-6.899714470E-4,3.260161280E0,3.260874929E0
7.147964333E0,-9.804499744E-2,1.087316063E-1,3.483087546E0,3.486163255E0
7.157942333E0,-1.189933419E-1,1.976689258E-1,3.705861200E0,3.713036447E0
7.167920333E0,4.731137501E-2,2.891293189E-1,3.879147529E0,3.890195327E0
7.177898333E0,1.628203245E-1,3.431549603E-1,4.048448980E0,4.066227359E0
7.187876333E0,5.918308659E-2,3.649788156E-1,4.078222418E0,4.094949360E0
7.197855333E0,-3.118393198E-2,3.351501220E-1,3.951336669E0,3.965647427E0
7.207833333E0,3.904702639E-1,7.818282813E-2,4.062936042E0,4.082404789E0
7.217811333E0,6.212925370E-1,2.720379075E-1,4.292873120E0,4.346121105E0
7.227789333E0,6.180822694E-1,3.245549673E-1,4.329562644E0,4.385484501E0
7.237767333E0,3.809250863E-1,-6.854690909E-3,4.093984757E0,4.111673880E0
7.247745333E0,2.574534534E-1,-1.240463412E-1,3.739003803E0,3.749909228E0
7.257723333E0,3.389116724E-1,-2.375244248E-1,3.795049950E0,3.817549357E0
7.267701333E0,5.163108963E-1,-3.889409977E-1,4.421961515E0,4.468959127E0
7.277679333E0,6.500418346E-1,-3.621291751E-1,5.424282451E0,5.475082834E0
7.287657333E0,6.853147975E-1,-2.605776572E-1,6.436954129E0,6.478575117E0
7.297636333E0,7.713535792E-1,-2.912246686E-1,7.245688373E0,7.292448022E0
7.307614333E0,8.846330767E-1,-6.551267195E-1,7.566404643E0,7.646060811E0
7.317592333E0,8.309823880E-1,-1.430658719E0,7.425442892E0,7.607530364E0
7.327570333E0,8.809113970E-1,-2.117914134E0,7.157504759E0,7.516078735E0
7.337548333E0,7.203790880E-1,-2.808075031E0,6.967055683E0,7.546131214E0
7.347526333E0,4.602058388E-2,-3.177532521E0,6.752252954E0,7.462690585E0
7.357504333E0,-3.528740560E-1,-2.949367735E0,6.617710860E0,7.253784334E0
7.367482333E0,-3.735367274E-1,-2.983981497E0,6.485547999E0,7.148846628E0
7.377460333E0,-2.699610496E-1,-3.503856272E0,6.029696143E0,6.979048884E0
7.387439333E0,-1.260107133E-1,-4.078762701E0,5.742027751E0,7.044364170E0
7.397417333E0,-3.108841040E-1,-4.445798274E0,6.354290872E0,7.761364809E0
7.407395333E0,-8.430953338E-1,-5.171740623E0,7.664887542E0,9.284837739E0
7.417373333E0,-1.302947197E0,-6.299375576E0,9.139874003E0,1.117663191E1
7.427351333E0,-1.436012576E0,-7.850326139E0,9.780247028E0,1.262311311E1
7.437329333E0,-5.434031660E-1,-9.560383533E0,8.724876058E0,1.295452363E1
7.447307333E0,5.787545548E-1,-1.049455459E1,6.407681213E0,1.230971207E1
7.457285333E0,1.334260937E0,-1.041187730E1,3.648947911E0,1.111315715E1
7.467263333E0,1.726607353E0,-9.942456976E0,1.219221574E0,1.016465075E1
7.477242333E0,1.452895972E0,-9.433346926E0,-4.017610180E-1,9.553028465E0
7.487220333E0,8.680604596E-1,-8.662159992E0,-1.224478147E0,8.791239471E0
7.497198333E0,5.063084299E-1,-7.422586527E0,-1.741326841E0,7.640900349E0
7.507176333E0,3.686417308E-1,-6.811741941E0,-1.718175668E0,7.034760310E0
7.517154333E0,7.050548514E-1,-7.083825164E0,-1.911142555E0,7.370898668E0
7.527132333E0,1.363854865E0,-7.399839104E0,-2.856052605E0,8.048276545E0
7.537110333E0,1.310349187E0,-7.059287909E0,-4.308869932E0,8.373584708E0
7.547088333E0,9.795090477E-1,-6.632686164E0,-5.663309610E0,8.776391028E0
7.557066333E0,1.022026930E0,-6.425338050E0,-6.808908965E0,9.417576620E0
7.567045333E0,1.024862684E0,-5.910416452E0,-7.559000314E0,9.649966420E0
7.577023333E0,8.902448688E-1,-5.494362500E0,-7.666356947E0,9.473836818E0
7.587001333E0,5.889872552E-1,-5.286795115E0,-7.408731549E0,9.120658515E0
7.596979333E0,2.553870839E-1,-5.088631808E0,-7.087768527E0,8.729023939E0
7.606957333E0,-9.867790371E-2,-4.879561104E0,-6.768217607E0,8.344376757E0
7.616935333E0,-3.198927630E-1,-4.743285896E0,-6.696503261E0,8.212444727E0
7.626913333E0,-6.194490561E-1,-4.413106492E0,-6.883867931E0,8.200418509E0
7.636891333E0,-9.140243255E-1,-3.942220860E0,-7.113575213E0,8.184100322E0
7.646869333E0,-9.322543359E-1,-3.485766740E0,-7.190581289E0,8.045130651E0
7.656847333E0,-8.764792076E-1,-3.105858521E0,-6.974712027E0,7.685127248E0
7.666826333E0,-7.931600390E-1,-2.893843744E0,-6.623271562E0,7.271255783E0
7.676804333E0,-6.059672771E-1,-2.737790914E0,-6.472566011E0,7.053850452E0
7.686782333E0,-3.680847104E-1,-2.603168129E0,-6.664269900E0,7.164109432E0
7.696760333E0,-2.626559038E-1,-2.389809077E0,-6.842591851E0,7.252671148E0
7.706738333E0,-2.910980764E-1,-2.101230274E0,-6.649403354E0,6.979575325E0
7.716716333E0,-4.636593506E-1,-1.930614953E0,-5.942087896E0,6.265034928E0
7.726694333E0,-7.583180889E-1,-1.839889555E0,-4.791586236E0,5.188404240E0
7.736672333E0,-1.060031347E0,-1.672065110E0,-3.562001569E0,4.075208383E0
7.746650333E0,-1.385503011E0,-1.521776465E0,-2.576870862E0,3.297830445E0
7.756629333E0,-1.545881319E0,-1.354556038E0,-2.031952463E0,2.890225238E0
7.766607333E0,-1.520190116E0,-1.250148740E0,-1.970168443E0,2.784854315E0
7.776585333E0,-1.279322691E0,-1.306001344E0,-2.467158385E0,3.070696428E0
7.786563333E0,-9.205438247E-1,-1.356910127E0,-3.244617627E0,3.635402257E0
7.796541333E0,-6.808338569E-1,-1.512974651E0,-3.567756398E0,3.934655354E0
7.806519333E0,-5.347084294E-1,-1.838519552E0,-3.308435892E0,3.822540425E0
7.816497333E0,-3.242052307E-1,-2.189518552E0,-2.759264229E0,3.537320965E0
7.826475333E0,-2.322609805E-1,-2.412998550E0,-2.003195856E0,3.144725871E0
7.836453333E0,-4.377368163E-1,-2.554838553E0,-9.071507773E-1,2.746222148E0
7.846431333E0,-6.334046057E-1,-2.638753699E0,3.058508939E-1,2.730891292E0
7.856410333E0,-6.731084425E-1,-2.648593978E0,1.013352878E0,2.914619888E0
7.866388333E0,-5.547115349E-1,-2.637483099E0,9.699633220E-1,2.864411079E0
7.876366333E0,-2.879893311E-1,-2.756481539E0,3.056035566E-1,2.788282960E0
7.886344333E0,6.316228129E-2,-2.862742404E0,-6.857497573E-1,2.944407628E0
7.896322333E0,4.246528673E-1,-2.976074308E0,-1.495736329E0,3.357763468E0
7.906300333E0,6.632224819E-1,-3.253092581E0,-1.658305296E0,3.711125416E0
7.916278333E0,5.889267366E-1,-3.544684455E0,-1.124592355E0,3.765146817E0
7.926256333E0,3.206812965E-1,-3.678465241E0,-1.795901390E-1,3.696781795E0
7.936234333E0,-8.973433156E-2,-3.601305383E0,9.570184636E-1,3.727376698E0
7.946210708E0,-4.245762688E-1,-3.588600553E0,1.906185871E0,4.085567709E0
7.956188708E0,-2.093739918E-1,-3.589670593E0,2.157044286E0,4.193138739E0
7.966166708E0,5.940764525E-1,-3.490848556E0,1.541730089E0,3.862108509E0
7.976144708E0,1.542909326E0,-3.388654429E0,2.399812786E-1,3.731104265E0
7.986122708E0,1.998155264E0,-3.331842881E0,-5.351634890E-1,3.921759988E0
7.996100708E0,1.392388108E0,-3.267294298E0,-2.289888056E-1,3.558987573E0
8.006078708E0,2.242644015E-1,-3.094655256E0,8.973178071E-1,3.229917170E0
8.016056708E0,-6.951715221E-1,-2.959062418E0,1.936267164E0,3.603948442E0
8.026034708E0,-1.056946502E0,-2.956164538E0,2.471705180E0,3.995669053E0
8.036012708E0,-7.266035222E-1,-2.943062682E0,2.306887666E0,3.809370201E0
8.045991708E0,1.848404636E-1,-2.760751761E0,1.334281110E0,3.071843479E0
8.055969708E0,1.147907324E0,-2.521315881E0,2.965725321E-1,2.786158693E0
8.065947708E0,1.442906151E0,-2.342616200E0,2.810335565E-1,2.765647967E0
8.075925708E0,1.064199242E0,-2.118649129E0,1.297408860E0,2.702677175E0
8.085903708E0,3.080342442E-1,-1.802401301E0,2.503627469E0,3.100271932E0
8.095881708E0,-3.384611079E-1,-1.754227261E0,3.336646954E0,3.784849019E0
8.105859708E0,-4.723303694E-1,-1.619346614E0,3.714716223E0,4.079766667E0
8.115837708E0,-3.286361045E-1,-1.306579633E0,3.506873435E0,3.756768999E0
8.125815708E0,-7.279352255E-2,-1.080906930E0,2.720714706E0,2.928471819E0
8.135794708E0,2.558544043E-1,-1.028621128E0,1.748450797E0,2.044652315E0
8.145772708E0,6.669655039E-1,-9.498491925E-1,1.382343761E0,1.804973890E0
8.155750708E0,8.358542881E-1,-7.419783372E-1,1.806257540E0,2.124088168E0
8.165728708E0,6.059106322E-1,-4.611903638E-1,2.581438122E0,2.691402427E0
8.175706708E0,1.680383980E-1,-1.615252393E-1,3.070951229E0,3.079783881E0
8.185684708E0,-9.839725563E-2,1.388012052E-1,3.132139417E0,3.136757103E0
8.195662708E0,-9.038805027E-2,4.234167659E-1,2.967692324E0,2.999108115E0
8.205640708E0,2.392541774E-2,4.783671445E-1,2.821934102E0,2.862292722E0
8.215618708E0,1.949900971E-1,4.356994271E-1,2.700048891E0,2.741918880E0
8.225596708E0,3.401749999E-1,4.410572308E-1,2.500474066E0,2.561761321E0
8.235575708E0,4.625327018E-1,5.399231225E-1,2.318203490E0,2.424772340E0
8.245553708E0,3.342982558E-1,6.406688941E-1,2.222983922E0,2.337492133E0
8.255531708E0,4.778183833E-2,6.785249376E-1,2.084156989E0,2.192347954E0
8.265509708E0,-1.150548401E-1,7.661793780E-1,1.884347690E0,2.037408813E0
8.275487708E0,-1.672906671E-2,9.008062559E-1,1.717322559E0,1.939311359E0
8.285465708E0,1.877305230E-1,8.127910423E-1,1.611454627E0,1.814568280E0
8.295443708E0,3.769095475E-1,7.041176158E-1,1.495092697E0,1.695035278E0
8.305421708E0,4.987219600E-1,6.572796643E-1,1.330202969E0,1.565305111E0
8.315399708E0,4.232392298E-1,6.101382422E-1,1.206189373E0,1.416436699E0
8.325378708E0,1.407580855E-1,5.722026765E-1,1.111289062E0,1.257852186E0
8.335356708E0,-1.877843905E-1,6.052359366E-1,1.125806530E0,1.291903192E0
8.345334708E0,-3.755660766E-1,5.782147837E-1,1.160952389E0,1.350256517E0
8.355312708E0,-4.168446417E-1,4.971127331E-1,1.115951632E0,1.290824764E0
8.365290708E0,-2.101996003E-1,4.835232192E-1,1.110485655E0,1.229291245E0
8.375268708E0,6.525757620E-2,3.265032595E-1,1.216685709E0,1.261422627E0
8.385246708E0,2.676035985E-1,1.498220372E-1,1.402986771E0,1.436116363E0
8.395224708E0,3.303293486E-1,8.593652844E-2,1.627844957E0,1.663244351E0
8.405202708E0,2.894277096E-1,1.498524427E-2,1.891207643E0,1.913284952E0
8.415181708E0,1.626388416E-1,-8.099972427E-2,2.109202368E0,2.117013693E0
8.425159708E0,7.233700119E-2,-1.963693821E-1,2.222823123E0,2.232652282E0
8.435137708E0,1.286799672E-1,-3.725623620E-1,2.362630050E0,2.395283282E0
8.445115708E0,4.138942829E-1,-5.109226871E-1,2.673249933E0,2.752928563E0
8.455093708E0,8.053378889E-1,-5.705859214E-1,3.084602723E0,3.238658884E0
8.465071708E0,1.152189020E0,-7.035866886E-1,3.369121220E0,3.629538753E0
8.475049708E0,1.516718331E0,-8.470510483E-1,3.512081550E0,3.918245371E0
8.485027708E0,1.746818985E0,-8.950490874E-1,3.713279563E0,4.200111254E0
8.495005708E0,1.553817014E0,-1.187305790E0,3.991597672E0,4.444872813E0
8.504984708E0,7.194078655E-1,-1.673121702E0,3.905783350E0,4.309527525E0
8.514962708E0,-2.423568562E-1,-1.858279633E0,3.387844589E0,3.871618654E0
8.524940708E0,-7.396064141E-1,-1.504985016E0,3.175311164E0,3.590904975E0
8.534918708E0,-9.543266979E-1,-1.256309951E0,4.234133745E0,4.518511117E0
8.544896708E0,-1.049313985E0,-1.287257509E0,6.276882507E0,6.492868838E0
8.554874708E0,-5.865175375E-1,-1.478966076E0,8.196778929E0,8.349762170E0
8.564852708E0,3.645395435E-1,-1.863616971E0,9.839800919E0,1.002135916E1
8.574830708E0,1.127224406E0,-2.466071972E0,1.100938438E1,1.133837247E1
8.584808708E0,1.458088885E0,-3.199254343E0,1.147758380E1,1.200400689E1
8.594786708E0,1.370911869E0,-4.096296161E0,1.159769263E1,1.237600565E1
8.604765708E0,1.268378750E0,-5.423079679E0,1.154468411E1,1.281789020E1
8.614743708E0,1.273886681E0,-7.035555815E0,1.163469030E1,1.365605548E1
8.624721708E0,1.470056527E0,-8.817108284E0,1.059097985E1,1.385897972E1
8.634699708E0,2.084531211E0,-1.007648101E1,8.132382959E0,1.311550199E1
8.644677708E0,2.298413004E0,-1.028928691E1,5.357387965E0,1.182597705E1
8.654655708E0,1.813211634E0,-9.648774723E0,2.763525095E0,1.019919904E1
8.664633708E0,1.174512959E0,-8.935824303E0,5.502440429E-1,9.029463172E0
8.674611708E0,9.965056611E-1,-8.152938260E0,-9.927763800E-1,8.273392941E0
8.684589708E0,1.237798251E0,-7.640930330E0,-2.350788561E0,8.089633346E0
8.694568708E0,8.809454571E-1,-7.220626037E0,-3.439889779E0,8.046511477E0
8.704546708E0,6.260394529E-1,-6.722047407E0,-4.110315446E0,7.903957224E0
8.714524708E0,5.590021487E-1,-6.288782176E0,-4.381203498E0,7.684803755E0
8.724502708E0,8.853608358E-1,-6.173042389E0,-4.724227481E0,7.823595174E0
8.734480708E0,1.125120943E0,-6.221012362E0,-5.575838188E0,8.429523322E0
8.744458708E0,6.115779729E-1,-5.873696523E0,-6.631334288E0,8.879692162E0
8.754436708E0,-1.756351554E-1,-5.146514565E0,-7.549002745E0,9.138101680E0
8.764414708E0,-7.475308532E-1,-4.828898488E0,-7.892412059E0,9.282630613E0
8.774392708E0,-1.304127165E0,-4.732140518E0,-7.807212279E0,9.222064038E0
8.784371708E0,-1.782282494E0,-4.564219594E0,-7.668718638E0,9.100432788E0
8.794349708E0,-2.040124678E0,-4.436916354E0,-7.352826321E0,8.826799552E0
8.804327708E0,-2.175434656E0,-4.313114426E0,-6.992894529E0,8.499179131E0
8.814305708E0,-2.184801457E0,-4.312983449E0,-6.675292486E0,8.242251720E0
8.824283708E0,-2.206622535E0,-4.430196733E0,-6.619271482E0,8.265021541E0
8.834261708E0,-2.255440939E0,-4.362877155E0,-6.800716431E0,8.388769569E0
8.844239708E0,-2.165906326E0,-4.205784690E0,-7.213207090E0,8.626130743E0
8.854217708E0,-1.810526446E0,-4.065187220E0,-7.760478993E0,8.945881027E0
8.864195708E0,-1.445888231E0,-3.848351414E0,-8.026241961E0,9.017813560E0
8.874173708E0,-1.126446800E0,-3.574584777E0,-7.700136312E0,8.563798103E0
8.884152708E0,-8.732652855E-1,-3.370421641E0,-6.743839395E0,7.589578650E0
8.894130708E0,-8.066635989E-1,-3.140414397E0,-5.433607591E0,6.327479766E0
8.904108708E0,-8.684762697E-1,-2.899336619E0,-4.316268414E0,5.271676857E0
8.914086708E0,-9.712397692E-1,-2.644078758E0,-3.668800963E0,4.625425350E0
8.924064708E0,-1.018543305E0,-2.415847898E0,-3.413476444E0,4.304134404E0
8.934042708E0,-1.014904144E0,-2.286903344E0,-3.422386431E0,4.239420504E0
8.944020833E0,-8.940799114E-1,-2.154588456E0,-3.605168638E0,4.294050676E0
8.953998833E0,-6.735137276E-1,-2.156550781E0,-3.738277579E0,4.367957334E0
8.963976833E0,-4.151517266E-1,-2.256361583E0,-3.674867449E0,4.332224523E0
8.973955833E0,-3.109560248E-1,-2.367701340E0,-3.343667706E0,4.108870527E0
8.983933833E0,-3.193090647E-1,-2.534122453E0,-2.731498141E0,3.739627920E0
8.993911833E0,-2.490798385E-1,-2.801527319E0,-2.015980209E0,3.460458392E0
9.003889833E0,-2.502718665E-1,-3.045190735E0,-1.221919552E0,3.290730924E0
9.013867833E0,-2.421731805E-1,-3.266514865E0,-3.787683043E-1,3.297306877E0
9.023845833E0,4.770304710E-3,-3.518298309E0,3.601759127E-1,3.536689474E0
9.033823833E0,4.668996582E-1,-3.773649725E0,8.542668048E-1,3.897204038E0
9.043801833E0,8.429018641E-1,-4.018034688E0,1.174029686E0,4.270062296E0
9.053779833E0,9.783587542E-1,-4.125276716E0,1.213856096E0,4.410049938E0
9.063758833E0,9.151779811E-1,-3.944115357E0,1.098873085E0,4.195368726E0
9.073736833E0,7.349515188E-1,-3.834694072E0,1.149871330E0,4.070287021E0
9.083714833E0,5.528806255E-1,-3.838460264E0,1.357706518E0,4.108871033E0
9.093692833E0,4.076468984E-1,-3.707974969E0,1.675128466E0,4.089169811E0
9.103670833E0,3.910408425E-1,-3.422638446E0,1.984093587E0,3.975423781E0
9.113648833E0,5.281946677E-1,-3.396900757E0,2.367466866E0,4.174065611E0
9.123626833E0,8.974175752E-1,-3.438529424E0,2.284211286E0,4.224507558E0
9.133604833E0,1.373525721E0,-3.229644077E0,1.698743616E0,3.899090105E0
9.143582833E0,1.606931221E0,-2.871676950E0,1.020484727E0,3.445307756E0
9.153560833E0,1.426067631E0,-2.600386024E0,8.738789508E-1,3.091818362E0
9.163539833E0,6.984354378E-1,-2.285845583E0,1.436097214E0,2.788418423E0
9.173517833E0,-2.507092200E-1,-1.881470275E0,2.274900472E0,2.962761831E0
9.183495833E0,-1.040267685E0,-1.670255982E0,3.026507420E0,3.609938928E0
9.193473833E0,-1.425102256E0,-1.651167161E0,3.280792011E0,3.939652987E0
9.203451833E0,-1.066323097E0,-1.581788194E0,2.951263402E0,3.514122153E0
9.213429833E0,-1.822907852E-1,-1.285427915E0,2.342429674E0,2.678158254E0
9.223407833E0,3.360188356E-1,-1.013476839E0,2.047920624E0,2.309550355E0
9.233385833E0,2.270857927E-1,-8.767730302E-1,2.255555252E0,2.430602476E0
9.243363833E0,-1.043027607E-1,-6.624491876E-1,2.830994947E0,2.909338478E0
9.253342833E0,-4.500472153E-1,-4.039484614E-1,3.396759839E0,3.450173077E0
9.263320833E0,-6.624081109E-1,-2.043139941E-1,3.761838934E0,3.825174621E0
9.273298833E0,-6.866993451E-1,-1.250503081E-1,3.743670466E0,3.808183573E0
9.283276833E0,-3.524823290E-1,-2.602127910E-2,3.220390858E0,3.239728102E0
9.293254833E0,4.491955318E-2,5.676009178E-2,2.486847129E0,2.487900344E0
9.303232833E0,3.917842063E-1,-5.465100110E-2,1.991324254E0,2.030234933E0
9.313210833E0,7.212448414E-1,-8.170314431E-2,1.883430846E0,2.018460125E0
9.323188833E0,7.957182690E-1,-2.010272741E-3,2.036488148E0,2.186425298E0
9.333166833E0,6.391951033E-1,7.729025066E-2,2.118458510E0,2.214138799E0
9.343145833E0,5.583785066E-1,1.684161830E-1,1.970572486E0,2.055068488E0
9.353123833E0,5.063325131E-1,1.337942344E-1,1.710117620E0,1.788512171E0
9.363101833E0,4.822270377E-1,1.667216599E-2,1.398324786E0,1.479233952E0
9.373079833E0,5.705291669E-1,-2.595111251E-2,1.119457038E0,1.256726323E0
9.383057833E0,5.130518045E-1,-2.488574982E-2,9.553484988E-1,1.084680694E0
9.393035833E0,3.320156125E-1,1.151609123E-2,9.011483181E-1,9.604349423E-1
9.403013833E0,2.332734076E-1,1.478766686E-1,9.484382594E-1,9.878355752E-1
9.412991833E0,1.368452750E-1,2.658009750E-1,1.141668271E0,1.180162374E0
9.422969833E0,2.347677184E-2,2.431044227E-1,1.338615943E0,1.360714357E0
9.432948833E0,2.555156495E-2,2.826163977E-1,1.400901654E0,1.429353124E0
9.442926833E0,1.122385470E-1,3.742592239E-1,1.322659476E0,1.379164801E0
9.452904833E0,1.593121596E-1,4.000033450E-1,1.201449620E0,1.276269654E0
9.462882833E0,1.503770842E-1,3.281866729E-1,1.019321716E0,1.081358645E0
9.472860833E0,2.213552838E-1,2.800775367E-1,7.802723372E-1,8.580597348E-1
9.482838833E0,3.354925131E-1,2.578540242E-1,5.698105806E-1,7.097379952E-1
9.492816833E0,3.860462971E-1,2.121235353E-1,4.622376001E-1,6.385074288E-1
9.502794833E0,2.828767816E-1,1.250023609E-1,4.119983232E-1,5.151577255E-1
9.512772833E0,1.746115455E-1,9.849459350E-2,3.154713178E-1,3.737813921E-1
9.522750833E0,3.698740315E-2,1.113035041E-1,2.509051931E-1,2.769656187E-1
9.532729833E0,-1.092278979E-1,2.011810559E-1,3.094533634E-1,3.849232846E-1
9.542707833E0,-1.535744513E-1,2.335301918E-1,5.290537333E-1,5.983471529E-1
9.552685833E0,-1.318496332E-1,1.696487761E-1,7.401651156E-1,7.707200733E-1
9.562663833E0,-1.141546613E-1,1.387672913E-1,8.236317801E-1,8.430047195E-1
9.572641833E0,-2.258175956E-2,1.187902790E-1,7.954838687E-1,8.046214337E-1
9.582619833E0,1.098694745E-1,-4.355064690E-2,7.570220536E-1,7.661921103E-1
9.592597833E0,1.949582297E-1,-2.758979470E-1,7.842168689E-1,8.538878649E-1
9.602575833E0,2.700600868E-1,-4.123053020E-1,8.424013424E-1,9.759959704E-1
9.612553833E0,2.400459817E-1,-5.275919294E-1,9.895681590E-1,1.146830615E0
9.622532833E0,2.030182328E-1,-5.937695467E-1,1.237370819E0,1.387395121E0
9.632510833E0,3.154785172E-1,-5.578547788E-1,1.551644627E0,1.678788164E0
9.642488833E0,4.048630025E-1,-5.071407080E-1,1.997985402E0,2.100726402E0
9.652466833E0,4.993176451E-1,-5.741556466E-1,2.546899788E0,2.658133057E0
9.662444833E0,5.338852146E-1,-5.818342102E-1,3.190629700E0,3.286895549E0
9.672422833E0,4.696585573E-1,-4.821730971E-1,3.919363509E0,3.976742432E0
9.682400833E0,4.356133634E-1,-3.901607269E-1,4.738899899E0,4.774846244E0
9.692378833E0,4.487181431E-1,-3.349413764E-1,5.554426854E0,5.582579276E0
9.702356833E0,3.289489306E-1,-4.786992663E-1,6.393343256E0,6.419672762E0
9.712335833E0,-5.355099365E-3,-6.692442369E-1,7.420248810E0,7.450369718E0
9.722313833E0,2.630771957E-3,-6.511675698E-1,8.837291118E0,8.861249372E0
9.732291833E0,2.501638575E-1,-8.404255682E-1,1.072246268E1,1.075825743E1
9.742269833E0,5.824665500E-1,-1.844256256E0,1.212407302E1,1.227736515E1
9.752247833E0,1.014441264E0,-3.215059367E0,1.222923636E1,1.268542154E1
9.762225833E0,1.205714871E0,-4.353240359E0,1.118103408E1,1.205902040E1
9.772203833E0,9.969423019E-1,-5.366438870E0,1.001520686E1,1.140600406E1
9.782181833E0,2.199434736E-1,-6.459569989E0,9.279976798E0,1.130895172E1
9.792159833E0,-2.721320477E-1,-7.729253107E0,8.448303927E0,1.145378753E1
9.802138833E0,-2.771052691E-1,-8.662010888E0,7.490016618E0,1.145458724E1
9.812116833E0,-1.757113337E-1,-9.104552143E0,6.231384153E0,1.103421464E1
9.822094833E0,2.084278940E-1,-9.231901576E0,4.874221426E0,1.044171841E1
9.832072833E0,3.900334769E-1,-9.230898778E0,3.707055202E0,9.955093000E0
9.842050833E0,4.665762341E-1,-9.247676194E0,2.634989262E0,9.627064806E0
9.852028833E0,6.225348511E-1,-8.862444085E0,1.607171395E0,9.028480753E0
9.862006833E0,9.281467400E-1,-8.318564737E0,4.272121936E-1,8.381079042E0
9.871984833E0,1.186895169E0,-7.852403070E0,-9.696504959E-1,8.000573492E0
9.881962833E0,1.218158769E0,-7.494839401E0,-2.196869672E0,7.904604025E0
9.891940833E0,1.200977238E0,-7.382445976E0,-3.195118023E0,8.133365484E0
9.901919833E0,1.396106791E0,-7.315921034E0,-3.920180950E0,8.416628388E0
9.911897833E0,1.319353314E0,-7.140327394E0,-4.696692358E0,8.647767779E0
9.921875833E0,1.122878171E0,-7.117661247E0,-5.442050970E0,9.029832544E0
9.931853833E0,6.151158307E-1,-6.800771980E0,-6.423725973E0,9.375133193E0
9.941832500E0,-1.526585946E-1,-6.183949785E0,-7.498624889E0,9.720798054E0
9.951810500E0,-8.029876737E-1,-5.810921400E0,-8.482634684E0,1.031342271E1
9.961788500E0,-1.301987084E0,-5.280973628E0,-9.508392431E0,1.095414896E1
9.971766500E0,-1.551655445E0,-4.895752628E0,-1.011136316E1,1.134088591E1
9.981745500E0,-1.717632169E0,-4.673329808E0,-1.001213123E1,1.118181754E1
9.991723500E0,-1.937436022E0,-4.583162819E0,-9.363345230E0,1.060336143E1
1.000170150E1,-2.365388327E0,-4.609133227E0,-8.616659299E0,1.005415280E1
1.001167950E1,-2.536939057E0,-4.551292570E0,-8.201729182E0,9.716927776E0
1.002165750E1,-2.285792958E0,-4.427117005E0,-8.169157852E0,9.568665238E0
1.003163550E1,-1.818877586E0,-4.241947964E0,-8.333366963E0,9.526145241E0
1.004161350E1,-1.317560266E0,-3.920517164E0,-8.197452528E0,9.181756251E0
1.005159150E1,-8.703524950E-1,-3.688107299E0,-7.512475188E0,8.414091298E0
1.006156950E1,-6.310041775E-1,-3.513715847E0,-6.600451634E0,7.504020729E0
1.007154750E1,-5.295073311E-1,-3.211945724E0,-5.903582811E0,6.741606883E0
1.008152650E1,-4.725997433E-1,-2.954720861E0,-5.702729784E0,6.440097272E0
1.009150450E1,-4.343960828E-1,-2.682099693E0,-6.007432870E0,6.593300267E0
1.010148250E1,-3.222350845E-1,-2.510186875E0,-6.419066911E0,6.899948812E0
1.011146050E1,-2.696825029E-1,-2.409174471E0,-6.417857707E0,6.860448078E0
1.012143850E1,-3.096252716E-1,-2.303931021E0,-5.843953491E0,6.289336878E0
1.013141650E1,-3.605784935E-1,-2.298746295E0,-4.794905700E0,5.329669038E0
1.014139450E1,-4.295326611E-1,-2.430144925E0,-3.665813035E0,4.419082243E0
1.015137250E1,-4.380570976E-1,-2.575750535E0,-2.745543737E0,3.790038952E0
1.016135050E1,-4.210175072E-1,-2.772740892E0,-1.974242198E0,3.429720113E0
1.017132950E1,-3.704246199E-1,-3.124431617E0,-1.153616180E0,3.351136765E0
1.018130750E1,-3.063256878E-1,-3.415515368E0,-5.034780121E-1,3.465987704E0
1.019128550E1,-2.732681617E-1,-3.556765972E0,-6.336510658E-2,3.567810926E0
1.020126350E1,-2.123134967E-1,-3.673992705E0,2.793156445E-1,3.690706795E0
1.021124150E1,-9.261287928E-2,-4.063769270E0,4.148108339E-1,4.085935126E0
1.022121950E1,8.182425477E-2,-4.515953752E0,3.279676947E-1,4.528586569E0
1.023119750E1,1.209106256E-1,-4.785440812E0,2.017872660E-1,4.791219182E0
1.024117550E1,1.133182354E-1,-5.175227317E0,2.718546704E-1,5.183601428E0
1.025115350E1,1.470431845E-1,-5.556706683E0,5.239444363E-1,5.583290126E0
1.026113250E1,3.430301222E-1,-5.911480646E0,8.529643375E-1,5.982543042E0
1.027111050E1,5.348043238E-1,-6.206954486E0,1.340984650E0,6.372639915E0
1.028108850E1,5.654177868E-1,-6.216365579E0,1.868034981E0,6.515554695E0
1.029106650E1,6.995233123E-1,-5.997653986E0,2.302896941E0,6.462547526E0
1.030104450E1,9.192886468E-1,-5.634253042E0,3.008990331E0,6.453210191E0
1.031102250E1,8.613249057E-1,-5.325997773E0,3.919320239E0,6.668523375E0
1.032100050E1,6.345138956E-1,-4.896424474E0,4.662063977E0,6.790612714E0
1.033097850E1,6.424680823E-1,-4.084445609E0,5.174204054E0,6.623280816E0
1.034095650E1,8.268503800E-1,-3.309588963E0,5.541299855E0,6.507154888E0
1.035093550E1,9.259081335E-1,-2.802868086E0,5.911402293E0,6.607424040E0
1.036091350E1,6.654859391E-1,-2.280562624E0,6.182790282E0,6.623498554E0
1.037089150E1,3.037598930E-1,-1.920152530E0,6.025622388E0,6.331459624E0
1.038086950E1,9.885050621E-2,-1.676522443E0,5.085422271E0,5.355559597E0
1.039084750E1,1.415798751E-1,-1.341624336E0,3.722438056E0,3.959361792E0
1.040082550E1,2.081874821E-1,-1.159778268E0,2.654948148E0,2.904681966E0
1.041080350E1,2.047987282E-1,-1.192080041E0,1.973841664E0,2.314961827E0
1.042078150E1,2.455540771E-1,-1.000208922E0,1.540736062E0,1.853262611E0
1.043075950E1,3.323559935E-1,-5.592054856E-1,1.526937218E0,1.659731469E0
1.044073850E1,2.534521671E-1,-2.852733725E-1,1.984467809E0,2.020824432E0
1.045071650E1,-4.797428481E-2,-1.868425137E-1,2.308132246E0,2.316179207E0
1.046069450E1,-3.213704275E-1,8.022379875E-4,2.221146727E0,2.244275468E0
1.047067250E1,-4.191168697E-1,2.429746145E-1,1.930574023E0,1.990430021E0
1.048065050E1,-3.928847985E-1,4.251832098E-1,1.736221345E0,1.830192281E0
1.049062850E1,-1.966484405E-1,5.057291901E-1,1.695483794E0,1.780196033E0
1.050060650E1,8.890117642E-2,6.583251464E-1,1.750969777E0,1.872749470E0
1.051058450E1,2.353058450E-1,8.179740143E-1,1.894307252E0,2.076740305E0
1.052056250E1,1.762074882E-1,8.334141719E-1,1.964475009E0,2.141212349E0
1.053054150E1,-8.453608375E-2,8.728869706E-1,1.819471078E0,2.019790340E0
1.054051950E1,-3.733214036E-1,9.508525747E-1,1.605423224E0,1.902859222E0
1.055049750E1,-5.197213579E-1,9.774135518E-1,1.555274579E0,1.909011932E0
1.056047550E1,-4.962813322E-1,9.336559135E-1,1.628753030E0,1.941866359E0
1.057045350E1,-3.678863071E-1,8.260829329E-1,1.687074328E0,1.914150761E0
1.058043150E1,-3.125738397E-1,7.087410092E-1,1.650042742E0,1.822815754E0
1.059040950E1,-2.214997648E-1,5.893016893E-1,1.489543104E0,1.617120059E0
1.060038750E1,-1.487949738E-1,4.947785246E-1,1.240071648E0,1.343399950E0
1.061036550E1,-1.474904965E-1,4.898592621E-1,1.009344612E0,1.131588303E0
1.062034350E1,-1.590616247E-1,4.687695247E-1,8.456980026E-1,9.799237620E-1
1.063032250E1,-1.976203208E-1,3.893298376E-1,7.656578064E-1,8.813985422E-1
1.064030050E1,-1.777333191E-1,3.109274465E-1,6.970114946E-1,7.836389688E-1
1.065027850E1,-6.850630749E-2,2.789940476E-1,6.087968910E-1,6.731749009E-1
1.066025650E1,4.208997589E-2,2.096612728E-1,4.879407907E-1,5.327434941E-1
1.067023450E1,1.703587377E-1,9.557332456E-2,3.333912796E-1,3.864014818E-1
1.068021250E1,2.490055058E-1,3.904595196E-2,1.627630949E-1,3.000335870E-1
1.069019050E1,2.669575908E-1,-3.708888888E-3,6.516546428E-2,2.748211216E-1
1.070016850E1,2.157186593E-1,-6.286107659E-2,1.109123254E-1,2.505745375E-1
1.071014650E1,1.150691110E-1,-8.824442446E-2,2.763581228E-1,3.120925997E-1
1.072012550E1,2.365750562E-2,-3.166676581E-2,4.957684582E-1,4.973417596E-1
1.073010350E1,6.501263268E-2,-5.996319652E-3,7.152635783E-1,7.182371368E-1
1.074008150E1,1.292323829E-1,-6.498478532E-2,8.998303556E-1,9.113828504E-1
1.075005950E1,2.052042692E-1,-1.330224019E-1,1.111776720E0,1.138354614E0
1.076003750E1,2.976935529E-1,-1.854309958E-1,1.308681707E0,1.354863062E0
1.077001550E1,3.747937325E-1,-2.164089596E-1,1.657513729E0,1.713083461E0
1.077999350E1,4.140891048E-1,-2.466729784E-1,2.201815832E0,2.253954370E0
1.078997150E1,4.778279581E-1,-2.099887168E-1,3.055061420E0,3.099324943E0
1.079994950E1,6.049668551E-1,-1.871155787E-1,4.238682294E0,4.285723361E0
1.080992850E1,7.482743997E-1,-2.987786865E-1,5.559681162E0,5.617760933E0
1.081990650E1,6.336997439E-1,-5.437138724E-1,6.689641553E0,6.741550582E0
1.082988450E1,3.961439634E-1,-1.001982967E0,7.277791341E0,7.357115380E0
1.083986250E1,-1.577663202E-1,-1.513023183E0,6.823973731E0,6.991476729E0
1.084984050E1,-6.901231822E-1,-1.635836931E0,5.599084378E0,5.873838468E0
1.085981850E1,-8.648219792E-1,-1.433299906E0,4.993117540E0,5.266259436E0
1.086979650E1,-8.706625436E-1,-1.337236585E0,5.473390292E0,5.701250410E0
1.087977450E1,-9.120036739E-1,-1.515077310E0,7.253632985E0,7.466083407E0
1.088975250E1,-9.656691999E-1,-2.005488549E0,9.361195793E0,9.622187278E0
1.089973150E1,-7.834970035E-1,-2.941597370E0,1.070214594E1,1.112667023E1
1.090970950E1,-4.130593370E-1,-4.202424880E0,1.062797752E1,1.143612256E1
1.091968750E1,-7.930687311E-2,-5.545825599E0,9.651192546E0,1.113139653E1
1.092966550E1,2.007461510E-2,-6.486757203E0,8.462792158E0,1.066289234E1
1.093964350E1,1.622308886E-1,-7.038202264E0,7.350213785E0,1.017783143E1
1.094962412E1,4.096926199E-1,-7.308879817E0,6.600479701E0,9.856668022E0
1.095960212E1,7.898633058E-1,-7.488233802E0,5.595166159E0,9.381013477E0
1.096958013E1,1.339569039E0,-7.463921079E0,3.988183483E0,8.567973540E0
1.097955812E1,1.599854774E0,-6.977762520E0,2.080079141E0,7.454893313E0
1.098953712E1,1.396530568E0,-6.277727430E0,4.751741262E-1,6.448716908E0
1.099951513E1,1.057525888E0,-5.961312371E0,-6.950020990E-1,6.094147530E0
1.100949312E1,8.295868038E-1,-5.988361006E0,-1.363915091E0,6.197495154E0
1.101947112E1,5.356481135E-1,-6.063367335E0,-1.805295088E0,6.349049747E0
1.102944912E1,4.197567744E-1,-5.906825677E0,-2.343781550E0,6.368680969E0
1.103942712E1,5.285842385E-1,-5.668978486E0,-3.022333969E0,6.446023658E0
1.104940512E1,5.929721693E-1,-5.650891879E0,-4.194676149E0,7.062542249E0
1.105938312E1,5.187057331E-1,-5.541220332E0,-5.804528055E0,8.041562308E0
1.106936113E1,2.661258609E-1,-5.130834087E0,-7.482203568E0,9.076323685E0
1.107934012E1,8.034154706E-2,-4.753634298E0,-8.568682310E0,9.799276011E0
1.108931812E1,1.825458334E-1,-4.324495447E0,-8.999640815E0,9.986396680E0
1.109929613E1,1.454980943E-1,-4.026486838E0,-8.875841226E0,9.747529093E0
1.110927412E1,-7.079845257E-2,-3.948207824E0,-8.287718335E0,9.180393927E0
1.111925212E1,-3.525835955E-1,-4.085077693E0,-7.206044251E0,8.290913623E0
1.112923012E1,-5.715303198E-1,-3.981528767E0,-6.230341594E0,7.415954059E0
1.113920812E1,-8.916653768E-1,-3.810806442E0,-5.597982763E0,6.830426333E0
1.114918612E1,-1.121995680E0,-3.620369645E0,-5.229788271E0,6.458841694E0
1.115916412E1,-1.180205296E0,-3.454293517E0,-5.084632312E0,6.259274239E0
1.116914312E1,-1.234216685E0,-3.320134417E0,-5.095545555E0,6.205736691E0
1.117912112E1,-1.292056319E0,-3.239610071E0,-5.243426317E0,6.297460003E0
1.118909912E1,-1.246003356E0,-3.100428797E0,-5.421516718E0,6.368518400E0
1.119907712E1,-1.126399583E0,-2.833555443E0,-5.625617289E0,6.398857894E0
1.120905512E1,-1.030282175E0,-2.704394542E0,-5.837599906E0,6.515581621E0
1.121903312E1,-1.002795146E0,-2.509584612E0,-5.824650078E0,6.421071683E0
1.122901112E1,-9.748236738E-1,-2.326991855E0,-5.395702431E0,5.956406384E0
1.123898913E1,-8.056454524E-1,-1.978969088E0,-4.760471447E0,5.217994983E0
1.124896712E1,-8.246292420E-1,-1.921845884E0,-3.901138907E0,4.426329152E0
1.125894612E1,-8.075845353E-1,-1.778366906E0,-3.167866489E0,3.721580273E0
1.126892413E1,-6.526238919E-1,-1.598285528E0,-2.853252373E0,3.334888856E0
1.127890212E1,-5.979727446E-1,-1.418197718E0,-2.755127909E0,3.155881171E0
1.128888012E1,-5.552089868E-1,-1.443396878E0,-2.749166672E0,3.154293734E0
1.129885812E1,-3.984532481E-1,-1.620630662E0,-2.877993697E0,3.326868866E0
1.130883612E1,-2.273427413E-1,-1.767906237E0,-3.119306533E0,3.592666201E0
1.131881412E1,-8.288091972E-2,-2.089680853E0,-3.314759656E0,3.919345212E0
1.132879212E1,9.956565723E-3,-2.542886260E0,-3.389312240E0,4.237193308E0
1.133877013E1,1.539182311E-1,-3.073020558E0,-3.580761775E0,4.721122861E0
1.134874912E1,3.547182678E-1,-3.686791091E0,-3.842633714E0,5.337048572E0
1.135872712E1,4.772658214E-1,-4.279035684E0,-3.825199071E0,5.759346923E0
1.136870513E1,4.802548815E-1,-4.887239667E0,-2.942497841E0,5.724862432E0
1.137868312E1,1.388718103E-1,-5.074914824E0,-1.355691129E0,5.254706870E0
1.138866112E1,-2.385203883E-1,-5.122618749E0,8.500097394E-2,5.128873169E0
1.139863912E1,-4.929941006E-1,-4.977410164E0,3.206624758E-1,5.012033475E0
1.140861712E1,-2.205076020E-1,-5.108593032E0,6.646436477E-1,5.156364761E0
1.141859512E1,5.123149091E-1,-5.689023326E0,1.884924371E0,6.015013953E0
1.142857312E1,9.818683992E-1,-6.262993031E0,3.610147250E0,7.295362255E0
1.143855212E1,1.042784253E0,-5.961251560E0,5.351228508E0,8.078339292E0
1.144853012E1,5.817677712E-1,-4.631433923E0,6.325245413E0,7.861129909E0
1.145850812E1,7.411094592E-2,-3.289274567E0,6.127203727E0,6.954670741E0
1.146848612E1,-2.209984575E-1,-2.527899261E0,5.561140627E0,6.112724439E0
1.147846412E1,-3.993078553E-1,-2.144984404E0,4.782980011E0,5.257119234E0
1.148844212E1,-2.887475505E-1,-1.797693123E0,3.740897132E0,4.160455151E0
1.149842012E1,7.147059915E-2,-1.536826029E0,2.546914406E0,2.975519330E0
1.150839813E1,6.066798335E-1,-1.402568695E0,1.916574619E0,2.451227781E0
1.151837612E1,7.831481440E-1,-1.232715851E0,2.593871056E0,2.976756027E0
1.152835512E1,4.855852398E-1,-9.888758487E-1,3.749656845E0,3.908144691E0
1.153833313E1,2.690212102E-2,-7.614443028E-1,4.310903009E0,4.377716974E0
1.154831112E1,-2.944218165E-1,-6.769023353E-1,3.946070666E0,4.014517989E0
1.155828912E1,-3.242537991E-1,-5.520274436E-1,2.857760577E0,2.928595284E0
1.156826712E1,-2.305906686E-1,-4.782227182E-1,1.826808164E0,1.902392466E0
1.157824512E1,-8.529077657E-2,-5.672436529E-1,1.116940396E0,1.255625632E0
1.158822312E1,1.376131606E-1,-5.813167316E-1,7.207254624E-1,9.361152261E-1
1.159820112E1,3.735433055E-1,-4.383610797E-1,8.917436564E-1,1.061556304E0
1.160817913E1,4.957205476E-1,-2.735017580E-1,1.519546337E0,1.621592780E0
1.161815812E1,5.152882548E-1,-2.345978934E-1,2.078210955E0,2.153954255E0
1.162813612E1,3.917092889E-1,-2.532458335E-1,2.066282635E0,2.118276079E0
1.163811413E1,1.209938297E-1,-1.714935726E-1,1.612562090E0,1.626162982E0
1.164809212E1,-2.275248455E-1,-9.330811322E-2,1.136741408E0,1.163036967E0
1.165807012E1,-4.362705174E-1,-1.001125181E-1,7.395032108E-1,8.644185788E-1
1.166804812E1,-3.641751524E-1,-1.079524648E-1,5.294074899E-1,6.515746823E-1
1.167802612E1,-1.770049205E-1,-7.124715328E-2,5.461357892E-1,5.785077346E-1
1.168800412E1,4.207755055E-2,-6.904976964E-3,6.462225795E-1,6.476278416E-1
1.169798212E1,1.656154946E-1,-6.629573107E-3,6.636952293E-1,6.840787971E-1
1.170796112E1,1.898600424E-1,-7.195232749E-2,5.432455105E-1,5.799479785E-1
1.171793912E1,1.947601919E-1,-1.356320143E-2,3.802976435E-1,4.274830879E-1
1.172791712E1,2.518288339E-1,4.264082015E-2,2.710956287E-1,3.724632076E-1
1.173789512E1,3.520132727E-1,3.831914306E-2,2.925888240E-1,4.593363918E-1
1.174787312E1,3.691134914E-1,-2.539913535E-2,3.688634133E-1,5.224462684E-1
1.175785112E1,3.311077957E-1,-2.540556729E-2,3.575402802E-1,4.879681006E-1
1.176782912E1,2.668782331E-1,-1.492150962E-2,3.290912372E-1,4.239666085E-1
1.177780713E1,3.164034005E-1,4.435697794E-2,3.766823101E-1,4.939313880E-1
1.178778512E1,3.494911493E-1,3.729646504E-2,4.543456131E-1,5.744258228E-1
1.179776412E1,3.438287422E-1,5.134615481E-2,3.658064890E-1,5.046474205E-1
1.180774213E1,3.881785939E-1,1.708164650E-1,1.661527258E-1,4.554861291E-1
1.181772012E1,3.546341775E-1,1.897643673E-1,1.335919207E-1,4.238192023E-1
1.182769812E1,2.497676538E-1,1.601751173E-1,2.883449149E-1,4.137423583E-1
1.183767612E1,1.779659652E-1,2.083140743E-1,4.920297486E-1,5.631695231E-1
1.184765412E1,1.456007404E-1,3.043388039E-1,8.059240723E-1,8.736906165E-1
1.185763212E1,6.790995545E-2,3.733815569E-1,1.178695180E0,1.238284247E0
1.186761012E1,-2.068046886E-2,4.704383200E-1,1.504058232E0,1.576049194E0
1.187758813E1,-9.932317137E-2,5.353926998E-1,1.724385411E0,1.808318413E0
1.188756712E1,-2.629699724E-1,4.753517354E-1,1.899448709E0,1.975605699E0
1.189754512E1,-4.209817295E-1,4.073316604E-1,2.115905616E0,2.195495678E0
1.190752313E1,-4.491386310E-1,3.938707852E-1,2.479238732E0,2.550193012E0
1.191750112E1,-4.533265165E-1,3.016192639E-1,3.084389884E0,3.132082386E0
1.192747912E1,-3.238242115E-1,1.886405325E-1,3.705092876E0,3.723997931E0
1.193745712E1,-9.747765306E-2,9.609197259E-2,4.473234580E0,4.475328274E0
1.194743233E1,1.502880420E-1,1.494139016E-2,5.400348043E0,5.402459508E0
1.195741033E1,2.775911544E-1,-1.017415524E-1,6.460775101E0,6.467536091E0
1.196738833E1,3.352338834E-1,-1.732383817E-1,7.528067958E0,7.537519518E0
1.197736733E1,2.988933650E-1,-2.570377529E-1,8.791272946E0,8.800107139E0
1.198734533E1,8.649999904E-2,-5.766687799E-1,1.026800539E1,1.028454976E1
1.199732333E1,-4.415008152E-1,-1.768989142E0,1.121373638E1,1.136099156E1
1.200730133E1,-1.334467928E0,-3.654090537E0,1.076306224E1,1.144450484E1
1.201727933E1,-1.190584323E0,-3.745391302E0,9.475839227E0,1.025850750E1
1.202725733E1,-6.124294737E-1,-3.379397702E0,9.264605638E0,9.880704242E0
1.203723533E1,-3.541906296E-1,-3.962686114E0,1.000237339E1,1.076456250E1
1.204721333E1,-7.274348500E-1,-5.043860262E0,1.098735792E1,1.211163581E1
1.205719133E1,-1.395381005E0,-6.302637738E0,1.162990962E1,1.330132055E1
1.206717033E1,-1.712495244E0,-7.650286460E0,1.127416853E1,1.373194811E1
1.207714833E1,-1.603266771E0,-8.761252171E0,1.013663833E1,1.349375561E1
1.208712633E1,-9.813107210E-1,-9.588991036E0,8.432725775E0,1.280713019E1
1.209710433E1,5.529114696E-1,-1.002381630E1,6.363254068E0,1.188585743E1
1.210708233E1,1.651920429E0,-9.560696944E0,4.323820678E0,1.062220280E1
1.211706033E1,1.810974781E0,-8.866445920E0,2.444102083E0,9.373746738E0
1.212703833E1,1.971819697E0,-8.360105696E0,1.036483001E0,8.651805429E0
1.213701633E1,2.034794502E0,-8.229830900E0,-3.646659896E-1,8.485486822E0
1.214699533E1,1.802612093E0,-8.261887676E0,-1.379327475E0,8.568006921E0
1.215697333E1,1.380310538E0,-8.714851592E0,-2.055879854E0,9.059830982E0
1.216695133E1,1.320919491E0,-8.696891869E0,-3.000220969E0,9.294196164E0
1.217692933E1,1.428064017E0,-7.922379624E0,-4.121201792E0,9.043659102E0
1.218690733E1,1.342959986E0,-7.701289968E0,-5.240934818E0,9.411737696E0
1.219688533E1,1.122801499E0,-7.571429155E0,-6.259902778E0,9.888053673E0
1.220686333E1,8.422861522E-1,-6.985798933E0,-7.209098836E0,1.007382443E1
1.221684133E1,6.087280400E-1,-6.568913507E0,-8.048203518E0,1.040647656E1
1.222681933E1,3.277467065E-1,-6.366847183E0,-8.640441679E0,1.073784864E1
1.223679733E1,1.720250845E-3,-6.149202706E0,-9.003642064E0,1.090313108E1
1.224677633E1,-2.576617970E-1,-5.837205804E0,-8.980780036E0,1.071418552E1
1.225675433E1,-4.704734764E-1,-5.591499955E0,-8.572540303E0,1.024571444E1
1.226673233E1,-7.587659126E-1,-5.529913571E0,-7.765036898E0,9.563026082E0
1.227671033E1,-1.040959337E0,-5.430040789E0,-6.763744487E0,8.735970398E0
1.228668833E1,-1.373665177E0,-5.258737251E0,-6.043280979E0,8.127885241E0
1.229666633E1,-1.692779603E0,-4.996801870E0,-5.786822101E0,7.830762526E0
1.230664433E1,-1.794071358E0,-4.735164698E0,-5.697692993E0,7.622609933E0
1.231662233E1,-1.765435204E0,-4.413494162E0,-5.587530865E0,7.335952109E0
1.232660133E1,-1.657621757E0,-4.093329284E0,-5.325444041E0,6.918338584E0
1.233657933E1,-1.464673580E0,-3.780182819E0,-4.946832150E0,6.395795429E0
1.234655733E1,-1.290406381E0,-3.382127182E0,-4.587008532E0,5.843336391E0
1.235653533E1,-1.120299695E0,-3.025164607E0,-4.361343430E0,5.424758872E0
1.236651333E1,-8.896764464E-1,-2.675018131E0,-4.224742532E0,5.078946312E0
1.237649133E1,-6.512169787E-1,-2.348095626E0,-4.129457476E0,4.794794642E0
1.238646933E1,-4.268365100E-1,-2.066999504E0,-4.088395988E0,4.601049675E0
1.239644733E1,-2.563526785E-1,-1.755866820E0,-3.840655308E0,4.230770401E0
1.240642533E1,-1.263120642E-1,-1.530015192E0,-3.265495110E0,3.608373531E0
1.241640433E1,-1.009236000E-1,-1.340350812E0,-2.579430773E0,2.908640401E0
1.242638233E1,-6.947968617E-2,-1.289501671E0,-1.963643535E0,2.350220824E0
1.243636033E1,9.563391633E-2,-1.365051205E0,-1.722456999E0,2.199856530E0
1.244633833E1,3.488251149E-1,-1.491146411E0,-1.937420527E0,2.469573825E0
1.245631633E1,5.115553923E-1,-1.652654108E0,-2.118692399E0,2.735290113E0
1.246629433E1,5.397385698E-1,-1.891504097E0,-1.747617276E0,2.631211055E0
1.247627233E1,4.467621033E-1,-2.197663724E0,-7.702206811E-1,2.371194239E0
1.248625033E1,2.964354149E-1,-2.395434099E0,3.968382472E-1,2.446111010E0
1.249622833E1,1.721043874E-1,-2.425185317E0,1.327668494E0,2.770171000E0
1.250620733E1,1.701949425E-1,-2.437165092E0,1.728143124E0,2.992527137E0
1.251618533E1,2.303797851E-1,-2.573043274E0,1.619874033E0,3.049199636E0
1.252616333E1,4.836978683E-1,-2.714638279E0,9.202090716E-1,2.906889979E0
1.253614133E1,7.569768839E-1,-2.683648621E0,-8.326347381E-2,2.789608705E0
1.254611933E1,8.616239177E-1,-2.819485288E0,-8.941443770E-1,3.080809509E0
1.255609733E1,9.199587377E-1,-3.123143476E0,-1.282419523E0,3.499278366E0
1.256607533E1,7.458335526E-1,-3.256600910E0,-1.139565028E0,3.529918644E0
1.257605333E1,2.944180158E-1,-3.285862132E0,-5.233930439E-1,3.340286244E0
1.258603133E1,-3.601212412E-1,-3.290370335E0,2.032036809E-1,3.316250290E0
1.259601033E1,-5.212616972E-1,-3.203415806E0,8.645318842E-1,3.358720287E0
1.260598833E1,-2.025710122E-1,-3.392219476E0,1.480978687E0,3.706951020E0
1.261596633E1,4.123293852E-1,-3.467003610E0,1.837993741E0,3.945674917E0
1.262594433E1,9.649126433E-1,-3.329135621E0,1.981910529E0,3.992764673E0
1.263592233E1,1.207519322E0,-3.281940989E0,2.170986095E0,4.116117125E0
1.264590033E1,8.364008566E-1,-3.240761388E0,2.372457465E0,4.102518152E0
1.265587833E1,1.610878676E-1,-2.874310536E0,2.338479587E0,3.708921290E0
1.266585633E1,-5.073261378E-1,-2.314619147E0,2.280895038E0,3.288970018E0
1.267583433E1,-8.804192077E-1,-1.959003770E0,2.433638052E0,3.245832392E0
1.268581333E1,-8.024968730E-1,-1.826588894E0,2.841681318E0,3.472114764E0
1.269579133E1,-4.698834193E-1,-1.715367250E0,3.279654728E0,3.730872601E0
1.270576933E1,-2.629764409E-1,-1.432452060E0,3.883489671E0,4.147597804E0
1.271574733E1,-3.519803090E-1,-1.026731308E0,4.520343842E0,4.648825203E0
1.272572533E1,-3.033824552E-1,-8.721578228E-1,4.843621193E0,4.930858590E0
1.273570333E1,-6.285369448E-2,-7.343097138E-1,4.716224397E0,4.773461417E0
1.274568133E1,1.883511684E-1,-4.986452883E-1,4.064758619E0,4.099559235E0
1.275565933E1,2.958243808E-1,-5.968141919E-1,3.264505761E0,3.331770867E0
1.276563833E1,1.491592371E-1,-7.323801327E-1,2.430282335E0,2.542617030E0
1.277561633E1,5.752081454E-2,-6.581029522E-1,1.841421525E0,1.956333656E0
1.278559433E1,7.175039755E-2,-4.690496063E-1,1.730356588E0,1.794237881E0
1.279557233E1,1.064832971E-1,-3.747293401E-1,1.955304236E0,1.993734041E0
1.280555033E1,1.439473579E-1,-3.903636253E-1,2.142492905E0,2.182516999E0
1.281552833E1,1.182995515E-1,-3.157595855E-1,2.130981492E0,2.157494153E0
1.282550633E1,6.719017234E-2,-1.444285655E-1,2.027636633E0,2.033884079E0
1.283548433E1,1.243985628E-1,-2.340348065E-2,1.872519942E0,1.876793451E0
1.284546233E1,1.553842377E-1,3.555457950E-2,1.734357253E0,1.741666865E0
1.285544133E1,1.559548163E-1,9.364666700E-2,1.561337557E0,1.571899033E0
1.286541933E1,2.406060353E-1,1.170536560E-1,1.375671503E0,1.401451000E0
1.287539733E1,3.116207801E-1,1.214092469E-1,1.315331746E0,1.357182861E0
1.288537533E1,2.105825930E-1,6.791073203E-2,1.235050060E0,1.254713332E0
1.289535333E1,1.965365760E-1,7.336793840E-2,1.080463711E0,1.100641318E0
1.290533133E1,2.694965614E-1,2.553777283E-1,9.727656001E-1,1.041210398E0
1.291530933E1,2.210707619E-1,4.170725369E-1,9.989523554E-1,1.104865418E0
1.292528733E1,1.344839866E-1,5.287566948E-1,1.135418767E0,1.259700505E0
1.293526533E1,1.391052969E-1,6.500905126E-1,1.304615554E0,1.464236901E0
1.294524383E1,1.342666163E-1,7.210809731E-1,1.434119686E0,1.610802461E0
1.295522183E1,4.872349586E-2,7.023394775E-1,1.519670883E0,1.674829637E0
1.296519983E1,-6.190074451E-2,5.997758067E-1,1.494404479E0,1.611461283E0
1.297517783E1,-1.196530722E-1,5.416310942E-1,1.403891920E0,1.509501117E0
1.298515583E1,-1.022570940E-1,5.247419965E-1,1.277956928E0,1.385274192E0
1.299513383E1,3.241791375E-2,5.523420238E-1,1.203884400E0,1.324941614E0
1.300511183E1,1.420577023E-1,6.178665072E-1,1.223792415E0,1.378262416E0
1.301508983E1,1.513169144E-1,6.341638666E-1,1.419571813E0,1.562128276E0
1.302506783E1,1.312198881E-1,6.227939558E-1,1.725997488E0,1.839608192E0
1.303504683E1,1.096848852E-1,5.698772389E-1,2.234554392E0,2.308684511E0
1.304502483E1,1.602970317E-2,5.243093026E-1,2.998807697E0,3.044339797E0
1.305500283E1,-1.288771280E-1,3.934825301E-1,3.680971942E0,3.704185775E0
1.306498083E1,-4.056633767E-1,2.613880813E-2,3.917543271E0,3.938577318E0
1.307495883E1,-6.715940867E-1,-1.639144117E-1,3.681577713E0,3.745920583E0
1.308493683E1,-7.951475076E-1,-1.812888283E-1,3.525142475E0,3.618252986E0
1.309491483E1,-8.214360045E-1,-2.432038254E-1,3.807179414E0,3.902373675E0
1.310489283E1,-8.050557607E-1,-1.653990197E-1,4.526938332E0,4.600939282E0
1.311487183E1,-6.487920653E-1,-1.112023473E-1,5.318626773E0,5.359205898E0
1.312484983E1,-3.740319134E-1,-1.791516709E-1,5.848587994E0,5.863273550E0
1.313482783E1,-2.585096798E-1,-3.647610068E-1,6.220068036E0,6.236114513E0
1.314480583E1,-9.768987045E-2,-7.570547980E-1,6.621769997E0,6.665621740E0
1.315478383E1,-4.295015156E-2,-1.258535401E0,7.375100119E0,7.481835192E0
1.316476183E1,-2.028970698E-3,-1.851112116E0,7.966037275E0,8.178286498E0
1.317473983E1,2.624290867E-1,-2.446728213E0,8.392594580E0,8.745912860E0
1.318471783E1,1.792964626E-1,-3.036162634E0,8.961211159E0,9.463283585E0
1.319469583E1,-8.904061424E-2,-3.955594611E0,8.901473665E0,9.741195531E0
1.320467483E1,-1.262766337E-1,-4.827300444E0,7.963037653E0,9.312826855E0
1.321465283E1,-2.890554247E-1,-5.547746994E0,6.998507856E0,8.935332225E0
1.322463083E1,-4.596040872E-1,-6.177692680E0,6.389513329E0,8.899494556E0
1.323460883E1,-3.487998988E-1,-6.790456322E0,5.827671919E0,8.955094551E0
1.324458683E1,2.464184783E-1,-7.346964487E0,4.725987493E0,8.739197161E0
1.325456483E1,9.023349374E-1,-7.408934448E0,3.151684320E0,8.101828932E0
1.326454283E1,6.629083402E-1,-6.973615674E0,1.816132318E0,7.236649752E0
1.327452083E1,4.694546722E-3,-6.626827839E0,9.003166978E-1,6.687708083E0
1.328449883E1,-9.712214235E-2,-6.491675296E0,1.445889254E-1,6.494011612E0
1.329447783E1,7.223973641E-2,-6.134689332E0,-4.501908740E-1,6.151609839E0
1.330445583E1,1.693636147E-1,-6.265300342E0,-9.220708251E-1,6.335052251E0
1.331443383E1,3.601886304E-1,-6.302923082E0,-1.277337708E0,6.441130867E0
1.332441183E1,6.073487184E-1,-6.479078055E0,-1.629855815E0,6.708483799E0
1.333438983E1,8.887306593E-1,-6.542537887E0,-2.310778695E0,6.995308596E0
1.334436783E1,1.224020384E0,-6.562165235E0,-3.559292554E0,7.564972039E0
1.335434583E1,9.804434328E-1,-6.208627959E0,-5.014257563E0,8.040591357E0
1.336432383E1,3.941318269E-1,-5.635703736E0,-6.483823071E0,8.599794073E0
1.337430183E1,2.613096921E-2,-5.057431065E0,-7.836248968E0,9.326579742E0
1.338428083E1,-2.532614748E-1,-4.683427949E0,-8.396235057E0,9.617452982E0
1.339425883E1,-3.749405707E-1,-4.626851460E0,-8.140277869E0,9.370830201E0
1.340423683E1,-4.281782633E-1,-4.600403919E0,-7.540838862E0,8.843715485E0
1.341421483E1,-5.273361503E-1,-4.292182564E0,-7.060072605E0,8.279223379E0
1.342419283E1,-7.150041812E-1,-3.991874830E0,-6.689294229E0,7.822592468E0
1.343417083E1,-8.781268799E-1,-3.682102793E0,-6.324340264E0,7.370635493E0
1.344414883E1,-9.296318597E-1,-3.268993499E0,-5.973823074E0,6.872924851E0
1.345412683E1,-7.563819297E-1,-2.985923942E0,-5.839141817E0,6.601774956E0
1.346410583E1,-4.506465183E-1,-2.757345757E0,-5.994495905E0,6.613623747E0
1.347408383E1,-1.113768867E-1,-2.524238904E0,-6.203667181E0,6.698482914E0
1.348406183E1,1.698085512E-1,-2.321694862E0,-6.315870572E0,6.731220027E0
1.349403983E1,2.081768474E-1,-2.034387828E0,-6.350532281E0,6.671681324E0
1.350401783E1,2.021628400E-1,-1.662680329E0,-6.342243853E0,6.559682369E0
1.351399583E1,1.600032457E-1,-1.325925146E0,-6.140442408E0,6.284004416E0
1.352397383E1,1.139895323E-1,-1.046356902E0,-5.644881526E0,5.742172395E0
1.353395183E1,7.627437003E-3,-8.156930155E-1,-4.887874090E0,4.955474386E0
1.354392983E1,-1.477809935E-1,-6.140365809E-1,-3.999746937E0,4.049303113E0
1.355390883E1,-3.085609687E-1,-4.830256212E-1,-3.126974571E0,3.179071184E0
1.356388683E1,-4.212633826E-1,-4.897534275E-1,-2.434549633E0,2.518799947E0
1.357386483E1,-4.514357463E-1,-5.506276202E-1,-2.012342071E0,2.134597297E0
1.358384283E1,-3.850064063E-1,-6.799417180E-1,-1.883578196E0,2.039219825E0
1.359382083E1,-1.616720410E-1,-8.615673459E-1,-1.987239389E0,2.171993677E0
1.360379883E1,7.145195201E-2,-1.186284281E0,-2.132047439E0,2.440901895E0
1.361377683E1,1.605952762E-1,-1.492322870E0,-2.001013968E0,2.501374680E0
1.362375483E1,1.042548684E-1,-1.714774343E0,-1.496614142E0,2.278414803E0
1.363373283E1,-2.350162251E-2,-1.937208858E0,-6.910020187E-1,2.056894328E0
1.364371183E1,-6.176605755E-2,-2.169749116E0,1.184806690E-1,2.173859228E0
1.365368983E1,6.917190336E-2,-2.317083163E0,5.862707850E-1,2.391102794E0
1.366366783E1,1.926089647E-1,-2.434858366E0,6.949892351E-1,2.539417947E0
1.367364583E1,3.590585829E-1,-2.599259266E0,5.198291659E-1,2.674938160E0
1.368362383E1,6.007297434E-1,-2.833798687E0,1.138767175E-1,2.899010026E0
1.369360183E1,7.349523228E-1,-3.054386652E0,-3.670380588E-1,3.162933713E0
1.370357983E1,6.572381490E-1,-3.349410841E0,-5.795690719E-1,3.462140274E0
1.371355783E1,4.143060730E-1,-3.541339847E0,-3.655924809E-1,3.584186839E0
1.372353583E1,-4.126969376E-2,-3.645410346E0,3.874832503E-1,3.666178262E0
1.373351483E1,-3.872606541E-1,-3.673842432E0,1.424692805E0,3.959398770E0
1.374349283E1,-3.855965000E-1,-3.506835428E0,2.066062780E0,4.088422042E0
1.375347083E1,-2.582793543E-1,-3.430054470E0,2.356481849E0,4.169530980E0
1.376344883E1,-8.184172332E-2,-3.333175462E0,2.046645346E0,3.912226208E0
1.377342683E1,4.534908964E-1,-2.972921489E0,9.612784526E-1,3.157209596E0
1.378340483E1,1.067931374E0,-2.905338201E0,-1.824278659E-1,3.100765616E0
1.379338283E1,1.256971710E0,-3.226703512E0,-2.454608506E-1,3.471576654E0
1.380336083E1,8.194049741E-1,-3.233760517E0,4.587061742E-1,3.367349543E0
1.381333883E1,-3.360753663E-2,-2.912793401E0,1.604103507E0,3.325453792E0
1.382331783E1,-9.482374075E-1,-2.584193915E0,2.970489924E0,4.049817620E0
1.383329583E1,-1.367521361E0,-2.292686241E0,4.270599906E0,5.036322907E0
1.384327383E1,-1.189704317E0,-2.009044826E0,5.145543342E0,5.650510929E0
1.385325183E1,-4.232412764E-1,-1.820861546E0,5.338694417E0,5.656529680E0
1.386322983E1,4.969351970E-1,-1.492840349E0,4.537128859E0,4.802192747E0
1.387320783E1,8.655769278E-1,-1.067539026E0,3.231323982E0,3.511455206E0
1.388318583E1,6.837689399E-1,-7.998973471E-1,2.438574856E0,2.655941087E0
1.389316383E1,2.008863562E-1,-6.897170931E-1,2.171833649E0,2.287559047E0
1.390314283E1,-1.610366314E-1,-6.666638607E-1,2.154697214E0,2.261215068E0
1.391312083E1,-4.011187745E-1,-6.281277859E-1,2.127650333E0,2.254403852E0
1.392309883E1,-4.209866266E-1,-4.891365463E-1,1.956488298E0,2.060177361E0
1.393307683E1,-3.703525530E-1,-2.825696200E-1,1.691349227E0,1.754328593E0
1.394305483E1,-2.666096449E-1,-4.146845341E-2,1.446299436E0,1.471251982E0
1.395303633E1,-2.065045072E-1,1.287176818E-1,1.431453356E0,1.451988658E0
1.396301433E1,-2.508587077E-1,1.945316023E-1,1.592692666E0,1.624020494E0
1.397299233E1,-3.120544242E-1,2.151523930E-1,1.604801665E0,1.648956306E0
1.398297133E1,-2.749660470E-1,3.417756021E-1,1.385089613E0,1.452890266E0
1.399294933E1,-1.771042684E-1,5.073102772E-1,1.107098948E0,1.230608678E0
1.400292733E1,-1.102466930E-1,5.708344281E-1,8.935042530E-1,1.066000060E0
1.401290533E1,-6.745548975E-2,6.077402991E-1,6.752955204E-1,9.110008530E-1
1.402288333E1,6.164397866E-2,6.797423279E-1,5.189725488E-1,8.574276173E-1
1.403286133E1,1.589223513E-1,7.369228345E-1,6.170765483E-1,9.742150914E-1
1.404283933E1,2.034594235E-1,7.556076121E-1,8.598424172E-1,1.162612396E0
1.405281733E1,1.729211337E-1,8.362687826E-1,1.090915024E0,1.385403474E0
1.406279533E1,7.411484711E-2,9.023955292E-1,1.269846840E0,1.559590234E0
1.407277433E1,-1.003708554E-1,8.501781392E-1,1.381649696E0,1.625371668E0
1.408275233E1,-2.300462745E-1,8.602575696E-1,1.384308425E0,1.645987300E0
1.409273033E1,-2.702362342E-1,8.170910847E-1,1.307325153E0,1.565172361E0
1.410270833E1,-2.432918990E-1,7.155144238E-1,1.234437856E0,1.447407565E0
1.411268633E1,-2.523798609E-1,6.826372844E-1,1.129661014E0,1.343809236E0
1.412266433E1,-2.503092887E-1,6.241282904E-1,1.074182047E0,1.267303410E0
1.413264233E1,-2.566283747E-1,5.237965018E-1,1.015518687E0,1.171110200E0
1.414262033E1,-2.120440131E-1,4.626720482E-1,9.672610313E-1,1.092987644E0
1.415259833E1,-1.662204804E-1,3.869073361E-1,1.085900452E0,1.164691516E0
1.416257733E1,-1.914583057E-1,3.233247131E-1,1.322996276E0,1.375323344E0
1.417255533E1,-1.238413232E-1,3.022221118E-1,1.595954828E0,1.629032440E0
1.418253333E1,-4.595421799E-2,2.695291597E-1,1.910823298E0,1.930285842E0
1.419251133E1,-5.415406086E-2,1.190516496E-1,2.362131867E0,2.365749969E0
1.420248933E1,-5.446725234E-2,-2.988628864E-2,2.841717571E0,2.842396634E0
1.421246733E1,8.353580788E-2,-1.678145045E-1,3.359502550E0,3.364728418E0
1.422244533E1,1.606465490E-1,-3.024016213E-1,4.092774968E0,4.107074506E0
1.423242333E1,9.920291059E-2,-2.387032235E-1,5.298363247E0,5.304665262E0
1.424240233E1,-9.794510141E-2,1.557873666E-2,7.274046784E0,7.274722851E0
1.425238033E1,-5.597557086E-1,2.855891222E-1,1.032436670E1,1.034347308E1
1.426235833E1,-1.341908803E0,2.246126032E-1,1.424989493E1,1.431470137E1
1.427233633E1,-2.193971792E0,-7.149694633E-1,1.862499335E1,1.876739382E1
1.428231433E1,-2.167958114E0,-3.021168619E0,2.237472620E1,2.268161976E1
1.429229233E1,-1.242364342E0,-6.253149244E0,2.389352878E1,2.472945737E1
1.430227033E1,-7.659172766E-2,-9.073565408E0,2.188693744E1,2.369332155E1
1.431224833E1,4.456785046E-1,-1.110207445E1,1.772459698E1,2.091927399E1
1.432222633E1,5.200630546E-1,-1.235860016E1,1.316980778E1,1.806790802E1
1.433220533E1,6.903241803E-1,-1.246047386E1,8.675732549E0,1.519895692E1
1.434218333E1,8.871147812E-1,-1.166557880E1,4.712103864E0,1.261255820E1
1.435216133E1,9.554517022E-1,-1.077719964E1,1.677750943E0,1.094877930E1
1.436213933E1,1.214294710E0,-1.017053932E1,-6.983540154E-1,1.026655151E1
1.437211733E1,1.743319865E0,-9.713476503E0,-2.494349692E0,1.017902600E1
1.438209533E1,2.123682266E0,-9.938322995E0,-3.773615811E0,1.084068571E1
1.439207333E1,2.591023462E0,-1.014666280E1,-5.481632527E0,1.182017190E1
1.440205133E1,2.417156944E0,-9.693774894E0,-7.298402776E0,1.237249379E1
1.441203033E1,2.083841385E0,-9.114812252E0,-8.853432357E0,1.287654697E1
1.442200833E1,1.696535269E0,-8.683064958E0,-1.025489476E1,1.354388111E1
1.443198633E1,1.124660183E0,-8.234044989E0,-1.148860581E1,1.417929550E1
1.444196433E1,5.540207595E-1,-7.547367863E0,-1.206257434E1,1.423992277E1
1.445194233E1,1.045426610E-1,-7.009145111E0,-1.143322098E1,1.341109937E1
1.446192033E1,-3.915197660E-1,-6.597941424E0,-9.885634904E0,1.189167340E1
1.447189833E1,-9.170838811E-1,-6.261262840E0,-7.746810542E0,1.000287602E1
1.448187633E1,-1.390972205E0,-6.001292124E0,-5.768496927E0,8.439541909E0
1.449185433E1,-1.866839226E0,-5.747335269E0,-4.360747599E0,7.452051463E0
1.450183333E1,-2.067114840E0,-5.603432368E0,-3.542623896E0,6.944177571E0
1.451181133E1,-2.083242923E0,-5.442464368E0,-3.422198151E0,6.758088462E0
1.452178933E1,-1.931581790E0,-5.215456746E0,-3.874982557E0,6.778457575E0
1.453176733E1,-1.633637355E0,-4.987449834E0,-4.460327436E0,6.887521157E0
1.454174533E1,-1.339514368E0,-4.672784262E0,-4.806358641E0,6.835956034E0
1.455172333E1,-1.115671697E0,-4.428742531E0,-4.929156017E0,6.719751691E0
1.456170133E1,-8.819220883E-1,-4.158481300E0,-5.020314694E0,6.578321436E0
1.457167933E1,-7.206696215E-1,-3.800611237E0,-5.094859677E0,6.396999735E0
1.458165733E1,-6.573879839E-1,-3.360101890E0,-4.864802731E0,5.948844366E0
1.459163633E1,-6.153622909E-1,-2.921289405E0,-4.137802037E0,5.102353206E0
1.460161433E1,-6.455830403E-1,-2.619110563E0,-3.184907030E0,4.173745367E0
1.461159233E1,-7.580277747E-1,-2.315015003E0,-2.595254508E0,3.559388505E0
1.462157033E1,-7.703743167E-1,-2.059932559E0,-2.504481747E0,3.333050788E0
1.463154833E1,-6.802223843E-1,-1.966963000E0,-2.760796199E0,3.457403880E0
1.464152633E1,-5.141912806E-1,-2.062920486E0,-3.176995162E0,3.822738791E0
1.465150433E1,-3.148285626E-1,-2.190633032E0,-3.499020039E0,4.140184940E0
1.466148233E1,-1.168073420E-1,-2.315486873E0,-3.691494007E0,4.359157191E0
1.467146133E1,1.344717805E-1,-2.447909936E0,-3.615328760E0,4.368174419E0
1.468143933E1,1.715465630E-1,-2.435719661E0,-3.026324109E0,3.888546786E0
1.469141733E1,3.862254046E-2,-2.498069106E0,-1.947526270E0,3.167759386E0
1.470139533E1,-5.998081125E-2,-2.588754158E0,-7.491493624E-1,2.695639174E0
1.471137333E1,-1.630048773E-1,-2.547588006E0,2.401533329E-1,2.564068810E0
1.472135133E1,-2.680298605E-1,-2.617466910E0,8.752971929E-1,2.772925929E0
1.473132933E1,-2.164112985E-1,-2.798966238E0,1.001281886E0,2.980538755E0
1.474130733E1,-1.313657396E-2,-2.923292661E0,5.956128815E-1,2.983381849E0
1.475128633E1,2.611919072E-1,-3.048872142E0,-9.814186022E-2,3.061613035E0
1.476126433E1,4.627284738E-1,-3.325274119E0,-7.176999669E-1,3.433170379E0
1.477124233E1,6.140802889E-1,-3.721225344E0,-9.837988575E-1,3.897752282E0
1.478122033E1,6.051273246E-1,-4.025206298E0,-5.271791160E-1,4.104434509E0
1.479119833E1,5.957392544E-1,-4.344309322E0,3.273014045E-1,4.397164422E0
1.480117633E1,6.487318390E-1,-4.595149611E0,1.286630103E0,4.815773039E0
1.481115433E1,7.964724867E-1,-4.617960184E0,2.210252194E0,5.181229530E0
1.482113233E1,9.216894405E-1,-4.447681078E0,2.819040899E0,5.345874109E0
1.483111033E1,1.014195462E0,-4.222377918E0,2.896598368E0,5.219899407E0
1.484108933E1,1.397418760E0,-4.110663940E0,2.442910274E0,4.981781591E0
1.485106733E1,1.882187582E0,-3.884625785E0,2.056462821E0,4.781421015E0
1.486104533E1,1.853379666E0,-3.500843201E0,2.267643201E0,4.564331823E0
1.487102333E1,1.453828019E0,-3.156465588E0,3.301081849E0,4.793123438E0
1.488100133E1,9.476977826E-1,-2.736992185E0,4.712730685E0,5.531644224E0
1.489097933E1,6.334920216E-1,-2.256898357E0,5.834247698E0,6.287555052E0
1.490095733E1,7.574585482E-1,-1.867683710E0,6.081937507E0,6.407179546E0
1.491093533E1,1.417530843E0,-1.584372078E0,5.257046236E0,5.670640502E0
1.492091333E1,2.082939160E0,-1.284696429E0,3.771267570E0,4.495724585E0
1.493089233E1,2.358008264E0,-1.055828222E0,2.851192399E0,3.847632299E0
1.494087033E1,2.048250407E0,-9.117276853E-1,3.173789134E0,3.885809384E0
1.495084512E1,1.286772190E0,-7.556128746E-1,3.786284389E0,4.069727627E0
1.496082312E1,5.227240493E-1,-5.785621083E-1,3.768183163E0,3.848009732E0
1.497080112E1,9.588198446E-2,-4.166170388E-1,3.011135967E0,3.041332426E0
1.498077913E1,-3.996864259E-3,-2.376513094E-1,2.037148883E0,2.050967989E0
1.499075712E1,3.400696769E-2,-1.125589013E-1,1.273153440E0,1.278571728E0
1.500073512E1,1.867026921E-1,-8.212999105E-3,8.870237839E-1,9.064968515E-1
1.501071413E1,2.384878632E-1,1.057486492E-1,8.671660548E-1,9.055585041E-1
1.502069212E1,1.617766331E-1,1.702586406E-1,1.124342387E0,1.148610241E0
1.503067012E1,-9.065267332E-3,1.819437164E-1,1.395777154E0,1.407614847E0
1.504064812E1,-2.163672617E-1,3.757508487E-1,1.444911307E0,1.508566266E0
1.505062612E1,-3.065690416E-1,5.557053423E-1,1.341675791E0,1.484212563E0
1.506060412E1,-2.936219539E-1,5.941560477E-1,1.103853158E0,1.287527497E0
1.507058212E1,-1.291086412E-1,5.912622607E-1,8.175799119E-1,1.017200577E0
1.508056013E1,7.770960566E-2,6.295936829E-1,5.887701774E-1,8.654925246E-1
1.509053912E1,2.305778595E-1,6.165128767E-1,4.799663579E-1,8.146299658E-1
1.510051712E1,3.050144131E-1,5.515152276E-1,4.862094301E-1,7.959914876E-1
1.511049513E1,2.435043722E-1,5.671331406E-1,5.626611900E-1,8.351778213E-1
1.512047312E1,1.416445234E-1,5.912336093E-1,7.399323964E-1,9.576639823E-1
1.513045112E1,8.367230382E-2,5.429385316E-1,9.544971442E-1,1.101293831E0
1.514042912E1,6.804993231E-2,4.456771159E-1,1.104618559E0,1.193080486E0
1.515040712E1,1.121031474E-1,3.469655907E-1,1.213203108E0,1.266812542E0
1.516038512E1,1.243719763E-1,2.767984182E-1,1.237756736E0,1.274412606E0
1.517036312E1,-1.560939800E-2,1.984767187E-1,1.199841635E0,1.216246937E0
1.518034212E1,-1.955099511E-1,4.315537512E-2,1.107393063E0,1.125347023E0
1.519032012E1,-2.676502300E-1,2.175982833E-2,1.075989422E0,1.108992052E0
1.520029812E1,-2.646346747E-1,4.157955050E-2,1.185593725E0,1.215480502E0
1.521027612E1,-2.413189571E-1,4.574686110E-2,1.435421276E0,1.456283576E0
1.522025412E1,-1.958876812E-1,6.313531101E-2,1.778440581E0,1.790309736E0
1.523023212E1,-1.730741663E-1,1.449624163E-1,2.389241313E0,2.399883918E0
1.524021012E1,-3.761505789E-1,2.618365628E-1,3.403926187E0,3.434641339E0
1.525018813E1,-8.173921432E-1,4.169813204E-1,4.813313320E0,4.899998822E0
1.526016712E1,-1.362119996E0,5.431022537E-1,6.776330034E0,6.933179622E0
1.527014512E1,-1.659808615E0,4.893739432E-1,8.831336898E0,8.999275688E0
1.528012313E1,-1.114591424E0,3.293754119E-1,1.042672338E1,1.049129937E1
1.529010112E1,-2.268390767E-1,1.475252509E-2,1.170622163E1,1.170842852E1
1.530007912E1,4.335507946E-1,-5.637750846E-1,1.276945594E1,1.278924601E1
1.531005712E1,7.690560620E-1,-1.280946025E0,1.344085312E1,1.352363866E1
1.532003512E1,5.452127331E-1,-2.346780002E0,1.361967734E1,1.383113315E1
1.533001312E1,-9.729437940E-3,-3.787763150E0,1.320843916E1,1.374081909E1
1.533999112E1,-6.877248736E-1,-5.357107884E0,1.229380365E1,1.342792533E1
1.534997012E1,-1.218206278E0,-6.799428290E0,1.096242189E1,1.295727383E1
1.535994812E1,-1.057214962E0,-7.817809188E0,9.036620945E0,1.199568098E1
1.536992612E1,-4.487097012E-1,-8.052797676E0,7.001413338E0,1.068029398E1
1.537990413E1,1.835121955E-1,-7.992921018E0,5.272455404E0,9.577016712E0
1.538988212E1,8.424533095E-1,-7.866480827E0,3.714180619E0,8.739930540E0
1.539986012E1,1.085786431E0,-7.557558390E0,2.416187768E0,8.008344668E0
1.540983812E1,1.104797045E0,-7.454994720E0,1.280380014E0,7.644402904E0
1.541981612E1,1.447021860E0,-7.643508368E0,2.555107525E-1,7.783468261E0
1.542979512E1,1.723326919E0,-7.681906448E0,-7.097163248E-1,7.904760566E0
1.543977312E1,1.798128156E0,-7.650132093E0,-1.615205031E0,8.022884344E0
1.544975112E1,1.971489037E0,-7.773715920E0,-2.568223999E0,8.420997728E0
1.545972912E1,2.130658726E0,-7.971467584E0,-3.647559198E0,9.021568053E0
1.546970712E1,2.105900884E0,-7.632749491E0,-4.968427087E0,9.347670888E0
1.547968512E1,1.724082964E0,-6.994394925E0,-5.997842851E0,9.373800792E0
1.548966312E1,1.453839274E0,-6.660230643E0,-6.487544823E0,9.410661969E0
1.549964112E1,1.207012003E0,-6.437483302E0,-6.764663669E0,9.415877218E0
1.550962012E1,8.261328536E-1,-6.189813958E0,-6.883952131E0,9.294357926E0
1.551959812E1,3.423705928E-1,-5.812538155E0,-6.880281833E0,9.013384244E0
1.552957612E1,-1.338431683E-1,-5.627024129E0,-6.725544627E0,8.770077826E0
1.553955412E1,-6.218239027E-1,-5.310972183E0,-6.837969042E0,8.680490258E0
1.554953213E1,-8.647271081E-1,-5.011899381E0,-6.688563327E0,8.402604820E0
1.555951012E1,-1.079837182E0,-4.877194735E0,-6.194517458E0,7.957708424E0
1.556948812E1,-1.249332322E0,-4.728156810E0,-5.587619158E0,7.425482202E0
1.557946612E1,-1.189646795E0,-4.674925513E0,-5.319641265E0,7.181139967E0
1.558944412E1,-1.102479282E0,-4.468267955E0,-5.546386932E0,7.207169145E0
1.559942312E1,-9.183188861E-1,-4.263777959E0,-5.925143250E0,7.357338825E0
1.560940112E1,-6.263064513E-1,-4.060722286E0,-6.201506635E0,7.439113509E0
1.561937912E1,-4.018846866E-1,-3.727385970E0,-6.362917269E0,7.385230778E0
1.562935712E1,-2.814089477E-1,-3.405952832E0,-6.414618934E0,7.268221362E0
1.563933512E1,-2.572802661E-1,-3.024775767E0,-6.195282274E0,6.899056749E0
1.564931313E1,-3.687635721E-1,-2.661254370E0,-5.690489808E0,6.292847976E0
1.565929112E1,-5.977219722E-1,-2.148472853E0,-4.862968460E0,5.349922373E0
1.566926912E1,-8.541119997E-1,-1.554754761E0,-3.712205429E0,4.114272575E0
1.567924712E1,-1.149295014E0,-1.142443612E0,-2.530282586E0,3.004727342E0
1.568922612E1,-1.287913567E0,-8.241217768E-1,-1.736282156E0,2.313563006E0
1.569920412E1,-1.156736035E0,-6.332511163E-1,-1.526671169E0,2.017367118E0
1.570918212E1,-8.697741323E-1,-5.437010086E-1,-1.724794132E0,2.006746776E0
1.571916012E1,-6.093018711E-1,-4.400579417E-1,-2.015443434E0,2.151025801E0
1.572913812E1,-4.252342267E-1,-4.678146744E-1,-1.957000514E0,2.056581077E0
1.573911612E1,-4.548410185E-1,-4.561494792E-1,-1.281517298E0,1.434307946E0
1.574909412E1,-5.481470852E-1,-6.650833583E-1,-2.166247219E-1,8.886660625E-1
1.575907212E1,-5.189065484E-1,-1.001026947E0,6.850708956E-1,1.319333577E0
1.576905112E1,-3.177724895E-1,-1.216006263E0,9.171623799E-1,1.555904052E0
1.577902912E1,-5.778043091E-2,-1.452670562E0,5.645068637E-1,1.559569921E0
1.578900712E1,2.774943465E-1,-1.820079773E0,-4.791296214E-2,1.841735362E0
1.579898512E1,4.317388522E-1,-2.122619389E0,-4.150517392E-1,2.205488484E0
1.580896312E1,5.174084187E-1,-2.431512004E0,-4.094160466E-1,2.519441128E0
1.581894113E1,6.641836911E-1,-2.785236391E0,-2.278965457E-1,2.872389000E0
1.582891912E1,5.528585523E-1,-3.168498573E0,-1.062567723E-1,3.218124654E0
1.583889712E1,4.648539002E-1,-3.422880521E0,-2.855008475E-1,3.466080054E0
1.584887613E1,4.299409430E-1,-3.620365552E0,-6.565703970E-1,3.704454161E0
1.585885412E1,4.093002352E-1,-3.818756316E0,-9.080521256E-1,3.946515571E0
1.586883212E1,3.494433849E-1,-4.039096944E0,-6.972921610E-1,4.113712576E0
1.587881012E1,2.127518003E-1,-4.195085455E0,1.831201762E-2,4.200516710E0
1.588878812E1,-3.281366061E-2,-4.269104773E0,9.175579441E-1,4.366720151E0
1.589876612E1,-1.551847014E-1,-4.152050532E0,1.527162043E0,4.426717725E0
1.590874412E1,-6.706383593E-2,-3.905331361E0,1.980072457E0,4.379132052E0
1.591872213E1,2.398291414E-1,-3.595869226E0,2.242756866E0,4.244732250E0
1.592870112E1,6.401097541E-1,-3.261623084E0,2.417813732E0,4.110200589E0
1.593867912E1,8.407356899E-1,-2.983276323E0,2.598656125E0,4.044723449E0
1.594865983E1,7.820831468E-1,-2.610863650E0,3.003940968E0,4.056097186E0
1.595863783E1,5.154300863E-1,-2.108029416E0,3.638307733E0,4.236359210E0
1.596861583E1,3.901833118E-1,-1.703251235E0,4.252196964E0,4.597225990E0
1.597859383E1,5.685176881E-1,-1.447104013E0,4.572006916E0,4.829137565E0
1.598857183E1,9.506947730E-1,-1.311386045E0,4.405234970E0,4.693575295E0
1.599854983E1,1.409621314E0,-1.135248613E0,3.941035044E0,4.336770559E0
1.600852783E1,1.562985448E0,-7.691374844E-1,3.594942443E0,3.994759961E0
1.601850683E1,1.264469594E0,-5.688925678E-1,3.558002658E0,3.818626065E0
1.602848483E1,7.429182771E-1,-5.547276878E-1,3.516437141E0,3.636616633E0
1.603846283E1,2.272663620E-1,-5.075400728E-1,3.300914619E0,3.347429498E0
1.604844083E1,-1.597875199E-1,-4.181466705E-1,2.870092939E0,2.904791244E0
1.605841883E1,-3.538539762E-1,-3.789580464E-1,2.175678778E0,2.236604565E0
1.606839683E1,-4.250621359E-1,-2.169469035E-1,1.415630790E0,1.493905724E0
1.607837483E1,-4.421925408E-1,-4.682684183E-2,9.371426082E-1,1.037286491E0
1.608835283E1,-3.198330117E-1,-6.009885192E-2,7.910826695E-1,8.554044759E-1
1.609833183E1,-6.395942124E-2,-1.188557678E-1,8.832991076E-1,8.935517973E-1
1.610830983E1,1.502375184E-1,-1.043505800E-1,1.124948158E0,1.139723087E0
1.611828783E1,2.218428137E-1,-1.267500937E-2,1.387247236E0,1.404930526E0
