"Time (s)","Linear Acceleration x (m/s^2)","Linear Acceleration y (m/s^2)","Linear Acceleration z (m/s^2)","Absolute acceleration (m/s^2)"
4.693708324E-3,-7.791455970E-3,4.318817435E-3,-3.906349361E-2,4.006638870E-2
1.467170834E-2,-1.568284679E-2,1.223246651E-2,-4.086034298E-2,4.544394953E-2
2.464970836E-2,-3.256789483E-2,-4.416484209E-3,-5.384116173E-3,3.330408103E-2
3.462870832E-2,-2.717688534E-2,1.465304933E-2,-3.966400266E-2,5.026458055E-2
4.460670834E-2,-5.639364267E-3,1.593288607E-2,-3.787007689E-2,4.147049568E-2
5.458570836E-2,-1.655428749E-2,4.780683517E-3,-3.278007567E-2,3.703286014E-2
6.456370832E-2,-7.736431615E-3,1.543375312E-2,-9.128673077E-3,1.952910089E-2
7.454170834E-2,-1.118873166E-2,-5.596360965E-3,-5.089241087E-2,5.240748474E-2
8.452070836E-2,3.487656286E-3,-3.679506630E-3,-2.484715819E-2,2.535909671E-2
9.449870832E-2,-4.710277102E-3,2.769314423E-3,4.191284180E-3,6.886412406E-3
1.044777083E-1,-1.969204274E-2,1.646049678E-2,-2.335085571E-2,3.469851530E-2
1.144557084E-1,-3.817867055E-2,3.917798940E-3,-3.727132201E-2,5.349870539E-2
1.244337083E-1,-1.216963635E-2,1.753086615E-3,-1.302291870E-2,1.791004671E-2
1.344127083E-1,-2.877077922E-3,1.368466820E-2,-5.688054442E-2,5.857426103E-2
1.443907084E-1,-1.066435405E-2,1.424231898E-2,-2.978747070E-2,3.469676509E-2
1.543687083E-1,-1.452182959E-2,-1.133649948E-2,-3.457692504E-2,3.917861024E-2
1.643477083E-1,-8.191559695E-3,1.967313979E-4,-3.532536864E-2,3.626323239E-2
1.743257084E-1,-1.518874108E-2,5.117410049E-3,-2.005887330E-2,2.567575002E-2
1.843047083E-1,-3.347798197E-3,8.680219045E-3,-4.491831064E-3,1.033104553E-2
1.942827083E-1,-2.451657581E-3,3.574201930E-4,-3.323089600E-2,3.332312745E-2
2.042607084E-1,-1.196955993E-2,3.110243641E-3,-1.436953247E-2,1.895857178E-2
2.142397083E-1,1.956725037E-3,1.161256115E-2,2.693227530E-3,1.208030727E-2
2.242177083E-1,-1.474718380E-2,9.812093815E-3,-3.862085938E-2,4.248914443E-2
2.341967084E-1,-1.810587929E-2,-9.849452041E-4,-4.026802003E-2,4.416227371E-2
2.441747083E-1,-1.016067238E-2,-1.091739116E-3,-2.694513917E-2,2.881790559E-2
2.541527083E-1,-5.747938610E-3,1.106319697E-2,-3.098381102E-2,3.339804891E-2
2.641317084E-1,1.328707923E-2,1.744046272E-2,-3.203163207E-2,3.881677044E-2
2.741097083E-1,8.717764565E-4,2.265704703E-3,-7.333577871E-3,7.724945073E-3
2.840887083E-1,-1.947818083E-2,-3.513728930E-3,-3.053474486E-2,3.638841111E-2
2.940667084E-1,-1.545853298E-2,4.756545480E-3,-8.946239948E-4,1.619849743E-2
3.040447083E-1,-3.825642710E-2,1.367618973E-2,-1.342520714E-3,4.064965857E-2
3.140237083E-1,-1.842671441E-2,-2.859352408E-3,-4.400146723E-2,4.778963087E-2
3.240017084E-1,-7.638347999E-3,1.000623051E-3,-2.439107537E-2,2.557870529E-2
3.339797083E-1,2.538453330E-3,-5.478137573E-3,-1.420873404E-4,6.039364651E-3
3.439587083E-1,-7.716497406E-5,-3.018195676E-3,-4.265309930E-2,4.275982155E-2
3.539367084E-1,-6.821892826E-3,8.082213337E-3,-3.905998528E-2,4.046656452E-2
3.639157083E-1,-6.652920856E-3,1.230281582E-3,-1.960045159E-2,2.073529964E-2
3.738937083E-1,1.811057761E-2,9.693660289E-3,-4.444936395E-2,4.896637649E-2
3.838717084E-1,1.675940942E-2,-4.217176381E-3,-3.546745598E-2,3.945380608E-2
3.938507083E-1,7.248153705E-3,-6.856856206E-3,2.365841925E-2,2.567631225E-2
4.038287083E-1,1.146525814E-2,2.613623170E-3,-3.486928582E-2,3.679878074E-2
4.138077084E-1,3.628639051E-2,-1.664412676E-2,-2.514068842E-2,4.717820796E-2
4.237857083E-1,1.029712150E-2,-8.005770128E-3,-2.244629145E-2,2.596072160E-2
4.337637083E-1,-8.457539486E-3,9.103877228E-3,-3.367411494E-2,3.589368429E-2
4.437427084E-1,-1.602802552E-2,2.418511634E-2,-2.005302608E-2,3.526955216E-2
4.537207083E-1,-3.167736160E-2,9.386133291E-3,-1.196925044E-2,3.513997286E-2
4.636987083E-1,-4.220784753E-2,2.193361854E-2,-3.187843502E-2,5.726098702E-2
4.736777084E-1,-7.140157459E-2,2.480480243E-2,-3.606796503E-2,8.375178314E-2
4.836557083E-1,-3.387354611E-2,1.002303212E-2,-1.040804386E-3,3.534065043E-2
4.936347083E-1,7.560873533E-3,1.808968638E-2,-4.849095941E-2,5.230465281E-2
5.036127084E-1,4.256432669E-2,-2.007156358E-2,-3.906057000E-2,6.115813682E-2
5.135907083E-1,2.560292909E-2,-3.255948946E-2,-1.810297966E-2,4.520340921E-2
5.235697083E-1,4.594827027E-2,-1.349888206E-2,-2.813153923E-2,5.554139768E-2
5.335477084E-1,3.366328389E-2,9.329963475E-4,-2.603531241E-2,4.256670832E-2
5.435267083E-1,7.824194668E-3,-2.635705546E-3,-3.351974845E-2,3.452156575E-2
5.535047083E-1,-4.307039863E-2,2.055500041E-2,-1.765391350E-2,5.088445678E-2
5.634827084E-1,-5.982419724E-2,2.346855833E-2,-3.307243645E-2,7.227374252E-2
5.734617083E-1,-7.160280104E-2,4.373505346E-2,-2.004893303E-2,8.626514785E-2
5.834397083E-1,-6.813728423E-2,1.776333866E-2,-2.798243523E-2,7.577098642E-2
5.934187084E-1,-3.491043560E-2,8.055297872E-3,-3.352033317E-2,4.906362271E-2
6.033962917E-1,1.389950883E-2,-1.182712656E-2,-3.052655876E-2,3.556610828E-2
6.133742917E-1,5.407247392E-2,-2.458852854E-2,-1.675402701E-2,6.171811398E-2
6.233532917E-1,7.615863627E-2,-3.814615684E-2,-4.818807364E-2,9.786397499E-2
6.333312917E-1,8.031071213E-2,-3.500262975E-2,-3.651059926E-2,9.491058123E-2
6.433092917E-1,4.459895674E-2,-1.150116256E-2,-4.130005360E-2,6.186305933E-2
6.532882917E-1,-9.150276940E-3,1.792610139E-3,-1.121437490E-2,1.458434858E-2
6.632662917E-1,-6.624951522E-2,2.772997255E-2,-5.327632070E-2,8.942212250E-2
6.732452917E-1,-1.029938889E-1,2.416703565E-2,-2.857943594E-2,1.095836252E-1
6.832232916E-1,-1.008595364E-1,4.293657049E-2,-2.528569937E-2,1.124969411E-1
6.932012917E-1,-7.819151673E-2,3.461589125E-2,-1.944900870E-2,8.769513758E-2
7.031802917E-1,-4.236811149E-2,1.766431971E-2,-1.510862052E-2,4.832551579E-2
7.131582916E-1,3.704606260E-3,6.027209396E-3,-5.327924430E-2,5.374689976E-2
7.231372917E-1,5.685035361E-2,-7.029321659E-3,-2.408994377E-2,6.214257364E-2
7.331152917E-1,8.873057476E-2,-3.241823352E-2,-1.346321404E-2,9.542177369E-2
7.430932916E-1,7.527447788E-2,-4.539167016E-2,-3.846239984E-2,9.594793870E-2
7.530722917E-1,5.973235484E-2,-3.068239619E-2,-2.873321772E-2,7.304082044E-2
7.630502917E-1,1.560803213E-2,-8.710377887E-3,-1.990333736E-2,2.675115302E-2
7.730292917E-1,-4.068860843E-2,2.348534167E-2,-3.487279415E-2,5.850842590E-2
7.830072917E-1,-7.078090179E-2,4.140919553E-2,-4.086209714E-2,9.162078648E-2
7.929852917E-1,-9.589719635E-2,3.677334937E-2,-4.161229491E-2,1.108157686E-1
8.029642917E-1,-8.494235560E-2,3.522084966E-2,-4.700167358E-2,1.032708543E-1
8.129422917E-1,-6.215228442E-2,3.074329860E-2,-2.814147949E-2,7.483314597E-2
8.229202917E-1,6.536569259E-3,-7.672405746E-3,-1.526766479E-2,1.829464774E-2
8.328992917E-1,4.334220280E-2,-1.958338503E-2,-1.766385376E-2,5.073526626E-2
8.428772917E-1,7.734958163E-2,-3.856067874E-2,-2.873906493E-2,9.108137887E-2
8.528562917E-1,9.349822995E-2,-5.479482433E-2,-2.679252684E-2,1.116343642E-1
8.628342916E-1,9.831244360E-2,-4.882628809E-2,-2.589556396E-2,1.127826370E-1
8.728122917E-1,1.048255475E-2,-2.223275844E-2,-1.077700317E-2,2.683883938E-2
8.827912917E-1,-4.037382723E-2,1.087048553E-2,-5.837275386E-3,4.221714302E-2
8.927692916E-1,-7.163128794E-2,4.391862863E-2,-3.023536742E-2,8.929761920E-2
9.027482917E-1,-1.070891600E-1,5.575118213E-2,-2.649314940E-2,1.236048925E-1
9.127262917E-1,-1.131398861E-1,4.677431739E-2,-9.277777076E-3,1.227784499E-1
9.227042916E-1,-6.345151747E-2,4.581363813E-2,-2.589380980E-2,8.243466439E-2
9.326832917E-1,-2.229576219E-2,1.379730932E-2,-2.888816893E-2,3.901272947E-2
9.426612917E-1,1.186428150E-2,-1.820985580E-2,-2.664283812E-2,3.438314772E-2
9.526392916E-1,4.308174589E-2,-3.096900112E-2,-4.205960691E-2,6.770617692E-2
9.626182917E-1,4.900758832E-2,-2.310286981E-2,-3.397700071E-2,6.395250491E-2
9.725962917E-1,3.280425482E-2,-2.241110765E-2,-1.691131711E-2,4.317834558E-2
9.825752917E-1,3.939977246E-3,-6.249321364E-3,-2.095232785E-2,2.221660371E-2
9.925532917E-1,-1.455569319E-2,2.566708401E-3,-1.975189447E-2,2.466968852E-2
1.002531292E0,-3.581438773E-2,1.481154542E-2,-2.574002802E-2,4.652527581E-2
1.012510292E0,-5.582467432E-2,2.954203382E-2,-1.990158319E-2,6.622083538E-2
1.022488292E0,-4.184061955E-2,2.493897775E-2,-3.247485101E-2,5.854234368E-2
1.032467292E0,-1.591762621E-2,-9.442065563E-4,-2.349177361E-2,2.839235420E-2
1.042445292E0,1.796815794E-2,-2.121253808E-2,-3.606504142E-2,4.553585054E-2
1.052423292E0,8.335017477E-3,-9.940942694E-3,-4.339920402E-2,4.529664190E-2
1.062402292E0,7.984395814E-3,-2.544746624E-2,-2.169550896E-2,3.438050645E-2
1.072380292E0,3.888521749E-2,-1.005897422E-2,-3.172465324E-2,5.118297300E-2
1.082359292E0,1.866368424E-2,-7.726008268E-3,-2.304329216E-2,3.064339451E-2
1.092337292E0,3.030185894E-3,2.348269215E-3,-2.723516107E-2,2.750364327E-2
1.102315292E0,-2.765925779E-2,2.257964451E-2,-1.735862911E-2,3.970134623E-2
1.112294292E0,-2.641898341E-2,2.582494969E-2,-2.544240475E-2,4.485762667E-2
1.122272292E0,-7.075270268E-3,9.158630921E-3,-2.140080929E-2,2.432970628E-2
1.132251292E0,-3.223329705E-2,1.584942620E-2,-1.691073239E-2,3.970091460E-2
1.142229292E0,-3.459816459E-2,1.957374626E-2,-3.936462522E-2,5.594406362E-2
1.152207292E0,-1.387457366E-2,1.200923991E-2,-1.601435423E-2,2.435539322E-2
1.162186292E0,2.712820042E-2,-4.475221317E-3,-2.214983761E-2,3.530697056E-2
1.172164292E0,1.949252021E-2,-2.574544583E-2,-2.619026363E-2,4.157783345E-2
1.182142292E0,-6.552724476E-3,-5.416495129E-3,-2.514244258E-2,2.654089367E-2
1.192121292E0,-1.310802424E-2,2.564122835E-3,-2.918403804E-2,3.209521930E-2
1.202099292E0,1.746710638E-3,4.432655415E-3,-2.379582882E-2,2.426810461E-2
1.212078292E0,-1.977718597E-2,1.587915564E-2,-3.576975703E-2,4.384928947E-2
1.222056292E0,-5.200022983E-2,1.471025155E-2,-4.026158810E-2,6.738999094E-2
1.232034292E0,-2.578190185E-2,2.002751760E-2,-3.232750118E-2,4.594426250E-2
1.242013292E0,-9.062726306E-3,1.582117684E-2,-2.993306637E-2,3.504898154E-2
1.251991292E0,-6.303514318E-3,-1.238503315E-2,-3.217898190E-2,3.505153656E-2
1.261970292E0,8.862097145E-3,-8.709400306E-3,-3.203163207E-2,3.435718080E-2
1.271948292E0,-1.708397671E-3,6.645040819E-3,-2.095525146E-2,2.204989237E-2
1.281926292E0,2.196123293E-2,-8.508064225E-4,-1.332112670E-2,2.569965058E-2
1.291905292E0,6.709699376E-3,-1.473410636E-2,-3.023712158E-2,3.429865125E-2
1.301883292E0,-1.003598850E-2,-1.647954592E-2,-2.844202638E-2,3.436925026E-2
1.311862292E0,-2.119236975E-2,3.991565220E-3,-1.841463625E-2,2.835750266E-2
1.321840292E0,-1.513045165E-2,1.715277057E-2,-2.619844973E-2,3.477796535E-2
1.331818292E0,-1.055130407E-2,2.544389396E-2,-1.946304202E-2,3.372731478E-2
1.341797292E0,-2.945332516E-2,1.529708359E-2,-3.652755618E-2,4.935343443E-2
1.351775292E0,-2.393214660E-2,1.922817581E-2,-2.934191287E-2,4.246667207E-2
1.361753292E0,4.886036182E-3,-1.364292456E-3,-1.841405153E-2,1.910005072E-2
1.371732292E0,-2.391995424E-3,-4.443491036E-3,-3.787300050E-2,3.820772725E-2
1.381710292E0,1.273192950E-2,-7.677558605E-3,-3.412844360E-2,3.722630249E-2
1.391689292E0,3.882060118E-3,-3.155596107E-3,-3.038622558E-2,3.079530618E-2
1.401667292E0,-1.262345680E-2,9.740602467E-3,-2.364964843E-2,2.852256771E-2
1.411645292E0,-2.525399193E-2,1.264200001E-2,-2.948692381E-2,4.082968220E-2
1.421624292E0,-1.607719352E-3,1.260887188E-2,-2.349820554E-2,2.671580198E-2
1.431602292E0,-7.435564961E-3,1.473310137E-2,-1.496594846E-2,2.227849896E-2
1.441581292E0,-1.373155213E-2,1.545097500E-2,-2.739011228E-2,3.431481317E-2
1.451559292E0,-9.984978394E-3,7.138079870E-4,-1.676279783E-2,1.952436187E-2
1.461537292E0,-6.176958644E-3,4.208030971E-3,-2.813914061E-2,2.911483431E-2
1.471516292E0,1.609281998E-2,-9.459150396E-3,-3.966400266E-2,4.383705610E-2
1.481494292E0,7.866515033E-3,-1.934906700E-2,-2.244979978E-2,3.066369127E-2
1.491472292E0,1.228238597E-2,2.661990607E-3,-3.756836057E-2,3.961470579E-2
1.501451292E0,9.187115540E-3,-7.580768913E-3,-1.855847776E-2,2.205194427E-2
1.511429292E0,1.552225507E-2,7.570929145E-3,-2.289886594E-2,2.868130806E-2
1.521408292E0,-1.344122531E-2,1.075535020E-2,-3.727015257E-2,4.105372539E-2
1.531386292E0,-1.394706771E-2,1.336992354E-2,-3.682050169E-2,4.158154516E-2
1.541364292E0,-2.800889845E-2,1.035974038E-2,-2.858762205E-2,4.134095726E-2
1.551343292E0,-1.236697759E-2,-2.354573244E-3,-4.146085203E-2,4.332999424E-2
1.561321292E0,1.712603783E-3,4.726834316E-4,-2.798886716E-2,2.804519792E-2
1.571300292E0,7.363330149E-3,-6.878454359E-3,-2.574412107E-2,2.764582311E-2
1.581278292E0,1.829459817E-2,-1.449697436E-2,-2.289828122E-2,3.269840777E-2
1.591256292E0,3.963041771E-3,-1.201502318E-2,-1.661193967E-2,2.088116428E-2
1.601236167E0,2.296267596E-2,7.998415427E-3,-3.412435055E-2,4.190143717E-2
1.611214167E0,-8.286840760E-4,2.171637621E-3,-3.187901974E-2,3.196364539E-2
1.621193167E0,-1.812738608E-2,1.484604400E-2,-3.292742550E-2,4.041314760E-2
1.631171167E0,-2.687068767E-2,5.424781730E-3,-2.469279170E-2,3.689439083E-2
1.641149167E0,-2.321936645E-2,7.745240126E-3,-2.379290521E-2,3.413546632E-2
1.651128167E0,-2.584954911E-2,1.724522967E-2,-2.379232049E-2,3.913657688E-2
1.661106167E0,-1.151439302E-2,2.922694199E-3,-2.633761346E-2,2.889278926E-2
1.671085167E0,-2.552378154E-3,6.424829196E-3,-3.322446406E-2,3.393608811E-2
1.681063167E0,7.674927358E-3,-8.628900591E-3,-2.050150752E-2,2.353028359E-2
1.691041167E0,9.568614385E-3,-5.723647540E-3,-1.661077023E-2,2.000590438E-2
1.701020167E0,-1.302479050E-2,7.732275752E-3,-2.484248042E-2,2.909608374E-2
1.710998167E0,9.675876531E-3,1.103040688E-2,-1.256800532E-2,1.931960715E-2
1.720976167E0,2.673285326E-3,6.615978330E-3,-2.259773433E-2,2.369757837E-2
1.730955167E0,-3.496155306E-3,-4.526896086E-3,-3.412435055E-2,3.460039292E-2
1.740933167E0,-1.493787954E-2,9.762191484E-3,-4.550010860E-2,4.887433386E-2
1.750912167E0,-3.217014255E-2,1.506797324E-2,-2.933431149E-2,4.607020425E-2
1.760890167E0,-1.385157080E-2,1.022590309E-2,-3.053065181E-2,3.505076044E-2
1.770868167E0,-3.143444405E-2,8.472789070E-3,-3.202753901E-2,4.566919840E-2
1.780847167E0,7.206784654E-4,6.715399269E-3,-2.678784907E-2,2.762616192E-2
1.790825167E0,1.240708698E-2,-4.498710679E-3,-1.795796871E-2,2.228593380E-2
1.800804167E0,8.311163806E-3,4.941966170E-3,-1.242065549E-2,1.574074827E-2
1.810782167E0,5.197858372E-3,5.140524823E-3,-3.232925534E-2,3.314548956E-2
1.820760167E0,-3.952504221E-3,5.382736595E-3,-2.843617916E-2,2.920980021E-2
1.830739167E0,-1.415693593E-2,6.202982180E-3,-1.451571286E-2,2.120381434E-2
1.840717167E0,-1.311352542E-2,2.331696013E-3,-1.810824215E-2,2.247909672E-2
1.850695167E0,-9.051817594E-3,-2.452249154E-3,-3.083295286E-2,3.222762650E-2
1.860674167E0,-1.724545808E-2,9.609213704E-3,-2.409754515E-2,3.115179761E-2
1.870652167E0,-1.104963188E-2,2.110991031E-3,-1.706100583E-2,2.043596261E-2
1.880631167E0,-1.995695587E-2,9.960393822E-3,-1.945485592E-2,2.959697538E-2
1.890609167E0,-1.056551669E-2,-4.779367894E-3,-3.457458615E-2,3.646744450E-2
1.900587167E0,-1.295188074E-2,7.806489710E-3,-1.900637448E-2,2.428857277E-2
1.910566167E0,-3.044612071E-3,3.409036361E-3,-2.125112057E-2,2.173709541E-2
1.920544167E0,-3.353981171E-3,6.528918771E-3,-3.472193599E-2,3.548927738E-2
1.930523167E0,1.266624311E-2,4.391386863E-3,-2.379348993E-2,2.731022073E-2
1.940501167E0,-7.786153505E-3,5.605999734E-3,-3.232574701E-2,3.371950977E-2
1.950479167E0,-1.917313661E-2,2.087154491E-2,-3.112823725E-2,4.209747865E-2
1.960458167E0,-1.020013994E-2,9.654401718E-3,-3.501955926E-2,3.773088733E-2
1.970436167E0,-1.847566885E-2,3.188925236E-4,-2.888290644E-2,3.428810750E-2
1.980415167E0,-1.336217370E-2,-6.832160857E-3,-3.157847285E-2,3.496321003E-2
1.990393167E0,-2.372401770E-2,1.742241858E-3,-1.825734615E-2,2.998658219E-2
2.000371167E0,-5.533107111E-3,-6.611803053E-3,-2.544415891E-2,2.686515283E-2
2.010350167E0,-3.501830074E-3,9.720082395E-5,-3.247952878E-2,3.266790553E-2
2.020328167E0,2.216076460E-2,-6.294381469E-3,-2.783859372E-2,3.613455446E-2
2.030307167E0,4.028295327E-3,1.253261140E-2,-1.751065671E-2,2.190699911E-2
2.040285167E0,-1.146859059E-2,7.241411135E-3,-2.933548093E-2,3.231929836E-2
2.050263167E0,-8.482669950E-3,1.402408993E-3,-2.050384641E-2,2.223353678E-2
2.060242167E0,-1.275025801E-2,-4.503105227E-3,-3.846532345E-2,4.077288491E-2
2.070220167E0,-7.920931826E-3,1.633977005E-3,-3.592061520E-2,3.681985386E-2
2.080198167E0,-1.937128185E-2,1.234783938E-2,-2.199897945E-2,3.180677278E-2
2.090177167E0,-2.740392176E-2,1.353624028E-2,-4.280688107E-2,5.259880033E-2
2.100155167E0,-1.218919825E-2,7.298549395E-3,-3.068326414E-2,3.381283891E-2
2.110134167E0,-1.278772359E-2,1.111262421E-2,-3.113349974E-2,3.544447908E-2
2.120112167E0,-1.651286819E-2,1.954130335E-2,-3.562650025E-2,4.386097209E-2
2.130090167E0,-1.364735565E-2,-3.411320429E-3,-2.694630861E-2,3.039721979E-2
2.140069167E0,-1.559740093E-2,-5.666865595E-4,-3.233510256E-2,3.590485910E-2
2.150047167E0,-1.686614166E-2,6.045198720E-4,-2.170720339E-2,2.749608804E-2
2.160026167E0,-9.862092077E-3,-3.641472319E-3,-3.413019776E-2,3.571262494E-2
2.170004167E0,-1.256039252E-2,1.186455787E-2,-1.182716310E-2,2.093831371E-2
2.179982167E0,-1.891753106E-2,4.949074192E-3,-2.380401492E-2,3.080580210E-2
2.189961167E0,-2.186586393E-2,7.908094218E-3,-2.724568605E-2,3.581872929E-2
2.199939167E0,-8.615539932E-3,-5.536372187E-3,-2.410339236E-2,2.618878517E-2
2.209917167E0,-6.769384373E-3,4.692518469E-3,-3.323381960E-2,3.423932038E-2
2.219896167E0,-1.698408982E-2,-1.890477911E-4,-2.814440310E-2,3.287251849E-2
2.229874167E0,3.614640223E-3,7.655933043E-3,-2.919397831E-2,3.039683050E-2
2.239853167E0,6.509561290E-4,4.069570731E-4,-1.287849247E-2,1.290135366E-2
2.249831167E0,-1.773341736E-3,3.107950436E-3,-3.637845218E-2,3.655401319E-2
2.259809167E0,-2.467359639E-2,1.418832360E-2,-2.544942141E-2,3.818072727E-2
2.269788167E0,-4.581173550E-3,-1.710922709E-3,-1.122957766E-2,1.224817627E-2
2.279766167E0,-1.024314324E-2,-7.729160283E-3,-1.931335330E-2,2.318765874E-2
2.289745167E0,-1.410153699E-2,3.250321001E-3,-3.158841312E-2,3.474544251E-2
2.299723167E0,-1.407377984E-2,-6.238650195E-3,-7.939934134E-3,1.732150656E-2
2.309701167E0,-2.138577783E-2,3.711154684E-5,-3.682985723E-2,4.258862823E-2
2.319680167E0,-1.551915902E-2,1.642058040E-2,-2.739888310E-2,3.551307580E-2
2.329658167E0,-1.341010373E-2,-1.432841923E-4,-5.544914603E-3,1.451197748E-2
2.339637167E0,-4.683483836E-3,8.501623152E-3,-4.910491705E-2,5.005502468E-2
2.349615167E0,-1.393331191E-2,-3.383902470E-3,-3.533413947E-2,3.813252402E-2
2.359593167E0,-1.058805816E-2,-7.790693091E-3,-1.557581306E-2,2.038155604E-2
2.369572167E0,-1.496248010E-2,-6.871401155E-3,-3.099492073E-2,3.509668183E-2
2.379550167E0,3.992964212E-3,-1.149113093E-2,-3.982655525E-2,4.164305892E-2
2.389528167E0,-1.462178615E-2,-8.475100547E-3,-2.096694589E-2,2.693022056E-2
2.399507167E0,-6.015971778E-3,-3.225104883E-3,-4.132578135E-2,4.188571859E-2
2.409485167E0,-1.126584753E-2,4.011929976E-3,-2.875251353E-2,3.114035865E-2
2.419464167E0,4.525744915E-3,-1.155101920E-2,-2.755500376E-2,3.021897821E-2
2.429442167E0,-1.753941999E-3,1.774629951E-3,-5.300091684E-2,5.305961562E-2
2.439420167E0,-6.647499619E-3,2.485883435E-2,-2.860107064E-2,3.847300532E-2
2.449399167E0,-1.918720419E-3,-6.390823983E-4,-3.099550545E-2,3.106141131E-2
2.459377167E0,-1.401569027E-2,-6.825153334E-3,-3.009737313E-2,3.389504626E-2
2.469356167E0,-2.157110488E-2,1.826464604E-2,-1.647511482E-2,3.271603993E-2
2.479334167E0,-1.222961371E-2,2.228419567E-3,-1.213297248E-2,1.737061675E-2
2.489312167E0,-6.199067286E-3,4.855756285E-3,-1.557639778E-2,1.745368076E-2
2.499291167E0,-9.376059406E-3,1.471141186E-2,-3.353904426E-2,3.780480947E-2
2.509269167E0,-9.104583005E-3,-3.100942913E-4,-4.057499886E-2,4.158509495E-2
2.519248167E0,-1.267193844E-2,1.797013823E-3,-2.830052376E-2,3.106005357E-2
2.529226167E0,1.702314283E-2,4.423162825E-3,-2.066698372E-2,2.713809089E-2
2.539204167E0,-3.703637815E-3,-4.698365685E-3,-1.917009652E-2,2.008193650E-2
2.549183167E0,-1.690634241E-2,4.254598562E-3,-3.473655403E-2,3.886584887E-2
2.559161167E0,-1.713743990E-2,3.543860363E-3,-1.243118048E-2,2.146590414E-2
2.569139167E0,-4.596825130E-3,-7.108743293E-3,-2.260708988E-2,2.414012314E-2
2.579118167E0,-1.873553419E-2,2.122164695E-3,-2.814498782E-2,3.387719238E-2
2.589096167E0,-2.411674960E-3,-6.770079872E-3,-1.661778688E-2,1.810527543E-2
2.599075167E0,-1.813183430E-2,-2.622795990E-3,-2.020914674E-2,2.727731815E-2
2.609050042E0,-5.409405380E-3,4.241634188E-3,-3.143463135E-2,3.217746378E-2
2.619028042E0,3.292489476E-3,-6.353730708E-4,-3.098381102E-2,3.116473538E-2
2.629007042E0,-1.522648532E-2,1.653409861E-3,-2.978747070E-2,3.349437311E-2
2.638985042E0,3.131959423E-3,5.496729892E-3,-2.499743164E-2,2.578555405E-2
2.648964042E0,7.428343878E-3,-6.159036700E-3,-2.574587524E-2,2.749480165E-2
2.658942042E0,-2.685938838E-2,1.104027405E-2,-3.532595336E-2,4.573004895E-2
2.668920042E0,-6.821425734E-3,1.504817493E-2,-2.095583618E-2,2.668569819E-2
2.678899042E0,-2.344097364E-3,1.061813249E-2,-3.158315063E-2,3.340261866E-2
2.688877042E0,-5.578812466E-3,8.028318454E-4,-3.816886961E-2,3.858277200E-2
2.698856042E0,-5.664783666E-3,-3.004107540E-3,-1.556704223E-2,1.683589142E-2
2.708834042E0,-8.159593013E-3,-2.824451840E-3,-1.526883423E-2,1.754120250E-2
2.718812042E0,4.976057037E-3,-8.776286971E-3,-1.916015625E-2,2.165400527E-2
2.728791042E0,1.403809355E-2,2.834520014E-3,-1.931042969E-2,2.404153217E-2
2.738769042E0,-1.974627567E-2,5.659191124E-4,-2.125638306E-2,2.901843359E-2
2.748748042E0,-1.364489000E-2,-1.018923009E-3,-1.137809694E-2,1.779557015E-2
2.758726042E0,-1.431790109E-3,1.177670346E-2,-2.978922486E-2,3.206460175E-2
2.768704042E0,4.272804873E-3,1.746989066E-2,-2.589556396E-2,3.152830750E-2
2.778683042E0,-4.033089587E-3,1.891558732E-2,-1.317260742E-2,2.340048806E-2
2.788661042E0,-2.853412002E-2,3.545349576E-3,-1.766268432E-2,3.374516153E-2
2.798639042E0,-5.545132732E-3,5.639475044E-3,-2.634463012E-2,2.750621224E-2
2.808618042E0,-5.012537038E-4,-6.496704267E-3,-2.544532835E-2,2.626638835E-2
2.818596042E0,-6.878423524E-3,-2.030619225E-3,-2.903668821E-2,2.990928596E-2
2.828575042E0,-1.946742286E-2,1.682327997E-2,-3.592236936E-2,4.418619606E-2
2.838553042E0,-1.171003949E-2,1.296516831E-2,-2.065353513E-2,2.705160120E-2
2.848531042E0,-1.871377273E-2,2.725725258E-3,-4.400556028E-2,4.789701664E-2
2.858510042E0,-1.264613303E-2,-8.164001266E-3,-3.652229369E-2,3.950257629E-2
2.868488042E0,-1.283641308E-2,8.355342261E-3,-2.873964965E-2,3.256612822E-2
2.878467042E0,-2.426235897E-3,-1.279333326E-2,-1.362108886E-2,1.884383343E-2
2.888445042E0,-6.674088462E-3,9.122506091E-3,-1.017766356E-2,1.521014168E-2
2.898423042E0,1.253959379E-3,2.493453752E-3,-7.184473872E-3,7.707554123E-3
2.908402042E0,-1.904285562E-2,-1.251639451E-2,-2.290354371E-2,3.230886560E-2
2.918380042E0,-1.425295018E-2,-1.395081701E-3,-1.781354249E-2,2.285640255E-2
2.928359042E0,3.490073973E-3,3.623291133E-3,-2.814147949E-2,2.858761485E-2
2.938337042E0,-4.587734537E-3,2.350854781E-3,-2.873964965E-2,2.919830969E-2
2.948315042E0,-2.021853426E-2,-1.329292302E-2,-2.574645996E-2,3.533229586E-2
2.958294042E0,-1.048017475E-2,8.797464855E-3,-2.948926270E-2,3.250916894E-2
2.968272042E0,-2.536978964E-3,1.353190969E-2,-2.350346804E-2,2.723897670E-2
2.978250042E0,6.549099659E-3,-9.426077083E-4,-2.335494876E-2,2.427411888E-2
2.988229042E0,-6.358778500E-4,-1.276468190E-2,-3.203630984E-2,3.449154379E-2
2.998207042E0,-7.482115421E-3,9.583129641E-4,-2.859288454E-2,2.957115928E-2
3.008186042E0,3.209335674E-3,1.243972289E-2,-2.125813723E-2,2.483857765E-2
3.018164042E0,-4.370551589E-3,1.552092232E-2,-1.766502321E-2,2.391764612E-2
3.028142042E0,6.940430277E-3,3.417825457E-3,-1.751474977E-2,1.914725992E-2
3.038121042E0,3.742565196E-3,-2.194989938E-3,-9.282454848E-3,1.024640147E-2
3.048099042E0,-3.896075164E-3,5.660917880E-3,-2.545000613E-2,2.636149094E-2
3.058078042E0,-9.016243225E-3,1.074915580E-2,-2.589731812E-2,2.945349009E-2
3.068056042E0,-1.839368792E-2,4.684752636E-3,-3.113583863E-2,3.646525894E-2
3.078034042E0,-2.492811929E-3,1.946876133E-3,-3.772272706E-2,3.785509972E-2
3.088013042E0,-6.078547264E-3,-6.705166642E-3,-2.604642212E-2,2.757397508E-2
3.097991042E0,-7.707310882E-3,-2.928696731E-3,-2.844144166E-2,2.961242153E-2
3.107970042E0,-1.589924973E-2,3.701927047E-4,-2.559735596E-2,3.013549099E-2
3.117948042E0,-4.849191871E-3,1.070387643E-2,-3.577618897E-2,3.765665054E-2
3.127926042E0,-3.060752442E-3,-6.649563275E-4,-2.439984620E-2,2.460005827E-2
3.137905042E0,1.136541351E-2,-3.566235099E-3,-2.829233766E-2,3.069767136E-2
3.147883042E0,-1.585911065E-2,-2.504161466E-3,-3.098790407E-2,3.490032112E-2
3.157861042E0,-9.103563168E-3,5.231869295E-3,-3.427988648E-2,3.585188888E-2
3.167840042E0,-2.868202032E-3,-7.588772289E-4,-2.395136476E-2,2.413442254E-2
3.177818042E0,6.648312748E-3,2.181175891E-3,-1.137692750E-2,1.335634942E-2
3.187797042E0,-3.904276112E-3,-1.105315620E-3,-2.110669434E-2,2.149319987E-2
3.197775042E0,-1.152590930E-2,-1.698707510E-4,-2.035766602E-2,2.339465765E-2
3.207753042E0,-1.074038498E-2,9.540097788E-5,-2.993832886E-2,3.180673680E-2
3.217732042E0,3.537873819E-4,8.745817496E-3,-1.122723877E-2,1.423605913E-2
3.227710042E0,-4.843296690E-3,7.962628640E-4,-1.706509888E-2,1.775694673E-2
3.237689042E0,6.502743345E-4,7.488565631E-3,-2.394961059E-2,2.510150034E-2
3.247667042E0,-3.581105756E-2,1.298404385E-2,-2.394844115E-2,4.499494496E-2
3.257645042E0,-2.573473812E-2,-8.253710344E-5,-3.113291502E-2,4.039235022E-2
3.267624042E0,-2.290923104E-2,1.042799748E-2,-2.379758298E-2,3.463958652E-2
3.277602042E0,-2.656394639E-2,1.503827121E-2,-2.514478147E-2,3.954810848E-2
3.287581042E0,-2.805484934E-2,9.532962358E-3,-2.245038450E-2,3.717488005E-2
3.297559042E0,-1.220026571E-2,6.401632195E-3,-2.574295163E-2,2.919806392E-2
3.307537042E0,-1.410529885E-2,6.033549970E-3,-2.364672482E-2,2.818742229E-2
3.317516042E0,2.570515943E-3,-7.917157402E-3,-1.391695797E-2,1.621636990E-2
3.327494042E0,3.723770737E-3,3.848564252E-4,-4.729578853E-2,4.744371608E-2
3.337472042E0,1.691408312E-2,-1.361787289E-2,-3.307419062E-2,3.956557538E-2
3.347451042E0,7.989298567E-3,-1.479927541E-2,-2.454193354E-2,2.975153687E-2
3.357429042E0,-1.943890855E-2,3.633898348E-3,-2.409111321E-2,3.116822290E-2
3.367408042E0,-6.283199812E-3,2.336011075E-2,-3.546628654E-2,4.293053523E-2
3.377386042E0,-3.020356861E-2,1.179194276E-2,-3.441729605E-2,4.728483624E-2
3.387364042E0,-3.036314735E-2,1.604951975E-2,-2.004483998E-2,3.976560588E-2
3.397343042E0,-2.835834724E-2,1.409592845E-2,-2.333623767E-2,3.933790851E-2
3.407321042E0,-1.456634723E-2,4.299201854E-3,-1.166110218E-2,1.914792188E-2
3.417300042E0,1.002850132E-2,8.776250426E-3,-3.486051500E-2,3.732089115E-2
3.427278042E0,2.277151541E-2,-7.128852233E-3,-3.246257186E-2,4.028872075E-2
3.437256042E0,5.819050346E-2,-2.319339202E-2,-2.392914534E-2,6.705723020E-2
3.447235042E0,1.806908180E-2,-2.099099256E-2,-6.344404399E-2,6.922615260E-2
3.457213042E0,-1.778192755E-2,1.359032703E-2,3.315371275E-3,2.262488945E-2
3.467192042E0,-9.751424384E-3,3.334657037E-2,-3.186089337E-2,4.714022231E-2
3.477170042E0,-4.455663295E-2,1.044132731E-2,-2.692116559E-2,5.309485862E-2
3.487148042E0,-4.862301512E-2,2.444124266E-2,-4.189003766E-2,6.867566670E-2
3.497127042E0,-7.190093138E-2,3.697167962E-2,-2.916766584E-2,8.594999568E-2
3.507105042E0,-2.761521866E-2,3.373899163E-2,-9.409339428E-3,4.460331295E-2
3.517084042E0,2.711155184E-3,-3.514651693E-3,-3.231171370E-2,3.261518022E-2
3.527062042E0,1.820294649E-2,-1.454778118E-2,-1.704287946E-2,2.886944645E-2
3.537040042E0,2.584444194E-2,-5.773029104E-4,-5.221797466E-2,5.826650269E-2
3.547019042E0,5.479117895E-2,-9.808832165E-3,1.873330951E-2,5.873008909E-2
3.556997042E0,2.979090137E-2,-1.627471978E-2,-3.560194194E-2,4.919209874E-2
3.566975042E0,2.141327117E-2,-4.109313525E-3,-2.946411967E-2,3.665445386E-2
3.576954042E0,-3.217168659E-2,6.953691579E-3,-2.976349711E-2,4.437608596E-2
3.586932042E0,-4.030510417E-2,3.132628427E-2,-1.659147441E-2,5.367601449E-2
3.596911042E0,-4.014421895E-2,2.713753997E-2,-3.036283672E-2,5.718309404E-2
3.606889083E0,-4.205241209E-2,1.235994495E-2,-7.609566450E-3,4.448684191E-2
3.616867083E0,-2.267479424E-2,2.165079603E-2,-3.170945048E-2,4.459139505E-2
3.626846083E0,-4.113414570E-3,2.128712662E-2,-2.362567484E-2,3.206609504E-2
3.636824083E0,2.159725746E-2,-1.270691324E-2,-2.766727030E-2,3.732807281E-2
3.646803083E0,3.224232826E-2,-1.562683915E-2,-1.239843607E-2,3.791420644E-2
3.656781083E0,4.771386901E-2,-1.597130410E-2,-3.724676371E-2,6.260205474E-2
3.666759083E0,1.209583238E-2,-1.587645130E-2,-1.314746439E-2,2.390034910E-2
3.676738083E0,1.585072812E-3,6.633529114E-3,-3.664800882E-2,3.727724125E-2
3.686716083E0,-1.447094511E-2,1.291761400E-2,-5.056847513E-2,5.416127473E-2
3.696695083E0,-4.094469363E-2,2.330038693E-2,-2.392388284E-2,5.283680666E-2
3.706673083E0,-4.915333474E-2,1.866478745E-2,-4.323197365E-2,6.806928934E-2
3.716651083E0,-5.497785588E-2,2.817749469E-2,-3.125804543E-2,6.923583789E-2
3.726630083E0,-2.231155424E-2,1.120646289E-2,-3.110894144E-2,3.988930308E-2
3.736608083E0,1.307333038E-2,-1.305664983E-3,-4.293376565E-2,4.489905301E-2
3.746586083E0,1.734480021E-2,-1.331601952E-2,-2.946236551E-2,3.669045450E-2
3.756565083E0,1.129127492E-2,-1.161604207E-2,-3.230586648E-2,3.613992711E-2
3.766543083E0,1.039368506E-2,-5.733733987E-3,-7.307265401E-3,1.393917222E-2
3.776522083E0,2.067283322E-2,-9.478409663E-3,-3.529847145E-2,4.199033663E-2
3.786500083E0,-1.425803566E-3,-1.840602988E-3,-3.709473610E-2,3.716773038E-2
3.796478083E0,-1.751608937E-2,-1.016054219E-3,-3.604749978E-2,4.009074698E-2
3.806457083E0,-4.035872497E-2,2.210991209E-2,-1.838656962E-2,4.955543195E-2
3.816435083E0,-3.270625229E-2,2.281738864E-2,-2.153003275E-2,4.531969190E-2
3.826414083E0,-3.228944631E-2,2.485845977E-2,-2.392446756E-2,4.725390474E-2
3.836392083E0,-1.814400039E-2,1.980602690E-2,-3.739586771E-2,4.604274507E-2
3.846370083E0,-7.976625413E-3,9.821431087E-3,-4.353310525E-2,4.533451571E-2
3.856349083E0,4.348953436E-3,-7.934808685E-3,-1.299602151E-2,1.583575574E-2
3.866327083E0,2.257165027E-2,-2.236252095E-2,-2.467232645E-2,4.022791855E-2
3.876306083E0,1.251936266E-2,-2.674703733E-2,-2.991201639E-2,4.203411914E-2
3.886284083E0,1.520719522E-2,-3.593525151E-3,-2.691882670E-2,3.112547896E-2
3.896262083E0,-4.560166971E-3,-4.129504692E-4,-2.826660991E-2,2.863506393E-2
3.906241083E0,-3.118143549E-2,1.121441144E-2,-2.587100565E-2,4.203990814E-2
3.916219083E0,-2.817596436E-2,2.277584600E-2,-1.374563456E-2,3.875005288E-2
3.926197083E0,-4.291903798E-2,5.421054130E-3,-4.143804789E-2,5.990445277E-2
3.936176083E0,-3.173218839E-2,1.945304694E-2,-2.257785380E-2,4.353288753E-2
3.946154083E0,-1.946897375E-2,1.656061208E-2,-2.347657084E-2,3.470510322E-2
3.956133083E0,1.088644203E-4,-1.340903593E-3,-3.859571636E-2,3.861915580E-2
3.966111083E0,1.627878542E-2,-1.087948476E-2,-2.841512918E-2,3.450770363E-2
3.976089083E0,1.951757187E-2,2.048124326E-3,-3.080956399E-2,3.652888800E-2
3.986068083E0,1.075506241E-2,1.868678760E-3,-3.724676371E-2,3.881346074E-2
3.996046083E0,9.587216981E-3,3.380942317E-3,-2.886361063E-2,3.060152805E-2
4.006025083E0,-9.572743981E-3,1.461713464E-2,-3.305606425E-2,3.738985739E-2
4.016003083E0,-2.749181729E-2,1.207151276E-2,-2.886302590E-2,4.164847779E-2
4.025981083E0,-3.812955166E-2,2.138202511E-2,-1.584010720E-2,4.649691069E-2
4.035960083E0,-3.736815053E-2,1.841224255E-2,-2.407240212E-2,4.811309483E-2
4.045938083E0,-2.331692358E-2,1.701224553E-2,-2.751465797E-2,3.987670783E-2
4.055917083E0,-2.110996513E-2,5.248661768E-3,-3.439975441E-2,4.070039534E-2
4.065895083E0,1.137114766E-2,-4.897682648E-4,-3.574753761E-2,3.751572094E-2
4.075873083E0,2.806724498E-2,-1.320385348E-2,-1.808426857E-2,3.590477346E-2
4.085852083E0,2.244805475E-2,-1.195742810E-2,-1.733699441E-2,3.078094579E-2
4.095830083E0,2.677909195E-2,-7.652972890E-3,-3.724734843E-2,4.650863065E-2
4.105808083E0,-1.068521102E-2,6.769166244E-3,-4.413186014E-2,4.590878375E-2
4.115787083E0,-1.434423755E-2,3.008319363E-3,-2.668084502E-3,1.489717460E-2
4.125765083E0,-2.015348170E-2,8.162201419E-3,-2.946178079E-2,3.661667494E-2
4.135744083E0,-4.713834768E-2,1.612555183E-2,-3.200648904E-2,5.921547588E-2
4.145722083E0,-2.872259680E-2,1.049477451E-2,-1.673765481E-2,3.486082253E-2
4.155700083E0,-1.593044326E-2,9.016845077E-3,-3.185621560E-2,3.674099876E-2
4.165679083E0,-1.833475095E-2,6.641130494E-3,-2.152652442E-2,2.904580797E-2
4.175657083E0,-1.676746076E-2,-9.328318946E-4,-3.170477271E-2,3.587771632E-2
4.185636083E0,1.050423627E-2,-1.129418939E-2,-3.275317848E-2,3.620315448E-2
4.195614083E0,3.196848899E-2,-3.850857457E-3,-5.430660009E-2,6.313493649E-2
4.205592083E0,2.668516420E-2,-1.789494669E-2,4.897510886E-2,5.857378589E-2
4.215571083E0,1.045306057E-2,9.629240418E-3,-9.292804420E-2,9.400856421E-2
4.225549083E0,-2.790762741E-2,1.280334662E-2,-6.707341075E-3,3.142848671E-2
4.235528083E0,-3.496033337E-2,1.276674670E-2,-1.915547848E-3,3.726773476E-2
4.245506083E0,-1.713706988E-2,1.895427031E-2,-1.778079808E-2,3.113037596E-2
4.255484083E0,-4.834393848E-2,1.825553717E-2,-5.116079807E-2,7.271745516E-2
4.265463083E0,-2.151485740E-2,2.281839363E-3,-1.074308932E-2,2.415594850E-2
4.275441083E0,-2.160987009E-2,1.049359594E-2,-3.095282078E-2,3.918136234E-2
4.285420083E0,7.396208175E-3,-1.220533177E-3,-4.172923923E-2,4.239720513E-2
4.295398083E0,2.775278583E-2,-5.457142415E-3,-4.157370329E-4,2.828728269E-2
4.305376083E0,7.411164256E-3,-6.233095340E-3,-3.798643649E-2,3.920135444E-2
4.315355083E0,1.113211074E-2,6.287830761E-3,-4.891371310E-2,5.055701766E-2
4.325333083E0,-2.841190636E-3,3.162676720E-3,6.169981956E-3,7.492901014E-3
4.335311083E0,-5.527042908E-3,-1.946355365E-3,-4.352667332E-2,4.391933279E-2
4.345290083E0,-2.528479031E-2,1.957054856E-2,-5.056087375E-2,5.982247860E-2
4.355268083E0,-1.755533538E-2,1.261330297E-2,3.595862210E-2,4.195602121E-2
4.365247083E0,-3.612306133E-2,1.639250463E-2,-5.250682712E-2,6.580696515E-2
4.375225083E0,-1.220118619E-3,1.158360830E-2,-4.247768283E-2,4.404568321E-2
4.385203083E0,-9.028211745E-3,7.653082525E-3,-2.661067843E-3,1.213093407E-2
4.395182083E0,1.404067455E-2,6.525803301E-3,-9.097098112E-3,1.795783519E-2
4.405160083E0,1.995408023E-2,2.865163079E-3,-5.100877047E-2,5.484769039E-2
4.415139083E0,1.984663307E-2,-8.233034955E-3,1.305741727E-2,2.514294841E-2
4.425117083E0,5.723155324E-3,2.597207112E-2,-3.574169040E-2,4.455077348E-2
4.435095083E0,-7.346172226E-3,1.604799399E-2,-3.065285861E-2,3.537092166E-2
4.445074083E0,-2.267643877E-2,1.628065836E-2,-3.619075656E-2,4.570614370E-2
4.455052083E0,-2.089817258E-2,4.571170472E-3,-5.669635713E-2,6.059790532E-2
4.465031083E0,-3.884046801E-2,2.319624254E-2,3.431146145E-2,5.677960910E-2
4.475009083E0,-2.450287825E-2,3.427120702E-2,-6.672667086E-2,7.891359374E-2
4.484987083E0,-2.761174459E-2,-1.303853259E-2,-8.351578116E-3,3.165692071E-2
4.494966083E0,9.783062161E-3,-5.693031885E-3,-6.119111180E-2,6.222918191E-2
4.504944083E0,2.342740855E-2,3.742661127E-2,-1.104714453E-2,4.551520740E-2
4.514922083E0,1.059532264E-2,5.090914853E-4,-3.413604498E-3,1.114328191E-2
4.524901083E0,7.825914571E-3,-2.133059702E-2,-6.927488744E-2,7.290575655E-2
4.534879083E0,-1.596280166E-2,-2.317458043E-2,1.376434565E-3,2.817386709E-2
4.544858083E0,4.617951623E-3,2.469404337E-2,-4.023586035E-2,4.743464676E-2
4.554836083E0,-2.087680283E-2,1.629386941E-2,2.865135670E-5,2.648267165E-2
4.564814083E0,-4.329431045E-2,-4.882251481E-3,-2.915947974E-2,5.242622393E-2
4.574793083E0,-2.697304364E-2,-2.489287611E-3,-5.700158179E-2,6.311039504E-2
4.584771083E0,-3.951988250E-2,3.399879986E-2,-2.713108063E-4,5.213264922E-2
4.594750083E0,2.661545214E-4,2.752229590E-3,2.038573265E-2,2.057240146E-2
4.604728208E0,2.246119956E-3,-3.980574282E-3,-6.239037573E-2,6.255756557E-2
4.614706208E0,-1.726217974E-3,1.205146777E-2,-3.050667822E-2,3.284623449E-2
4.624685208E0,3.848161114E-3,1.988875587E-4,-2.392095923E-2,2.422932502E-2
4.634663208E0,7.842680777E-3,-2.063772024E-2,-4.891897559E-2,5.367019015E-2
4.644642208E0,1.716648298E-2,-8.167427368E-3,-2.601777077E-2,3.222296391E-2
4.654620208E0,2.190648381E-2,9.799851207E-3,-8.503605723E-3,2.546060539E-2
4.664598208E0,1.095743203E-2,3.168140212E-3,-2.392212868E-2,2.650227669E-2
4.674577208E0,-3.471297787E-3,-2.299287820E-2,-3.799228370E-2,4.454364127E-2
4.684555208E0,-1.614045080E-2,9.567744154E-3,1.974020004E-3,1.886670706E-2
4.694534208E0,-1.541387031E-2,1.527691984E-2,-4.966683447E-2,5.420116349E-2
4.704512208E0,-1.533453775E-2,3.302646272E-2,-2.616453588E-2,4.483835663E-2
4.714490208E0,-3.115539482E-2,1.201029972E-2,1.525538564E-3,3.342503843E-2
4.724469208E0,-4.125284647E-2,-2.897669943E-3,-6.269150734E-2,7.510272249E-2
4.734447208E0,-4.004033037E-2,2.226155598E-2,-3.715905547E-3,4.596316878E-2
4.744425208E0,2.851047306E-2,2.604359902E-2,-5.062519312E-3,3.894541341E-2
4.754404208E0,1.810374140E-2,-1.097778194E-2,-4.817345560E-2,5.262070859E-2
4.764382208E0,-8.852716475E-3,-2.439908789E-2,-2.452205300E-2,3.570738246E-2
4.774361208E0,2.841686051E-2,4.037146093E-3,-2.871275246E-2,4.059850568E-2
4.784339208E0,4.196712040E-2,4.731219728E-3,-3.499909401E-2,5.485034381E-2
4.794317208E0,-1.141454268E-2,-9.161938252E-3,-6.855860353E-3,1.616278807E-2
4.804296208E0,-5.500518705E-2,1.027162101E-2,-5.251092017E-2,7.673638991E-2
4.814274208E0,-4.494080872E-2,1.490327362E-2,-3.963944435E-2,6.175005588E-2
4.824253208E0,-2.437152375E-2,4.108192504E-2,-2.667499781E-3,4.784152266E-2
4.834231208E0,-2.154351333E-2,1.217100679E-2,-2.497170389E-2,3.515454974E-2
4.844209208E0,-2.625119801E-2,-5.651909513E-3,-7.002800882E-2,7.499994332E-2
4.854188208E0,8.538408077E-3,-5.560427997E-3,3.020671606E-3,1.062766338E-2
4.864166208E0,2.973525232E-2,5.213130796E-3,-2.781637430E-2,4.105012354E-2
4.874145208E0,3.595461127E-2,-1.297390259E-2,-6.613727152E-2,7.638844746E-2
4.884123208E0,-9.314580273E-4,2.635157369E-3,-4.892248392E-2,4.900225609E-2
4.894101208E0,-6.354322282E-3,1.134359837E-4,7.352288961E-2,7.379705669E-2
4.904080208E0,1.523891522E-2,3.451406747E-2,-4.293259621E-2,5.715464292E-2
4.914058208E0,-2.376630952E-2,-1.990584070E-3,-2.601777077E-2,3.529481957E-2
4.924037208E0,-4.021116957E-2,-2.102147117E-3,-1.808251441E-2,4.413994232E-2
4.934015208E0,-2.644657496E-2,2.642759663E-2,-4.637309790E-2,5.956763718E-2
4.943993208E0,1.689097063E-2,1.791818024E-2,2.424255610E-3,2.474354637E-2
4.953972208E0,-1.998210575E-3,-7.828782219E-4,-2.796547830E-2,2.804770437E-2
4.963950208E0,-1.104708286E-2,-2.825780254E-2,-5.685481668E-2,6.444386412E-2
4.973928208E0,1.913730871E-2,2.231959873E-2,4.759633541E-4,2.940455089E-2
4.983907208E0,3.275623228E-2,1.209407022E-2,-1.251304150E-4,3.491780270E-2
4.993885208E0,2.290803876E-2,-1.817403247E-2,-9.128205299E-2,9.585137920E-2
5.003864208E0,-9.553114695E-3,-2.025708477E-2,-1.269722879E-2,2.574550646E-2
5.013842208E0,-2.914356206E-2,4.535502456E-3,-8.207151890E-3,3.061495279E-2
5.023820208E0,9.109163705E-3,2.908269849E-2,-3.499967873E-2,4.640859539E-2
5.033799208E0,-2.025326581E-2,-4.016452432E-3,-2.781462014E-2,3.464072400E-2
5.043777208E0,-3.412495811E-2,-6.025811546E-3,-3.066104472E-2,4.627010735E-2
5.053756208E0,-4.004773075E-2,1.721051183E-2,-6.583789408E-2,7.895980467E-2
5.063734208E0,-3.417626743E-3,1.210441248E-2,2.567512393E-3,1.283702045E-2
5.073712208E0,2.780658022E-2,-3.816799253E-2,8.121782541E-3,4.791622803E-2
5.083691208E0,2.748644881E-1,4.475002960E-2,-1.011112225E-1,2.962710436E-1
5.093669208E0,-1.790498928E-1,-6.691789309E-2,6.580456495E-2,2.021561508E-1
5.103648208E0,3.614060755E-2,-3.106662221E-2,7.869767547E-2,9.200327523E-2
5.113626208E0,9.027598472E-3,6.705005843E-2,-1.991006166E-1,2.102813910E-1
5.123604208E0,-5.156932659E-2,4.902513910E-2,-1.914612293E-2,7.368469130E-2
5.133583208E0,-2.136827958E-2,5.283544064E-2,-5.876802564E-2,8.186493753E-2
5.143561208E0,-1.145706724E-1,2.597584440E-2,-6.394281149E-2,1.337530060E-1
5.153539208E0,-1.938373459E-2,-5.655143755E-3,1.320921099E-1,1.336264769E-1
5.163518208E0,1.441258259E-2,1.765027726E-2,2.657150209E-2,3.500427899E-2
5.173496208E0,1.287628241E-1,5.297433942E-2,-1.665468282E-1,2.170806105E-1
5.183475208E0,2.371286048E-1,7.821218298E-2,-9.444656610E-2,2.669593127E-1
5.193453208E0,3.100783942E-1,1.226646441E-1,-1.858771384E-1,3.817663370E-1
5.203431208E0,1.436360485E-1,3.270740209E-1,-3.405009091E-1,4.935074454E-1
5.213410208E0,1.384352279E0,5.285632616E-1,9.460783231E-1,1.758088322E0
5.223388208E0,1.432147274E0,1.321612240E0,3.651258731E-1,1.982680416E0
5.233367208E0,2.909175144E0,2.488592231E0,7.085310942E-1,3.893379974E0
5.243345208E0,-2.729685504E0,2.235781138E0,7.187291645E0,8.006688544E0
5.253323208E0,-3.428765451E0,5.962054237E-1,1.432750268E0,3.763597582E0
5.263302208E0,1.348648011E0,-1.947813807E0,-2.018728985E0,3.112570770E0
5.273280208E0,-6.234193155E-1,-1.554692635E0,-1.560662788E0,2.289408039E0
5.283259208E0,5.803601271E-1,-4.779952615E-2,-1.660444354E0,1.759596012E0
5.293237208E0,-3.437575158E-1,-9.732339621E-2,-3.385245502E-2,3.588691431E-1
5.303215208E0,-5.020381352E-1,-1.015968338E-1,-4.374009669E-2,5.140791786E-1
5.313194208E0,-1.358759163E0,-1.825038943E0,-3.203630984E-2,2.275526297E0
5.323172208E0,-2.838110716E0,-3.600313110E0,-2.872970939E-2,4.584534036E0
5.333151208E0,-2.156152001E0,-1.912332318E0,2.875418583E0,4.071122495E0
5.343129208E0,-4.381035098E-1,8.811050130E-1,4.102971343E0,4.219319207E0
5.353107208E0,-1.137138726E0,6.793918604E-1,5.828426210E0,5.977056957E0
5.363086208E0,-1.952280495E0,-3.743534372E-1,6.642063344E0,6.933148282E0
5.373064208E0,-2.076481349E0,-9.508983292E-1,6.286804647E0,6.688788762E0
5.383042208E0,-1.803939704E0,-1.415255106E0,5.253763610E0,5.732292520E0
5.393021208E0,-1.212801623E0,-1.700754035E0,4.037518780E0,4.545878349E0
5.402999208E0,-5.039834308E-1,-1.583893337E0,2.841922808E0,3.292300510E0
5.412978208E0,9.948299222E-2,-1.286791048E0,1.951167916E0,2.339398278E0
5.422956208E0,1.965901145E-1,-1.298880605E0,1.525148554E0,2.012912470E0
5.432934208E0,-1.745350018E-2,-1.255072388E0,1.168149726E0,1.714667637E0
5.442913208E0,-4.877234204E-1,-1.539507562E0,5.646258545E-1,1.710777608E0
5.452891208E0,-8.793232933E-1,-1.965083997E0,-4.809498596E-1,2.205918706E0
5.462870208E0,-1.081332900E0,-1.709166278E0,-1.482869092E0,2.507873791E0
5.472848208E0,-1.245904246E0,-1.256469580E0,-2.079697902E0,2.730592712E0
5.482826208E0,-1.310313958E0,-7.755977806E-1,-2.221679993E0,2.693387565E0
5.492805208E0,-1.595515702E0,-3.710616741E-1,-2.152756523E0,2.705128050E0
5.502783208E0,-1.985803898E0,-2.271880093E-1,-1.995868126E0,2.824627602E0
5.512762208E0,-2.070145306E0,-3.869029507E-1,-2.013743649E0,2.913822054E0
5.522740208E0,-1.839165085E0,-6.129764807E-1,-2.305037899E0,3.011887795E0
5.532718208E0,-1.454222413E0,-6.119856700E-1,-2.599569168E0,3.040896109E0
5.542697208E0,-9.282612723E-1,-4.967937675E-1,-2.725714660E0,2.921984504E0
5.552675208E0,1.442607504E-1,-7.632639563E-1,-2.457708115E0,2.577539953E0
5.562654208E0,7.705975342E-1,-6.040246859E-1,-2.438674843E0,2.627889148E0
5.572632208E0,-3.366242051E-2,-7.351031810E-1,-3.122114950E0,3.207664510E0
5.582610208E0,-1.075461418E0,-7.241770738E-1,-3.958855019E0,4.165763166E0
5.592589208E0,-1.931715984E0,-4.176990661E-1,-4.815468603E0,5.205260514E0
5.602567208E0,-2.379564756E0,-1.387921420E-1,-5.055316127E0,5.589079784E0
5.612544917E0,-1.975689384E0,1.448402095E-1,-4.643604317E0,5.048503569E0
5.622523917E0,-9.693812317E-1,3.641825710E-1,-3.870814662E0,4.006935870E0
5.632501917E0,4.767819643E-3,5.136194229E-1,-3.126882185E0,3.168788387E0
5.642480917E0,5.393933648E-1,5.345062619E-1,-2.922772844E0,3.019808478E0
5.652458917E0,6.924939358E-1,5.823727387E-1,-2.826928208E0,2.968202984E0
5.662436917E0,7.040334159E-1,6.031041880E-1,-1.992851547E0,2.197920608E0
5.672415917E0,1.353912259E0,1.129644423E0,6.739705414E-1,1.887699981E0
5.682393917E0,1.958322569E0,1.546389442E0,3.240174912E0,4.089630919E0
5.692372917E0,1.729311106E0,8.304700989E-1,4.450757298E0,4.846590349E0
5.702350917E0,1.067824370E0,-5.819965435E-1,2.954333775E0,3.194848496E0
5.712328917E0,5.688873053E-1,-1.625839216E0,7.079206449E-1,1.862293629E0
5.722307917E0,2.521196598E-1,-2.076360312E0,-7.075446689E-1,2.208043461E0
5.732285917E0,-2.007629800E-1,-1.892177112E0,-1.693270038E0,2.547116687E0
5.742264917E0,-6.716848648E-1,-1.370973558E0,-1.640303620E0,2.240831323E0
5.752242917E0,-9.456544000E-1,-5.756945606E-1,-9.435815620E-1,1.454658941E0
5.762220917E0,-8.059848833E-1,6.490804061E-2,1.818817359E-1,8.287977146E-1
5.772199917E0,-5.436741114E-3,6.222678526E-1,1.858526385E0,1.959940602E0
5.782177917E0,5.157524872E-1,8.228122929E-1,3.222218698E0,3.365369821E0
5.792155917E0,3.077939236E-1,5.920465185E-1,3.786995410E0,3.845333590E0
5.802134917E0,1.491010755E-1,-1.978430267E-1,4.012924222E0,4.020563866E0
5.812112917E0,-5.764477551E-2,-1.266890049E0,3.955401653E0,4.153737540E0
5.822091917E0,-4.912988466E-1,-2.132930223E0,3.569410576E0,4.187058365E0
5.832069917E0,-9.167036659E-1,-2.562559217E0,2.531549678E0,3.716961006E0
5.842047917E0,-1.185149921E0,-2.590133809E0,1.123861746E0,3.062097109E0
5.852026917E0,-1.260446271E0,-2.776196596E0,2.531973016E-1,3.059428250E0
5.862004917E0,-4.908737540E-1,-1.400211682E0,4.893780363E-1,1.562383007E0
5.871983917E0,5.431724203E-1,4.500397235E-2,-4.725778162E-2,5.470785443E-1
5.881961917E0,1.994151968E-1,1.078513080E-1,-1.678255557E0,1.693499348E0
5.891939917E0,-2.514051300E-1,-4.543573076E-1,-3.158576433E0,3.200976443E0
5.901918917E0,-1.567580044E-1,-1.619566177E0,-4.141762941E0,4.449917744E0
5.911896917E0,-2.993189692E-3,-2.023830388E0,-4.863623933E0,5.267896749E0
5.921875917E0,1.381948489E-1,-1.595459861E0,-4.721552964E0,4.985744917E0
5.931853917E0,3.923423231E-1,-8.498170736E-1,-4.056979483E0,4.163556663E0
5.941831917E0,7.526407349E-1,-2.163206667E-2,-2.942581456E0,3.037387306E0
5.951810917E0,1.277716023E0,7.134155658E-1,-1.481068735E0,2.082086598E0
5.961788917E0,1.355945336E0,1.110470452E0,-1.008007354E-1,1.755532161E0
5.971767917E0,1.182644974E0,1.068568428E0,5.924720496E-1,1.700444280E0
5.981745917E0,5.756653976E-1,9.960840037E-1,1.308219777E0,1.742128864E0
5.991723917E0,-2.834578121E-1,2.533265251E-1,1.049353015E0,1.116093370E0
6.001702917E0,-4.530311590E-1,-4.142673352E-1,3.225131196E-1,6.934474518E-1
6.011680917E0,-6.760790473E-1,-6.019530174E-1,-1.630162793E-1,9.197850949E-1
6.021659917E0,-8.797024852E-1,-1.252551361E0,-4.229934275E-2,1.531192544E0
6.031637917E0,-1.477473866E0,-8.695987889E-1,9.193892920E-1,1.945355430E0
6.041615917E0,-1.814143680E0,8.881756854E-1,1.909322317E0,2.779475679E0
6.051594917E0,-1.650338611E0,1.641974169E0,2.051145363E0,3.102723643E0
6.061572917E0,-7.961750096E-1,9.823810539E-1,1.568519107E0,2.014750449E0
6.071550917E0,-8.520738065E-2,1.511595878E-1,9.565395766E-1,9.721509556E-1
6.081529917E0,9.874175531E-1,-7.707478076E-2,6.425785947E-1,1.180610518E0
6.091507917E0,2.019427727E0,3.276171541E-1,7.067833614E-1,2.164477781E0
6.101486917E0,2.314495770E0,6.062404883E-1,9.936161864E-1,2.590693213E0
6.111464917E0,1.647447748E0,2.373978326E-1,1.584587256E0,2.298120663E0
6.121442917E0,1.231622422E0,-6.648143864E-1,2.402330890E0,2.780299563E0
6.131421917E0,1.898605833E0,-9.593754762E-1,3.683160555E0,4.253325415E0
6.141399917E0,2.814636484E0,-1.283589258E0,5.551189250E0,6.354957279E0
6.151378917E0,3.257762752E0,-1.735465008E0,9.376120226E0,1.007653152E1
6.161356917E0,1.988549166E0,-2.614987399E0,8.816882581E0,9.409033177E0
6.171334917E0,1.392499790E0,-3.065576176E0,8.647560080E0,9.279930403E0
6.181313917E0,1.611721260E0,-3.068767586E0,8.092865721E0,8.803945450E0
6.191291917E0,2.452961638E0,-2.942479422E0,4.542272070E0,5.942006522E0
6.201270917E0,2.962209682E0,-3.223624661E0,2.695094545E0,5.141009314E0
6.211248917E0,3.501989548E0,-3.354728884E0,3.250067232E0,5.837899767E0
6.221226917E0,3.280911002E0,-3.265642168E0,4.542958533E0,6.485928461E0
6.231205917E0,1.854778905E0,-3.418786885E0,6.540404238E0,7.609546382E0
6.241183917E0,9.109890358E-1,-3.993864638E0,7.510543853E0,8.555064274E0
6.251162917E0,6.669904277E-1,-4.636667181E0,7.293816220E0,8.668524317E0
6.261140917E0,7.190237765E-1,-4.486481447E0,5.765872697E0,7.341035275E0
6.271118917E0,1.183343278E0,-4.271240761E0,3.816632023E0,5.848972469E0
6.281097917E0,1.153094023E0,-4.744553572E0,2.818962547E0,5.637992929E0
6.291075917E0,7.818849993E-1,-5.068694556E0,2.972409858E0,5.927750755E0
6.301053917E0,-8.026190798E-1,-5.001268559E0,2.849623591E0,5.811818923E0
6.311032917E0,-2.052271099E0,-4.454277906E0,2.768529727E0,5.631799462E0
6.321010917E0,-2.372591512E0,-4.344947838E0,3.265865824E0,5.930737035E0
6.330989917E0,-1.694642672E0,-4.917222435E0,3.007684355E0,6.008082509E0
6.340967917E0,-8.468960971E-4,-5.763209875E0,2.078003964E0,6.126392842E0
6.350945917E0,8.538088947E-1,-6.635376468E0,1.005906449E0,6.765283312E0
6.360924917E0,1.408649799E-1,-7.278698829E0,7.046783638E-1,7.314087173E0
6.370902917E0,-5.513308575E-2,-7.857271462E0,-7.272968557E-1,7.891052858E0
6.380881917E0,-1.435858502E0,-6.867226755E0,-2.201465730E0,7.353022800E0
6.390859917E0,-1.805649283E0,-5.731611521E0,-4.090178220E0,7.269202008E0
6.400837917E0,-1.598431416E0,-5.470582459E0,-6.110957823E0,8.356198953E0
6.410816917E0,-1.053271088E0,-5.509349499E0,-7.316936696E0,9.219537651E0
6.420794917E0,-1.072854949E0,-5.390215403E0,-7.910245482E0,9.632103790E0
6.430773917E0,-1.622837986E0,-5.124109789E0,-8.021383510E0,9.655708035E0
6.440751917E0,-2.448912733E0,-4.788818749E0,-8.064380425E0,9.693512791E0
6.450729917E0,-2.919881396E0,-4.554167646E0,-8.329727072E0,9.932295978E0
6.460708917E0,-2.832383953E0,-3.770053688E0,-9.179090109E0,1.031946699E1
6.470686917E0,-2.732246584E0,-2.813405353E0,-1.078508870E1,1.147599927E1
6.480664917E0,-2.640451146E0,-1.981082271E0,-1.262023967E1,1.304481194E1
6.490643917E0,-2.286190276E0,-1.414217518E0,-1.389230611E1,1.415001224E1
6.500621917E0,-1.858032296E0,-7.139649117E-1,-1.426698517E1,1.440516906E1
6.510600917E0,-1.737954167E0,8.891334593E-2,-1.389032391E1,1.399891026E1
6.520578917E0,-2.211040253E0,5.083119053E-1,-1.312978709E1,1.332435323E1
6.530556917E0,-2.716357360E0,3.915371615E-1,-1.218458936E1,1.248984053E1
6.540535917E0,-2.920546809E0,-2.943804109E-1,-1.109741655E1,1.147906388E1
6.550513917E0,-2.732418785E0,-8.154328144E-1,-9.955064743E0,1.035540232E1
6.560492917E0,-2.351813139E0,-9.616056043E-1,-8.676050638E0,9.040440534E0
6.570470917E0,-1.894364993E0,-1.193643587E0,-7.372924955E0,7.705415377E0
6.580448917E0,-1.258377965E0,-1.668721088E0,-5.587644301E0,5.965728288E0
6.590427917E0,-1.524004254E0,-2.143362971E0,-5.062687127E0,5.705032405E0
6.600405917E0,-1.780475704E0,-2.390745801E0,-4.436488922E0,5.344922186E0
6.610387333E0,-1.761208983E0,-2.942496672E0,-3.744634672E0,5.077640453E0
6.620365333E0,-1.348452568E0,-3.392956810E0,-2.845242857E0,4.628810556E0
6.630343333E0,-1.383848834E0,-3.210143028E0,-1.302603234E0,3.730526912E0
6.640322333E0,-1.532595568E0,-2.788251216E0,-4.225314975E-2,3.181977270E0
6.650300333E0,-1.383708209E0,-2.574737213E0,4.875250536E-1,2.963376587E0
6.660279333E0,-1.629372835E0,-2.797979228E0,3.562892684E-1,3.257374041E0
6.670257333E0,-1.463223325E0,-3.127031289E0,-9.769586384E-2,3.453822761E0
6.680235333E0,-8.280720095E-1,-3.325187581E0,-8.487414783E-1,3.530288628E0
6.690214333E0,6.361989900E-2,-3.478917897E0,-1.519795429E0,3.796932363E0
6.700192333E0,3.671402389E-1,-3.622938911E0,-2.200067514E0,4.254500603E0
6.710170333E0,6.220398112E-1,-3.985921195E0,-2.227124920E0,4.608100119E0
6.720149333E0,5.246686140E-1,-4.438918440E0,-9.107102698E-1,4.561651814E0
6.730127333E0,7.523246929E-2,-4.726540639E0,1.168604640E0,4.869443823E0
6.740106333E0,-1.247386515E-1,-4.496694778E0,2.799007169E0,5.298137861E0
6.750084333E0,4.279138595E-2,-4.198585598E0,3.772559220E0,5.644657225E0
6.760062333E0,1.987661558E-1,-4.019850833E0,3.855182716E0,5.573252415E0
6.770041333E0,3.824866949E-1,-3.771241842E0,3.297615620E0,5.024224306E0
6.780019333E0,6.753484377E-1,-3.567217285E0,2.574921985E0,4.450995158E0
6.789998333E0,6.342872429E-1,-3.529831358E0,2.145684900E0,4.179233591E0
6.799976333E0,5.958505708E-1,-3.481220530E0,1.975361940E0,4.046725723E0
6.809954333E0,7.579071759E-1,-3.260625841E0,1.666532475E0,3.739443094E0
6.819933333E0,9.312690800E-1,-3.034982959E0,1.401811481E0,3.470368725E0
6.829911333E0,1.063052165E0,-2.886197048E0,1.438951825E0,3.395702528E0
6.839890333E0,1.387514161E0,-2.629859207E0,2.024757464E0,3.597359835E0
6.849868333E0,1.556650136E0,-2.312849487E0,2.693697061E0,3.876652712E0
6.859846333E0,1.130357125E0,-2.022176795E0,3.059409994E0,3.837563776E0
6.869825333E0,1.130373936E0,-2.147901580E0,3.560822185E0,4.309371308E0
6.879803333E0,1.403503665E0,-1.999642942E0,4.315025881E0,4.958612990E0
6.889782333E0,9.348749118E-1,-1.776351371E0,4.921033065E0,5.314694885E0
6.899760333E0,3.578023817E-1,-1.815812767E0,5.200131193E0,5.519652433E0
6.909738333E0,5.384262353E-2,-1.840588443E0,5.205400119E0,5.521490311E0
6.919717333E0,1.227432892E-1,-1.893530888E0,5.087255958E0,5.429613091E0
6.929695333E0,9.789715424E-1,-1.649436093E0,5.600519870E0,5.919868877E0
6.939673333E0,1.981880124E0,-1.430190211E0,6.309367298E0,6.766196019E0
6.949652333E0,2.221290860E0,-1.897196069E0,6.592027550E0,7.210292174E0
6.959630333E0,2.140647232E0,-2.421142406E0,6.675817566E0,7.416929371E0
6.969609333E0,1.671788098E0,-2.558111240E0,6.763523462E0,7.421863525E0
6.979587333E0,8.798118281E-1,-2.499947524E0,6.711677370E0,7.215983619E0
6.989565333E0,3.351891522E-1,-2.536354043E0,6.717380744E0,7.188090683E0
6.999544333E0,1.280417436E-1,-2.704633108E0,6.992610939E0,7.498536036E0
7.009522333E0,3.392656848E-2,-2.871913762E0,7.230692019E0,7.780227936E0
7.019501333E0,-1.775255603E-1,-3.016825600E0,7.290007929E0,7.891575738E0
7.029479333E0,-5.644954616E-1,-3.431915346E0,7.139722792E0,7.941809593E0
7.039457333E0,-7.733809550E-1,-3.972007746E0,6.925196636E0,8.020804952E0
7.049436333E0,-8.758636419E-1,-4.496574618E0,6.674668003E0,8.095524280E0
7.059414333E0,-9.865034871E-1,-4.919909815E0,6.258036346E0,8.021329106E0
7.069393333E0,-1.097361141E0,-5.385935826E0,5.607903734E0,7.852457608E0
7.079371333E0,-1.247507845E0,-5.983727673E0,4.945069799E0,7.862250823E0
7.089349333E0,-1.594184437E0,-6.411041608E0,4.214153225E0,7.835940653E0
7.099328333E0,-2.013850799E0,-6.655049425E0,3.678854665E0,7.866336475E0
7.109306333E0,-2.135802521E0,-6.735037581E0,3.172526135E0,7.745147236E0
7.119285333E0,-1.958313652E0,-6.990548041E0,2.544167969E0,7.692564263E0
7.129263333E0,-1.501267356E0,-7.298652452E0,1.911626705E0,7.692752950E0
7.139241333E0,-1.109798534E0,-7.528190750E0,1.282556933E0,7.716881562E0
7.149220333E0,-9.023423195E-1,-7.717516576E0,7.523606533E-1,7.806428781E0
7.159198333E0,-8.610457742E-1,-7.631134490E0,1.109994489E-1,7.680360298E0
7.169177333E0,-1.031506802E0,-7.219525006E0,-6.059440345E-1,7.317972108E0
7.179155333E0,-9.359550387E-1,-7.004090193E0,-1.136420980E0,7.157146352E0
7.189133333E0,-6.452522340E-1,-6.842819892E0,-1.522333705E0,7.039746759E0
7.199112333E0,-5.681804500E-1,-6.676491165E0,-1.809710321E0,6.940707078E0
7.209090333E0,-3.140239857E-1,-6.299757984E0,-2.174369001E0,6.671839497E0
7.219068333E0,-5.033128282E-1,-5.551396242E0,-2.725832773E0,6.204956756E0
7.229047333E0,-7.560086580E-1,-4.876233453E0,-3.371766500E0,5.976454728E0
7.239025333E0,-7.403104189E-1,-4.555641729E0,-4.079280764E0,6.159745338E0
7.249004333E0,-5.589202876E-1,-4.037518780E0,-4.812751987E0,6.306863838E0
7.258982333E0,-6.613350007E-1,-3.326833572E0,-5.784152262E0,6.705341378E0
7.268960333E0,-5.968146670E-1,-2.597538430E0,-6.877217892E0,7.375602998E0
7.278939333E0,-5.620811462E-1,-1.968696699E0,-7.957219673E0,8.216388917E0
7.288917333E0,-5.462209392E-1,-1.594681304E0,-8.687869030E0,8.849883280E0
7.298896333E0,-5.473688208E-1,-1.159919186E0,-9.025152801E0,9.115832832E0
7.308874333E0,-7.832289087E-1,-7.922772557E-1,-9.110097642E0,9.177964361E0
7.318852333E0,-8.223314325E-1,-5.804630381E-1,-9.070373998E0,9.126053407E0
7.328831333E0,-9.127580378E-1,-3.426901066E-1,-8.929625670E0,8.982693268E0
7.338809333E0,-1.174127993E0,-1.787470436E-1,-8.621856304E0,8.703271407E0
7.348788333E0,-1.234044777E0,-2.943020582E-2,-8.150171943E0,8.243120486E0
7.358766333E0,-1.377700194E0,1.776623851E-1,-7.778906493E0,7.901962287E0
7.368744333E0,-1.575011563E0,3.370247394E-1,-7.506308130E0,7.677168022E0
7.378723333E0,-1.860483741E0,6.349047089E-1,-7.212331177E0,7.475441442E0
7.388701333E0,-1.893798252E0,9.818083191E-1,-6.815689981E0,7.141711931E0
7.398679333E0,-1.726998239E0,1.066661943E0,-6.332386032E0,6.649767175E0
7.408658333E0,-1.669526688E0,9.584878689E-1,-5.933926352E0,6.238389240E0
7.418636333E0,-1.614899368E0,7.626301181E-1,-5.539910556E0,5.820662646E0
7.428615333E0,-1.435969453E0,4.037759686E-1,-5.114243782E0,5.327338243E0
7.438593333E0,-1.284002949E0,-4.099950671E-2,-4.557579496E0,4.735174273E0
7.448571333E0,-1.255488563E0,-3.450728470E-1,-3.798775211E0,4.015721592E0
7.458550333E0,-1.096956660E0,-5.957552612E-1,-2.803543439E0,3.068891340E0
7.468528333E0,-1.039359685E0,-7.569834620E-1,-2.113960101E0,2.474291783E0
7.478507333E0,-1.012135853E0,-8.977645344E-1,-1.648351289E0,2.132477928E0
7.488485333E0,-1.040215645E0,-1.084170846E0,-1.209668466E0,1.928930483E0
7.498463333E0,-9.421625890E-1,-1.239469385E0,-8.075250399E-1,1.753867552E0
7.508442333E0,-7.447518908E-1,-1.416847011E0,-4.599010527E-1,1.665418809E0
7.518420333E0,-5.171819852E-1,-1.622563167E0,-1.839446519E-1,1.712899318E0
7.528399333E0,-3.015372201E-1,-1.769386168E0,8.992078464E-2,1.797147143E0
7.538377333E0,-2.734217790E-1,-1.933656675E0,3.313628805E-1,1.980805130E0
7.548355333E0,-1.759934070E-1,-1.933858404E0,4.816860241E-1,2.000700735E0
7.558334333E0,-1.583569986E-1,-1.814925452E0,4.266267411E-1,1.871107082E0
7.568312333E0,-1.737853157E-1,-1.782723082E0,2.623796229E-1,1.810288924E0
7.578291333E0,-2.619328956E-1,-1.790996892E0,5.755180478E-2,1.810964085E0
7.588269333E0,-3.005801406E-1,-1.740985072E0,-1.707838668E-1,1.774977343E0
7.598247333E0,-2.605580691E-1,-1.782396807E0,-3.061385769E-1,1.827169864E0
7.608226292E0,-1.873012277E-1,-2.050967023E0,-2.765692073E-1,2.077988933E0
7.618204292E0,-7.309355780E-2,-2.228714778E0,-1.275733817E-1,2.233559311E0
7.628182292E0,-1.586839311E-2,-2.322485991E0,-3.317213148E-2,2.322777082E0
7.638161292E0,-2.341524817E-2,-2.310707359E0,1.318868726E-2,2.310863630E0
7.648139292E0,-1.180052172E-1,-2.209010246E0,-2.364672482E-2,2.212286298E0
7.658118292E0,-2.083471841E-1,-2.056066380E0,-1.605095780E-1,2.072819537E0
7.668096292E0,-2.780467256E-1,-1.902381088E0,-3.797123373E-1,1.959730911E0
7.678074292E0,-3.098304357E-1,-1.754338358E0,-5.615452489E-1,1.867894815E0
7.688053292E0,-3.634895298E-1,-1.747038109E0,-5.631962103E-1,1.871217990E0
7.698031292E0,-2.903883706E-1,-1.783151098E0,-2.850769061E-1,1.828994829E0
7.708010292E0,-2.135992263E-1,-1.833994977E0,1.675537187E-1,1.853978547E0
7.717988292E0,-8.870555051E-2,-1.887502847E0,8.069180989E-1,2.054666029E0
7.727966292E0,7.973577552E-2,-1.842402104E0,1.471112096E0,2.359019734E0
7.737945292E0,2.876325779E-1,-1.689529574E0,1.972235434E0,2.612844291E0
7.747923292E0,4.210882585E-1,-1.534256762E0,2.214727653E0,2.726953926E0
7.757902292E0,5.071883628E-1,-1.330390080E0,2.188809285E0,2.611142257E0
7.767880292E0,4.572864702E-1,-1.175007341E0,1.927762097E0,2.303479947E0
7.777858292E0,3.814352193E-1,-9.716429347E-1,1.657249435E0,1.958585844E0
7.787837292E0,3.513142381E-1,-7.210833120E-1,1.496406566E0,1.697826684E0
7.797815292E0,3.203004601E-1,-5.141532737E-1,1.433421528E0,1.556162990E0
7.807794292E0,3.256453268E-1,-3.179511219E-1,1.526964700E0,1.593348358E0
7.817772292E0,3.572982786E-1,-1.902034932E-1,1.782125496E0,1.827514901E0
7.827750292E0,3.940144806E-1,-5.233959675E-2,2.052146407E0,2.090285081E0
7.837729292E0,3.452359112E-1,4.310508907E-2,2.274479181E0,2.300934903E0
7.847707292E0,2.417158552E-1,4.329103053E-2,2.350435097E0,2.363227837E0
7.857685292E0,1.366124462E-1,3.717308879E-2,2.352583364E0,2.356839681E0
7.867664292E0,7.508109950E-2,-3.031898260E-2,2.492679142E0,2.493993929E0
7.877642292E0,1.796068767E-1,-1.584741622E-1,2.839274604E0,2.849360098E0
7.887621292E0,2.853748217E-1,-3.503517133E-1,3.388888902E0,3.418881850E0
7.897599292E0,4.234085067E-1,-5.329146498E-1,4.055983703E0,4.112696996E0
7.907577292E0,5.235638922E-1,-7.318451124E-1,4.605476378E0,4.692561037E0
7.917556292E0,5.181991815E-1,-9.170919210E-1,4.919351991E0,5.030865929E0
7.927534292E0,3.422934096E-1,-1.043905749E0,4.996093773E0,5.115452764E0
7.937513292E0,1.356830312E-1,-1.120896038E0,5.032852879E0,5.157947839E0
7.947491292E0,-6.170351062E-2,-1.142312050E0,5.079889051E0,5.207106386E0
7.957469292E0,-1.934303523E-1,-1.245385013E0,5.164042763E0,5.315612551E0
7.967448292E0,-2.369790258E-1,-1.469793549E0,5.426114969E0,5.626648717E0
7.977426292E0,-1.500964178E-1,-1.669150273E0,5.641224092E0,5.884895991E0
7.987405292E0,-1.486478067E-1,-1.901754851E0,5.702262592E0,6.012866733E0
7.997383292E0,-1.817162597E-1,-2.190187474E0,5.593145362E0,6.009427344E0
8.007361292E0,-1.802776619E-1,-2.357890881E0,5.440487425E0,5.932204722E0
8.017340292E0,-3.525532265E-1,-2.567368551E0,5.410515182E0,5.999112400E0
8.027318292E0,-5.925017973E-1,-2.929198349E0,5.450038851E0,6.215640340E0
8.037297292E0,-7.580984529E-1,-3.270682175E0,5.500746490E0,6.444399670E0
8.047275292E0,-7.590535225E-1,-3.460614942E0,5.379174691E0,6.441082082E0
8.057253292E0,-8.537118309E-1,-3.559792491E0,5.047320060E0,6.235093123E0
8.067232292E0,-1.112327016E0,-3.640973479E0,4.585907502E0,5.960243860E0
8.077210292E0,-1.300902133E0,-3.787336888E0,4.046982206E0,5.693358590E0
8.087188292E0,-1.514083430E0,-4.053508576E0,3.547532049E0,5.595387748E0
8.097167292E0,-1.418209997E0,-4.192706807E0,3.203681855E0,5.463852797E0
8.107145292E0,-1.256899643E0,-4.380307120E0,2.880277327E0,5.391000339E0
8.117124292E0,-1.240604037E0,-4.508076383E0,2.463426107E0,5.284914308E0
8.127102292E0,-1.331212637E0,-4.370798963E0,1.802897145E0,4.911868155E0
8.137080292E0,-1.444082026E0,-4.075654321E0,9.830414969E-1,4.434264496E0
8.147059292E0,-1.387045361E0,-3.962194363E0,6.418254733E-2,4.198451906E0
8.157037292E0,-1.289708808E0,-3.852567256E0,-9.468758103E-1,4.171594069E0
8.167016292E0,-1.274233860E0,-3.456535925E0,-2.042750370E0,4.212379565E0
8.176994292E0,-1.222048556E0,-3.120674781E0,-2.959317942E0,4.470970414E0
8.186972292E0,-1.213785052E0,-2.878826925E0,-3.734806379E0,4.869260448E0
8.196951292E0,-1.150314257E0,-2.629986969E0,-4.381531527E0,5.238117302E0
8.206929292E0,-1.007107467E0,-2.227848805E0,-4.886333349E0,5.463865788E0
8.216908292E0,-1.077226254E0,-1.803189506E0,-5.448426189E0,5.839285636E0
8.226886292E0,-1.161910967E0,-1.408336973E0,-6.122502565E0,6.388934793E0
8.236864292E0,-1.193514948E0,-9.085959166E-1,-6.937784522E0,7.098089781E0
8.246843292E0,-1.274337209E0,-4.864146674E-1,-7.787428810E0,7.905983938E0
8.256821292E0,-1.319582087E0,-2.755295724E-1,-8.448120325E0,8.554995643E0
8.266800292E0,-1.255175006E0,-1.884464049E-1,-8.861510870E0,8.951946785E0
8.276778292E0,-1.202080607E0,-1.440677923E-1,-8.928251574E0,9.009962790E0
8.286756292E0,-1.207549069E0,-1.521702790E-1,-8.703320298E0,8.788009715E0
8.296735292E0,-1.104990223E0,-2.010120714E-1,-8.152968081E0,8.229963413E0
8.306713292E0,-1.247535619E0,-4.311263198E-1,-7.308158855E0,7.426398917E0
8.316691292E0,-1.430147965E0,-3.794392723E-1,-6.392335780E0,6.561345448E0
8.326670292E0,-1.500693160E0,-3.316681051E-1,-5.649293250E0,5.854621928E0
8.336648292E0,-1.487766428E0,-3.175500029E-1,-4.956911581E0,5.185099745E0
8.346627292E0,-1.381431741E0,-3.460844153E-1,-4.323523639E0,4.552030837E0
8.356605292E0,-1.220886422E0,-3.475374484E-1,-3.699742674E0,3.911450087E0
8.366583292E0,-1.046436278E0,-2.815516198E-1,-3.153721198E0,3.334705023E0
8.376562292E0,-9.595747201E-1,-2.000963974E-1,-2.658235160E0,2.833202495E0
8.386540292E0,-9.295080449E-1,-1.724145091E-1,-2.204292420E0,2.398461390E0
8.396519292E0,-8.049484643E-1,-1.743323958E-1,-1.784067649E0,1.965001575E0
8.406497292E0,-7.089162795E-1,-1.975902808E-1,-1.422980594E0,1.602023090E0
8.416475292E0,-6.367671201E-1,-2.741332573E-1,-1.088696591E0,1.290690387E0
8.426454292E0,-5.176128519E-1,-3.712631106E-1,-7.378648210E-1,9.747840047E-1
8.436432292E0,-3.298397539E-1,-5.327526820E-1,-4.464606428E-1,7.693807828E-1
8.446411292E0,-1.500639018E-1,-6.252047628E-1,-1.064978237E-1,6.517223002E-1
8.456389292E0,-4.165994058E-2,-6.458009952E-1,6.962148115E-2,6.508775820E-1
8.466367292E0,-2.428575240E-2,-6.483299160E-1,1.318956435E-1,6.620558424E-1
8.476346292E0,1.865557808E-2,-6.760123891E-1,1.183967614E-1,6.865555869E-1
8.486324292E0,1.056391236E-1,-7.803278857E-1,4.509950124E-2,7.887364571E-1
8.496303292E0,2.166478184E-1,-8.566767347E-1,-2.427179217E-2,8.839798781E-1
8.506281292E0,2.985787848E-1,-9.225649148E-1,-1.108936326E-1,9.759983148E-1
8.516259292E0,3.326231747E-1,-9.927227318E-1,-1.797703063E-1,1.062287137E0
8.526238292E0,3.247786964E-1,-1.129186220E0,-2.277823971E-1,1.196840650E0
8.536216292E0,3.998459087E-1,-1.254627707E0,-2.384454343E-1,1.338216596E0
8.546194292E0,4.447952096E-1,-1.250217737E0,-2.098227290E-1,1.343470411E0
8.556173292E0,4.401699889E-1,-1.175857526E0,-2.450264756E-1,1.279229657E0
8.566151292E0,4.087792117E-1,-1.145716884E0,-2.697724038E-1,1.246011545E0
8.576130292E0,4.412892191E-1,-1.118705671E0,-3.455780464E-1,1.251264456E0
8.586108292E0,4.279170024E-1,-1.107395402E0,-4.315331398E-1,1.263193725E0
8.596086292E0,3.956620067E-1,-1.042869623E0,-5.568737622E-1,1.246689160E0
8.606065292E0,3.445293483E-1,-1.038923922E0,-7.317297761E-1,1.316621378E0
8.616041042E0,2.697012140E-1,-1.094138594E0,-9.272815713E-1,1.459359147E0
8.626020042E0,2.520052005E-1,-1.197988653E0,-1.030562988E0,1.600232328E0
8.635998042E0,2.077115187E-1,-1.288919288E0,-1.089321073E0,1.700316855E0
8.645976042E0,1.412815940E-1,-1.341825480E0,-1.105000967E0,1.743984875E0
8.655955042E0,7.363310963E-2,-1.404134579E0,-1.138711334E0,1.809331162E0
8.665933042E0,-3.883282095E-4,-1.470081816E0,-1.091641833E0,1.831071432E0
8.675912042E0,-6.461779945E-2,-1.535512744E0,-9.643052638E-1,1.814348227E0
8.685890042E0,-4.395498186E-2,-1.587055365E0,-8.531955948E-1,1.802392714E0
8.695868042E0,-1.117914543E-2,-1.526495168E0,-7.817300481E-1,1.715055200E0
8.705847042E0,4.167222887E-2,-1.387411543E0,-8.208309639E-1,1.612578939E0
8.715825042E0,8.022884198E-2,-1.328183926E0,-9.743689066E-1,1.649213138E0
8.725804042E0,1.623983748E-2,-1.446415796E0,-1.063559995E0,1.795422583E0
8.735782042E0,-1.479059047E-1,-1.607517697E0,-7.748835433E-1,1.790651783E0
8.745760042E0,-3.702265455E-1,-1.671391511E0,-1.508809680E-1,1.718540760E0
8.755739042E0,-5.506035005E-1,-1.630663900E0,6.241692209E-1,1.830796599E0
8.765717042E0,-6.017161321E-1,-1.528233545E0,1.381922176E0,2.146454979E0
8.775695042E0,-5.498210699E-1,-1.414299379E0,1.919893498E0,2.447148747E0
8.785674042E0,-4.502363727E-1,-1.301950977E0,2.212641951E0,2.606448454E0
8.795652042E0,-3.281645997E-1,-1.242461405E0,2.317911714E0,2.650305088E0
8.805631042E0,-3.057638800E-1,-1.139863821E0,2.363301895E0,2.641586062E0
8.815609042E0,-3.470690133E-1,-1.081781089E0,2.446102561E0,2.697058576E0
8.825587042E0,-3.593217441E-1,-1.023915873E0,2.665776021E0,2.878172620E0
8.835566042E0,-3.109876728E-1,-9.533762330E-1,2.929747987E0,3.096621198E0
8.845544042E0,-2.224029769E-1,-8.404436946E-1,3.092612239E0,3.212484887E0
8.855523042E0,-1.758738680E-1,-7.649654961E-1,3.110279601E0,3.207794106E0
8.865501042E0,-1.818628421E-1,-6.210479772E-1,3.021516529E0,3.090038320E0
8.875479042E0,-2.557327640E-1,-4.161504310E-1,2.884962409E0,2.926019229E0
8.885458042E0,-3.341479458E-1,-2.375402123E-1,2.796741958E0,2.826631525E0
8.895436042E0,-4.190577763E-1,-1.531467640E-1,2.783440711E0,2.818972427E0
8.905415042E0,-4.679821606E-1,-1.669327444E-1,2.936339554E0,2.978080559E0
8.915393042E0,-3.491839512E-1,-2.198266572E-1,3.150233041E0,3.177140444E0
8.925371042E0,-1.840340229E-1,-2.199155349E-1,3.300987709E0,3.313419868E0
8.935350042E0,-1.120570640E-1,-3.092206442E-1,3.377163481E0,3.393141224E0
8.945328042E0,-5.488225847E-2,-4.483399379E-1,3.455805023E0,3.485198576E0
8.955307042E0,5.501224939E-2,-6.309905827E-1,3.739418371E0,3.792680479E0
8.965285042E0,1.505242513E-1,-9.274198580E-1,4.283504126E0,4.385336104E0
8.975263042E0,3.078162527E-1,-1.142621952E0,4.816269087E0,4.959514461E0
8.985242042E0,3.457882904E-1,-1.404512309E0,5.071608224E0,5.273844361E0
8.995220042E0,3.049164722E-1,-1.770250971E0,5.114160751E0,5.420461488E0
9.005198042E0,3.161940336E-1,-2.110922619E0,5.093365129E0,5.522530335E0
9.015177042E0,3.606304606E-1,-2.235553681E0,5.121182672E0,5.599488062E0
9.025155042E0,3.889063164E-1,-2.300981686E0,5.033801297E0,5.548416021E0
9.035134042E0,2.949387469E-1,-2.376735873E0,4.802433990E0,5.366491825E0
9.045112042E0,1.991600024E-1,-2.254307456E0,4.493922613E0,5.031590928E0
9.055090042E0,-6.905598231E-3,-2.319790424E0,3.985969142E0,4.611878717E0
9.065069042E0,-4.412351324E-1,-2.543860990E0,3.622309751E0,4.448263157E0
9.075047042E0,-5.768912664E-1,-2.666489967E0,3.541600926E0,4.470560299E0
9.085026042E0,-6.110568398E-1,-2.754548450E0,3.675220328E0,4.633375884E0
9.095004042E0,-6.631280494E-1,-2.883464352E0,3.720406734E0,4.753475754E0
9.104982042E0,-9.201679949E-1,-3.083232136E0,3.547660980E0,4.789460092E0
9.114961042E0,-1.209420325E0,-3.112792150E0,3.223352473E0,4.641354722E0
9.124939042E0,-1.441132690E0,-3.010840098E0,2.819995750E0,4.369713669E0
9.134918042E0,-1.236049933E0,-3.091027644E0,2.463196896E0,4.141208795E0
9.144896042E0,-7.160257629E-1,-3.218586407E0,1.899238794E0,3.805141174E0
9.154874042E0,-2.681434609E-1,-3.444273729E0,1.145528530E0,3.639664551E0
9.164853042E0,6.601422875E-2,-3.599257688E0,3.794088668E-1,3.619801772E0
9.174831042E0,-1.576117710E-1,-3.648706421E0,-1.898930061E-1,3.657042435E0
9.184810042E0,-4.906986299E-1,-3.392707134E0,-4.528866597E-1,3.457795999E0
9.194788042E0,-8.552562998E-1,-2.777231553E0,-6.737290514E-1,2.983016807E0
9.204766042E0,-1.117832097E0,-2.311562807E0,-1.237207682E0,2.850184916E0
9.214745042E0,-1.099583595E0,-2.069281088E0,-2.005135231E0,3.084084240E0
9.224723042E0,-9.246165566E-1,-1.767679950E0,-3.056097547E0,3.649567152E0
9.234701042E0,-8.805403181E-1,-1.646093532E0,-4.136472673E0,4.538213452E0
9.244680042E0,-8.973021658E-1,-1.487764966E0,-5.117617625E0,5.404498675E0
9.254658042E0,-9.410706946E-1,-1.277008510E0,-5.986221510E0,6.192835599E0
9.264637042E0,-1.004574599E0,-1.026724291E0,-6.680626316E0,6.833308194E0
9.274615042E0,-9.817032885E-1,-7.711547738E-1,-7.067566981E0,7.176971789E0
9.284593042E0,-9.120066706E-1,-6.272273147E-1,-7.335071250E0,7.418115699E0
9.294572042E0,-8.754782373E-1,-5.166471112E-1,-7.506537926E0,7.575057624E0
9.304550042E0,-8.641832440E-1,-3.523678333E-1,-7.524263760E0,7.581920660E0
9.314529042E0,-9.335088560E-1,-2.867334223E-1,-7.384083781E0,7.448378893E0
9.324507042E0,-1.088492523E0,-1.637828493E-1,-7.106838051E0,7.191577565E0
9.334485042E0,-1.228796316E0,-1.551734090E-2,-6.719693318E0,6.831138958E0
9.344464042E0,-1.329590766E0,5.543160439E-2,-6.235435104E0,6.375855645E0
9.354442042E0,-1.361583514E0,1.341743034E-1,-5.747037646E0,5.907652166E0
9.364421042E0,-1.308410689E0,1.491969699E-1,-5.221860616E0,5.385352965E0
9.374399042E0,-1.215764846E0,1.905356151E-1,-4.697356017E0,4.855877009E0
9.384377042E0,-1.108377807E0,1.956875968E-1,-4.099690762E0,4.251383227E0
9.394356042E0,-1.052123134E0,1.113742554E-1,-3.387088544E0,3.548483637E0
9.404334042E0,-1.002031645E0,5.937847495E-2,-2.673955399E0,2.856156630E0
9.414313042E0,-9.804389743E-1,-3.120308161E-2,-2.087791910E0,2.306752972E0
9.424291042E0,-9.169135078E-1,-1.260700625E-1,-1.553323655E0,1.808158848E0
9.434269042E0,-7.786520737E-1,-1.838996100E-1,-1.158528718E0,1.407944214E0
9.444248042E0,-6.768412319E-1,-2.576540494E-1,-9.336670232E-1,1.181623363E0
9.454226042E0,-6.285169181E-1,-3.116320360E-1,-8.152212913E-1,1.075515595E0
9.464205042E0,-6.256775102E-1,-3.399658889E-1,-7.931268561E-1,1.065879619E0
9.474183042E0,-4.963074619E-1,-4.212141198E-1,-8.089529300E-1,1.038338709E0
9.484161042E0,-2.952305595E-1,-6.525551140E-1,-7.949897059E-1,1.070045743E0
9.494140042E0,-1.136721838E-1,-8.648400325E-1,-7.107688236E-1,1.125194191E0
9.504118042E0,1.508751573E-2,-1.078262819E0,-6.168602014E-1,1.242334435E0
9.514096042E0,1.160335818E-1,-1.258356476E0,-4.129356319E-1,1.329451259E0
9.524075042E0,1.548229232E-1,-1.346494482E0,-1.494185793E-1,1.363577441E0
9.534053042E0,1.089535630E-1,-1.417615335E0,1.397665805E-1,1.428649297E0
9.544032042E0,2.201365231E-2,-1.419729688E0,3.876874278E-1,1.471875854E0
9.554010042E0,-5.446606463E-2,-1.400899315E0,5.692930289E-1,1.513135815E0
9.563988042E0,-9.418729691E-2,-1.342537671E0,6.179113846E-1,1.480909559E0
9.573967042E0,-9.093931479E-2,-1.315287307E0,5.413479428E-1,1.425239718E0
9.583945042E0,-6.674540022E-2,-1.238230360E0,4.060698313E-1,1.304822624E0
9.593924042E0,-1.557511870E-2,-1.131633280E0,1.890776119E-1,1.147426167E0
9.603902042E0,1.118192285E-2,-1.065301881E0,-4.774836302E-3,1.065371265E0
9.613881917E0,6.399580188E-2,-1.005880136E0,-1.605738974E-1,1.020624460E0
9.623860917E0,8.566222094E-2,-9.539287949E-1,-2.934995279E-1,1.001728573E0
9.633838917E0,9.160280932E-2,-9.359760886E-1,-5.033139977E-1,1.066661752E0
9.643817917E0,4.954422567E-2,-9.068867755E-1,-7.594620967E-1,1.183926066E0
9.653795917E0,1.580549899E-2,-9.137566692E-1,-9.900689730E-1,1.347381771E0
9.663773917E0,4.176258663E-2,-9.754839706E-1,-1.142648557E0,1.502983305E0
9.673752917E0,6.416140599E-2,-1.086561188E0,-1.110812807E0,1.555196770E0
9.683730917E0,1.035244780E-1,-1.186725746E0,-9.425296479E-1,1.519011998E0
9.693709917E0,1.136205912E-1,-1.141422104E0,-7.734848893E-1,1.383485790E0
9.703687917E0,7.562620617E-2,-1.109855910E0,-6.947629479E-1,1.311562053E0
9.713665917E0,2.291542087E-3,-1.121737452E0,-6.952763334E-1,1.319738361E0
9.723644917E0,-8.672656037E-2,-1.159257866E0,-6.977815729E-1,1.355839009E0
9.733622917E0,-1.867155560E-1,-1.231092664E0,-5.407247758E-1,1.357510637E0
9.743601917E0,-3.261800181E-1,-1.315464478E0,-1.549020982E-1,1.364124208E0
9.753579917E0,-3.641997472E-1,-1.293171968E0,3.920967400E-1,1.399526723E0
9.763557917E0,-3.617982227E-1,-1.252105218E0,1.005689517E0,1.646231101E0
9.773536917E0,-2.888083433E-1,-1.229978769E0,1.497893513E0,1.959577252E0
9.783514917E0,-2.266881089E-1,-1.118879333E0,1.761223454E0,2.098853620E0
9.793492917E0,-1.636797190E-1,-9.475810575E-1,1.730663567E0,1.979873049E0
9.803471917E0,-9.056491027E-2,-8.013392705E-1,1.506859633E0,1.709085306E0
9.813449917E0,-1.937071814E-1,-6.773268431E-1,1.352753341E0,1.525200225E0
9.823428917E0,-3.633965225E-1,-5.576805317E-1,1.414519819E0,1.563307688E0
9.833406917E0,-4.312572609E-1,-3.943169278E-1,1.509415451E0,1.618580758E0
9.843384917E0,-4.150462575E-1,-2.419952059E-1,1.543516413E0,1.616560544E0
9.853363917E0,-3.991511133E-1,-9.596801162E-2,1.453572203E0,1.510431600E0
9.863341917E0,-3.852144941E-1,-1.036647016E-1,1.296542888E0,1.356524986E0
9.873320917E0,-2.283926088E-1,2.391335785E-2,1.156302683E0,1.178885459E0
9.883298917E0,1.845556676E-2,3.094276357E-1,1.135422860E0,1.176975421E0
9.893276917E0,-5.161008351E-2,2.302259302E-1,1.305175717E0,1.326329986E0
9.903255917E0,-2.136479958E-1,-2.390926480E-2,1.638483381E0,1.652526826E0
9.913233917E0,-2.525430713E-1,-6.680560827E-2,2.031736116E0,2.048461041E0
9.923212917E0,-2.384479377E-1,-1.241059828E-1,2.229625189E0,2.245771181E0
9.933190917E0,-1.770288393E-1,-3.036178422E-1,2.281374217E0,2.308287530E0
9.943168917E0,2.620963253E-2,-3.610556263E-1,2.196667943E0,2.226296962E0
9.953147917E0,2.013804277E-1,-2.933612412E-1,2.075990183E0,2.106264497E0
9.963125917E0,2.074686765E-1,-1.787534755E-1,2.140137647E0,2.157587821E0
9.973104917E0,-3.680449493E-2,-2.666406351E-1,2.425314540E0,2.440205405E0
9.983082917E0,-3.596298558E-1,-6.044950944E-1,2.960593804E0,3.043002403E0
9.993060917E0,-5.876584024E-1,-9.639854211E-1,3.610648064E0,3.783039748E0
1.000303992E1,-6.814725190E-1,-1.216975147E0,4.281126063E0,4.502607430E0
1.001301792E1,-7.822421180E-1,-1.577337878E0,5.096148403E0,5.391718285E0
1.002299692E1,-7.931014207E-1,-2.014277499E0,6.093149543E0,6.466281393E0
1.003297492E1,-6.345049786E-1,-2.304118717E0,7.013809435E0,7.409796382E0
1.004295292E1,-4.966407532E-1,-2.508841431E0,7.614017935E0,8.032073611E0
1.005293192E1,-4.200645206E-1,-2.814896978E0,7.692765312E0,8.202361693E0
1.006290992E1,-3.664643008E-1,-3.113631225E0,7.054889048E0,7.720133093E0
1.007288792E1,-5.797242789E-1,-3.497174073E0,6.002091438E0,6.970753788E0
1.008286692E1,-6.897087608E-1,-3.746857198E0,5.047246969E0,6.323712439E0
1.009284492E1,-7.641884011E-1,-3.911625888E0,4.564088616E0,6.059348637E0
1.010282392E1,-7.927826013E-1,-4.090085249E0,4.504610154E0,6.135862958E0
1.011280192E1,-6.413316029E-1,-4.211341299E0,4.394017087E0,6.119974503E0
1.012277992E1,-5.538746522E-1,-4.445053924E0,4.039091681E0,6.031545666E0
1.013275892E1,-5.802602128E-1,-4.694787920E0,3.482081240E0,5.873893537E0
1.014273692E1,-5.034647828E-1,-4.870942892E0,2.733387961E0,5.608116546E0
1.015271592E1,-5.325096205E-1,-5.141742067E0,2.061925290E0,5.565304474E0
1.016269392E1,-4.843713579E-1,-5.348325951E0,1.568869940E0,5.594690248E0
1.017267192E1,-5.603523438E-1,-5.609633340E0,1.247991702E0,5.774033620E0
1.018265092E1,-6.451455224E-1,-6.049673740E0,1.234719107E0,6.208002608E0
1.019262892E1,-8.688561925E-1,-6.425871316E0,1.298732085E0,6.613126211E0
1.020260792E1,-1.295875720E0,-6.847155603E0,1.538411209E0,7.136493731E0
1.021258592E1,-1.661016065E0,-6.964653062E0,1.871502673E0,7.400533015E0
1.022256392E1,-2.377486363E0,-6.738417272E0,2.037777459E0,7.430427021E0
1.023254292E1,-2.959182871E0,-6.641148255E0,2.162104467E0,7.585269219E0
1.024252092E1,-2.642320793E0,-6.771530639E0,2.161012791E0,7.583235632E0
1.025249992E1,-1.531562511E0,-6.723755963E0,1.352554828E0,7.027373801E0
1.026247792E1,-5.093069552E-1,-6.296712754E0,-5.156599550E-1,6.338287645E0
1.027245592E1,-2.832747029E-1,-5.678863789E0,-2.718166197E0,6.302234997E0
1.028243492E1,-7.483010045E-1,-4.939126689E0,-4.547666419E0,6.755456809E0
1.029241292E1,-6.909730019E-1,-3.661332899E0,-5.778977476E0,6.876000506E0
1.030239192E1,-1.992760330E-1,-2.230924441E0,-6.740639799E0,7.103024686E0
1.031236992E1,1.294230022E-2,-1.207381035E0,-7.810625299E0,7.903404585E0
1.032234792E1,-2.790093966E-1,-4.538024068E-1,-8.899447605E0,8.915377196E0
1.033232692E1,-8.021284984E-1,7.895495296E-3,-9.982091743E0,1.001427122E1
1.034230492E1,-1.201195850E0,2.459759903E-1,-1.075817280E1,1.082781869E1
1.035228392E1,-1.479359301E0,2.489411134E-1,-1.129730011E1,1.139646724E1
1.036226192E1,-1.728931037E0,2.016201818E-1,-1.138371260E1,1.151602214E1
1.037223992E1,-1.894487493E0,5.248987019E-2,-1.112863835E1,1.128886307E1
1.038221892E1,-2.010437048E0,-2.437411845E-1,-1.065269136E1,1.084348192E1
1.039219692E1,-2.100998578E0,-4.767252463E-1,-9.802349503E0,1.003630997E1
1.040217492E1,-2.238913345E0,-6.536128753E-1,-8.696670259E0,9.004000020E0
1.041215392E1,-2.342863537E0,-7.181199431E-1,-7.579553277E0,7.965822850E0
1.042213192E1,-2.297997998E0,-6.078168976E-1,-6.546395879E0,6.964591531E0
1.043211092E1,-2.352851897E0,-2.763078368E-1,-5.718571646E0,6.189856197E0
1.044208892E1,-2.432110613E0,1.401004565E-1,-5.101896801E0,5.653683856E0
1.045206692E1,-2.469247010E0,5.571016574E-1,-4.624429251E0,5.271896144E0
1.046204592E1,-2.434724172E0,7.519472551E-1,-4.189384419E0,4.903493477E0
1.047202392E1,-2.308005946E0,7.041462672E-1,-3.767499039E0,4.474009658E0
1.048200292E1,-1.916215454E0,5.800209886E-1,-3.238107337E0,3.807052027E0
1.049198092E1,-1.448087368E0,4.521055448E-1,-2.584799978E0,2.997089818E0
1.050195892E1,-1.122549484E0,1.778313696E-1,-1.800759695E0,2.129431103E0
1.051193792E1,-7.992003590E-1,-9.446820080E-2,-9.674589595E-1,1.258420555E0
1.052191592E1,-5.334395836E-1,-2.689321589E-1,-1.895220003E-1,6.267382899E-1
1.053189492E1,-4.042458289E-1,-4.496432823E-1,3.783791721E-1,7.132773439E-1
1.054187292E1,-2.465500955E-1,-6.251930684E-1,6.960477273E-1,9.675410901E-1
1.055185092E1,-1.099928781E-1,-7.690795970E-1,8.070606248E-1,1.120236007E0
1.056182992E1,8.698391095E-3,-8.710281408E-1,7.987143092E-1,1.181824958E0
1.057180792E1,1.846132627E-1,-1.055256364E0,6.828565550E-1,1.270409826E0
1.058178692E1,3.676502257E-1,-1.383521390E0,5.997207697E-1,1.552083479E0
1.059176492E1,4.202885056E-1,-1.665056638E0,4.895394194E-1,1.785694508E0
1.060174292E1,4.901721612E-1,-1.839540476E0,3.789855283E-1,1.941084218E0
1.061172279E1,4.645109975E-1,-1.920513888E0,3.386818038E-1,2.004706818E0
1.062170079E1,3.281585332E-1,-1.950891927E0,3.849848447E-1,2.015410793E0
1.063167979E1,1.267601801E-1,-1.855032674E0,4.479261012E-1,1.912551217E0
1.064165779E1,-1.335211694E-3,-1.705339276E0,4.670965632E-1,1.768152433E0
1.065163579E1,-2.546462417E-2,-1.640369693E0,3.920248193E-1,1.686755654E0
1.066161479E1,9.351817444E-3,-1.625085071E0,2.893694933E-1,1.650673696E0
1.067159279E1,4.237192132E-2,-1.629317871E0,1.439756986E-1,1.636215483E0
1.068157079E1,3.184203610E-2,-1.614532601E0,-6.829854861E-2,1.616290236E0
1.069154979E1,1.683537640E-2,-1.599428658E0,-2.994014150E-1,1.627297352E0
1.070152779E1,-2.291669995E-2,-1.623629699E0,-5.241005570E-1,1.706276639E0
1.071150679E1,-6.425271392E-2,-1.692080714E0,-7.337089124E-1,1.845425242E0
1.072148479E1,-7.360825896E-2,-1.750970362E0,-9.690695751E-1,2.002601115E0
1.073146279E1,-3.614880279E-2,-1.784040459E0,-1.216276112E0,2.159498710E0
1.074144179E1,7.815863527E-2,-1.758015087E0,-1.433224477E0,2.269550224E0
1.075141979E1,1.634398370E-1,-1.784681899E0,-1.565619473E0,2.379698803E0
1.076139879E1,2.071167107E-1,-1.791893270E0,-1.638721655E0,2.437044827E0
1.077137679E1,1.248945529E-1,-1.759642952E0,-1.748043246E0,2.483464748E0
1.078135479E1,-7.210998304E-2,-1.817960157E0,-1.591440192E0,2.417201040E0
1.079133379E1,-3.147035784E-1,-1.876464474E0,-1.139473811E0,2.217782187E0
1.080131179E1,-5.729968746E-1,-1.915605735E0,-4.673398805E-1,2.053357571E0
1.081129079E1,-8.010620394E-1,-1.962246636E0,3.487560081E-1,2.147962524E0
1.082126879E1,-8.534220283E-1,-1.915855411E0,1.170921307E0,2.402059080E0
1.083124679E1,-7.773824970E-1,-1.761139839E0,1.789432177E0,2.628308315E0
1.084122579E1,-6.811634937E-1,-1.626210076E0,2.112282681E0,2.751414371E0
1.085120379E1,-6.036766304E-1,-1.501114159E0,2.219084998E0,2.746289756E0
1.086118279E1,-5.492888271E-1,-1.371643356E0,2.303372027E0,2.736539130E0
1.087116079E1,-5.371025719E-1,-1.181253921E0,2.270827010E0,2.615434057E0
1.088113879E1,-5.763006245E-1,-1.012181681E0,2.197087773E0,2.486730554E0
1.089111779E1,-6.904470449E-1,-8.578993875E-1,2.149436474E0,2.415116071E0
1.090109579E1,-8.698812094E-1,-8.290153116E-1,2.274240614E0,2.572183912E0
1.091107479E1,-6.919537993E-1,-5.320662189E-1,2.530762643E0,2.677060716E0
1.092105279E1,-4.788356526E-1,-2.663728327E-1,2.478713068E0,2.538554026E0
1.093103079E1,-4.645099012E-1,-4.526855886E-1,2.426458840E0,2.511652085E0
1.094100979E1,-4.514204704E-1,-4.800640064E-1,2.656468424E0,2.736981253E0
1.095098779E1,-4.062671017E-1,-3.293812591E-1,3.076682670E0,3.120820601E0
1.096096579E1,-3.235503425E-1,-3.501710343E-1,3.457170932E0,3.489890461E0
1.097094479E1,-2.698354076E-1,-4.652781522E-1,3.802304590E0,3.840158213E0
1.098092279E1,-2.800052505E-1,-5.828071868E-1,4.091647040E0,4.142419904E0
1.099090179E1,-3.230963062E-1,-7.787456292E-1,4.311071409E0,4.392740906E0
1.100087979E1,-3.819339138E-1,-9.818398941E-1,4.532586157E0,4.653409542E0
1.101085779E1,-4.588710657E-1,-1.128711426E0,4.740513146E0,4.894590588E0
1.102083679E1,-4.358443650E-1,-1.289092366E0,4.847424806E0,5.034803540E0
1.103081479E1,-3.708646960E-1,-1.468583175E0,4.966425000E0,5.192268719E0
1.104079379E1,-1.973985652E-1,-1.707333761E0,5.210191913E0,5.486351659E0
1.105077179E1,-2.432470948E-2,-1.966172456E0,5.466420996E0,5.809318748E0
1.106074979E1,-6.338279441E-2,-2.434954260E0,5.783222555E0,6.275243640E0
1.107072879E1,-1.507765221E-1,-3.007351064E0,6.252647552E0,6.939920417E0
1.108070679E1,-3.956230496E-1,-3.643491290E0,6.941396931E0,7.849492833E0
1.109068579E1,-5.309586100E-1,-4.432167245E0,7.636743139E0,8.845669523E0
1.110066379E1,-5.194427381E-1,-5.019813588E0,8.059475781E0,9.509127146E0
1.111064179E1,-5.883848459E-1,-5.536401642E0,8.010972542E0,9.755696845E0
1.112062079E1,-8.086874664E-1,-5.925715107E0,7.554078712E0,9.634945778E0
1.113059879E1,-1.106796354E0,-6.238035361E0,6.946308008E0,9.401557226E0
1.114057779E1,-1.374869411E0,-6.759837377E0,6.459861766E0,9.450686816E0
1.115055579E1,-1.481421322E0,-7.249458658E0,6.232387535E0,9.674291413E0
1.116053379E1,-1.615340394E0,-7.578570945E0,6.039048180E0,9.824162309E0
1.117051279E1,-1.832550130E0,-8.211550750E0,5.842099339E0,1.024294540E1
1.118049079E1,-1.882115369E0,-9.036985812E0,5.759121501E0,1.088011725E1
1.119046979E1,-1.856137798E0,-9.515847046E0,5.637294179E0,1.121497562E1
1.120044779E1,-1.863421967E0,-9.707596543E0,5.061168605E0,1.110518796E1
1.121042579E1,-1.716577039E0,-9.476022829E0,3.829749666E0,1.036381339E1
1.122040479E1,-1.466878419E0,-8.765636414E0,1.721874178E0,9.052787677E0
1.123038279E1,-1.444126903E0,-7.775460729E0,-1.175706960E0,7.995347329E0
1.124036179E1,-1.637002135E0,-6.416359066E0,-4.417088738E0,7.959906568E0
1.125033979E1,-1.813978788E0,-4.834960881E0,-8.095363652E0,9.602201749E0
1.126031779E1,-1.809274411E0,-3.281940404E0,-1.183239870E1,1.241169874E1
1.127029679E1,-2.344737131E0,-2.293673251E0,-1.519887581E1,1.554877985E1
1.128027479E1,-2.498534836E0,-1.947581819E0,-1.814434286E1,1.841881997E1
1.129025379E1,-2.433743009E0,-1.753909757E0,-2.011573396E1,2.033819208E1
1.130023179E1,-2.499782340E0,-1.587623130E0,-2.056177360E1,2.077392579E1
1.131020979E1,-2.467045826E0,-1.553613385E0,-1.953586792E1,1.975221925E1
1.132018879E1,-2.522727399E0,-1.859566020E0,-1.745996135E1,1.773900758E1
1.133016679E1,-2.652356662E0,-2.393878155E0,-1.428853683E1,1.472847356E1
1.134014479E1,-2.881531847E0,-2.756634736E0,-1.065415551E1,1.137599624E1
1.135012379E1,-3.302614405E0,-2.734429350E0,-8.076166658E0,9.143786615E0
1.136010179E1,-3.422320650E0,-2.594436482E0,-5.678374962E0,7.119502897E0
1.137008079E1,-3.277260293E0,-2.155500036E0,-3.797478883E0,5.459620985E0
1.138005879E1,-3.102656586E0,-1.461122128E0,-2.710327712E0,4.371181999E0
1.139003679E1,-2.969515486E0,-7.227544463E-1,-2.011210050E0,3.658601109E0
1.140001579E1,-2.791197043E0,-6.934388459E-2,-1.549122139E0,3.193018777E0
1.140999379E1,-2.441486477E0,2.171872240E-1,-1.324260736E0,2.785981516E0
1.141997279E1,-2.018221008E0,2.156827354E-1,-1.122919174E0,2.319629831E0
1.142995079E1,-1.567699327E0,1.281569338E-1,-8.409038705E-1,1.783598806E0
1.143992879E1,-1.075445704E0,-1.228728050E-1,-5.978453484E-1,1.236567931E0
1.144990779E1,-6.135207834E-1,-5.123382980E-1,-3.249128169E-1,8.628247921E-1
1.145988579E1,-2.373968641E-1,-8.139604855E-1,1.859326869E-2,8.480770322E-1
1.146986479E1,5.201863943E-2,-1.084412920E0,3.165265940E-1,1.130860913E0
1.147984279E1,1.870474951E-1,-1.262522033E0,5.157323143E-1,1.376564008E0
1.148982079E1,2.263415518E-1,-1.310125970E0,5.310558200E-1,1.431670646E0
1.149979979E1,2.131587117E-1,-1.287931108E0,4.647447400E-1,1.385709511E0
1.150977779E1,2.030341847E-1,-1.305894340E0,2.892429011E-1,1.352865242E0
1.151975679E1,2.501315334E-1,-1.282018404E0,1.403658470E-1,1.313712123E0
1.152973479E1,3.470550531E-1,-1.246543347E0,-4.939376950E-2,1.294896625E0
1.153971279E1,5.160164890E-1,-1.230560567E0,-3.996069403E-1,1.392924274E0
1.154969179E1,6.245676356E-1,-1.249130740E0,-6.599752307E-1,1.544661659E0
1.155966979E1,6.621207934E-1,-1.265871903E0,-8.496437037E-1,1.662146216E0
1.156964779E1,6.106066042E-1,-1.144666724E0,-1.038673661E0,1.661910138E0
1.157962679E1,5.143650891E-1,-1.032735229E0,-1.229636123E0,1.686154943E0
1.158960479E1,3.910093041E-1,-1.065859705E0,-1.342590880E0,1.758264900E0
1.159958379E1,2.325152613E-1,-1.131327471E0,-1.374484226E0,1.795319492E0
1.160956179E1,1.078511618E-1,-1.227395470E0,-1.410028719E0,1.872515020E0
1.161953742E1,-4.335768878E-2,-1.424846587E0,-1.442651943E0,2.028130251E0
1.162951542E1,-1.955267984E-1,-1.599618108E0,-1.556247848E0,2.240293772E0
1.163949342E1,-3.113006450E-1,-1.789674836E0,-1.731359970E0,2.509472346E0
1.164947242E1,-4.656991518E-1,-2.086335661E0,-1.937647984E0,2.885160637E0
1.165945042E1,-6.272680990E-1,-2.374585851E0,-2.135739079E0,3.254766450E0
1.166942942E1,-7.290488277E-1,-2.630448899E0,-2.341378344E0,3.596223874E0
1.167940742E1,-7.540494753E-1,-2.807287996E0,-2.523474673E0,3.849335128E0
1.168938542E1,-6.914703807E-1,-2.929749157E0,-2.750858856E0,4.077840833E0
1.169936442E1,-6.010262337E-1,-3.132152281E0,-2.983253519E0,4.367082779E0
1.170934242E1,-6.610650055E-1,-3.538005180E0,-2.916543805E0,4.632571140E0
1.171932042E1,-8.190386461E-1,-3.876098206E0,-2.217697454E0,4.540169997E0
1.172929942E1,-1.106726042E0,-4.044777514E0,-9.170784724E-1,4.292563406E0
1.173927742E1,-1.278368572E0,-4.001122202E0,7.055946225E-1,4.259233364E0
1.174925642E1,-1.218955160E0,-3.738826048E0,2.357324286E0,4.584937261E0
1.175923442E1,-9.770922473E-1,-3.279354765E0,3.650571683E0,5.003553792E0
1.176921242E1,-6.699821556E-1,-2.814199405E0,4.329423480E0,5.206966684E0
1.177919142E1,-5.494475059E-1,-2.376772125E0,4.561133434E0,5.172511624E0
1.178916942E1,-5.412449587E-1,-2.061112527E0,4.289723809E0,4.789870699E0
1.179914842E1,-5.948291353E-1,-1.745596771E0,3.781479147E0,4.207197919E0
1.180912642E1,-6.662798448E-1,-1.373592818E0,3.398578908E0,3.725724715E0
1.181910442E1,-5.473815385E-1,-9.713002878E-1,3.232261875E0,3.419147208E0
1.182908342E1,-2.964982724E-1,-6.373646325E-1,3.193808246E0,3.270253203E0
1.183906142E1,-1.741790526E-2,-3.937795687E-1,3.172470587E0,3.196863362E0
1.184904042E1,1.836105383E-1,-1.532110834E-1,3.116058989E0,3.125221607E0
1.185901842E1,3.363708745E-1,6.416208208E-2,3.021645752E0,3.040987535E0
1.186899642E1,3.613115881E-1,2.083169979E-1,2.921767707E0,2.951384179E0
1.187897542E1,3.195340363E-1,3.256764632E-1,2.797588634E0,2.834549228E0
1.188895342E1,2.608217785E-1,4.547151572E-1,2.722206330E0,2.772219540E0
1.189893142E1,1.933005441E-1,5.488588375E-1,2.750210400E0,2.811097360E0
1.190891042E1,9.112965994E-2,6.089214367E-1,2.805558389E0,2.872324461E0
1.191888842E1,-6.839407749E-2,6.128770781E-1,2.894493370E0,2.959457371E0
1.192886742E1,-2.444975218E-1,5.314943612E-1,3.081931130E0,3.136967451E0
1.193884542E1,-4.137727339E-1,4.193213761E-1,3.381213262E0,3.432148222E0
1.194882342E1,-5.555916870E-1,2.556630725E-1,3.699981825E0,3.750188160E0
1.195880242E1,-6.245689512E-1,8.287083328E-2,3.978719764E0,4.028295534E0
1.196878042E1,-6.941085713E-1,-1.075905222E-1,4.222427035E0,4.280450034E0
1.197875942E1,-7.458747024E-1,-2.898084730E-1,4.510518765E0,4.580949416E0
1.198873742E1,-8.616594395E-1,-4.840874755E-1,4.764627648E0,4.866053257E0
1.199871542E1,-9.923431014E-1,-7.002777493E-1,4.971581660E0,5.117788385E0
1.200869442E1,-9.821387599E-1,-8.620316148E-1,5.115772828E0,5.280040405E0
1.201867242E1,-9.640788303E-1,-1.050419548E0,5.234699932E0,5.425395156E0
1.202865142E1,-8.987558567E-1,-1.350317391E0,5.236708451E0,5.482174254E0
1.203862942E1,-6.969826240E-1,-1.636913989E0,5.036515574E0,5.341513017E0
1.204860842E1,-5.736253772E-1,-1.914399455E0,4.782905459E0,5.183643118E0
1.205858642E1,-4.840959540E-1,-2.196022995E0,4.541422470E0,5.067680331E0
1.206856442E1,-4.498354364E-1,-2.441477414E0,4.345915552E0,5.005012074E0
1.207854342E1,-5.183034081E-1,-2.697007754E0,4.293933220E0,5.097092480E0
1.208852142E1,-5.137932314E-1,-2.908875182E0,4.132235488E0,5.079459463E0
1.209849942E1,-4.521173123E-1,-3.126492176E0,3.824531026E0,4.960483944E0
1.210847842E1,-4.346862508E-1,-3.315640247E0,3.363324291E0,4.742823280E0
1.211845642E1,-3.652438407E-1,-3.411706492E0,2.737244200E0,4.389265321E0
1.212843542E1,-3.060384433E-1,-3.450741919E0,2.109080161E0,4.055798127E0
1.213841342E1,-2.245738654E-1,-3.491359017E0,1.558443185E0,3.829982555E0
1.214839142E1,-1.217191494E-1,-3.515833708E0,1.118577617E0,3.691492665E0
1.215837042E1,-2.023817085E-1,-3.661891308E0,6.029426587E-1,3.716711740E0
1.216834842E1,-4.282927591E-1,-3.630322775E0,2.029246956E-1,3.661127773E0
1.217832742E1,-5.859057726E-1,-3.673407984E0,-4.535041988E-2,3.720116725E0
1.218830542E1,-7.569277672E-1,-3.917571922E0,-1.454986060E-1,3.992678206E0
1.219828342E1,-9.791077095E-1,-4.234253029E0,-4.388700798E-2,4.346202559E0
1.220826242E1,-9.844868555E-1,-4.654525162E0,3.530991738E-1,4.770586744E0
1.221824042E1,-1.008196950E0,-4.996268604E0,7.760816377E-1,5.155721459E0
1.222821942E1,-1.312033916E0,-5.138411493E0,9.899925938E-1,5.394885634E0
1.223819742E1,-1.561351883E0,-5.150932721E0,1.042818752E0,5.482462818E0
1.224817542E1,-1.665438899E0,-5.248007610E0,1.177678349E0,5.630470398E0
1.225815442E1,-1.281253588E0,-5.283210188E0,1.357537533E0,5.603287321E0
1.226813242E1,-1.099750898E0,-4.969827495E0,1.285568833E0,5.249888055E0
1.227811142E1,-8.774889486E-1,-4.653008394E0,9.662186189E-1,4.832603066E0
1.228808942E1,-8.044494045E-1,-4.353047985E0,5.026722658E-1,4.455204262E0
1.229806742E1,-7.874813694E-1,-4.001633248E0,-7.268586069E-2,4.079029149E0
1.230804642E1,-9.672648320E-1,-3.393010020E0,-7.447262362E-1,3.605930589E0
1.231802442E1,-1.235336865E0,-2.566757517E0,-1.933361975E0,3.442700953E0
1.232800342E1,-1.467147976E0,-1.506822211E0,-3.618336860E0,4.185140140E0
1.233798142E1,-1.598202205E0,-3.413978720E-1,-5.619656637E0,5.852464739E0
1.234795942E1,-1.630635541E0,3.496705127E-1,-7.610982646E0,7.791553027E0
1.235793842E1,-1.867604772E0,6.733156532E-1,-9.583161362E0,9.786637995E0
1.236791642E1,-2.010574311E0,8.440350544E-1,-1.125537791E1,1.146465596E1
1.237789542E1,-1.830127482E0,7.745251089E-1,-1.203958309E1,1.220249223E1
1.238787342E1,-1.802208928E0,5.751455802E-1,-1.213036462E1,1.227699048E1
1.239785142E1,-1.883541797E0,3.179786038E-1,-1.205996414E1,1.221030611E1
1.240783042E1,-1.967754420E0,-8.240481019E-3,-1.191882990E1,1.208017515E1
1.241780842E1,-1.933446613E0,-2.296622586E-1,-1.155094063E1,1.171388877E1
1.242778642E1,-1.896959842E0,-4.020346677E-1,-1.059086057E1,1.076691302E1
1.243776542E1,-2.025662905E0,-5.456551480E-1,-9.219994306E0,9.455651471E0
1.244774342E1,-2.201438979E0,-5.586997014E-1,-7.391993895E0,7.733049377E0
1.245772242E1,-2.471219861E0,-3.921259761E-1,-5.506900685E0,6.048689572E0
1.246770042E1,-2.581400992E0,-2.802576309E-1,-3.975252658E0,4.748137436E0
1.247767842E1,-2.494351446E0,-2.888033366E-1,-2.777372179E0,3.744194536E0
1.248765742E1,-2.356594992E0,-2.774696785E-1,-1.924422752E0,3.055148492E0
1.249763542E1,-2.016661848E0,-3.643236351E-1,-1.383616992E0,2.472661056E0
1.250761442E1,-1.632002181E0,-5.547627711E-1,-1.028497459E0,2.007236876E0
1.251759242E1,-1.251473280E0,-7.967948145E-1,-7.377817905E-1,1.656921639E0
1.252757042E1,-8.209783868E-1,-1.125014817E0,-4.849633884E-1,1.474738396E0
1.253754942E1,-5.279760184E-1,-1.445060411E0,-2.432894871E-1,1.557609721E0
1.254752742E1,-3.848670598E-1,-1.582879284E0,-6.496125028E-2,1.630291215E0
1.255750642E1,-3.114088185E-1,-1.645625755E0,1.805747370E-1,1.684537567E0
1.256748442E1,-4.389042495E-1,-1.727639387E0,4.916654670E-1,1.849083482E0
1.257746242E1,-4.350311269E-1,-1.800793902E0,6.728659292E-1,1.971004646E0
1.258744142E1,-3.063758276E-1,-1.831204686E0,7.700993514E-1,2.010032278E0
1.259741942E1,-1.251760963E-1,-1.869073593E0,8.041120201E-1,2.038553726E0
1.260739842E1,3.500296779E-2,-1.944036067E0,6.581421286E-1,2.052718320E0
1.261737642E1,1.494625796E-1,-1.969908242E0,4.438633827E-1,2.024819066E0
1.262735442E1,2.155573858E-1,-1.958667555E0,2.147093202E-1,1.982156318E0
1.263733342E1,2.183783749E-1,-1.883141994E0,5.439226180E-3,1.895769624E0
1.264731142E1,1.960833071E-1,-1.739113963E0,-1.924400532E-1,1.760681463E0
1.265729042E1,2.129301587E-1,-1.730312734E0,-3.445600462E-1,1.777088359E0
1.266726842E1,1.855539335E-1,-1.786557686E0,-3.411534584E-1,1.828279057E0
1.267724642E1,2.005517493E-1,-1.891477200E0,-2.216264302E-1,1.914947852E0
1.268722542E1,2.766018055E-1,-2.002159145E0,2.717844307E-2,2.021358075E0
1.269720342E1,3.266333601E-1,-2.149492022E0,3.431225082E-1,2.201076637E0
1.270718242E1,4.104746850E-1,-2.302494360E0,5.845745078E-1,2.410746171E0
1.271716042E1,5.343172507E-1,-2.265139423E0,7.132515514E-1,2.434148579E0
1.272713842E1,6.694918665E-1,-2.046462913E0,6.108638817E-1,2.238165431E0
1.273711742E1,7.360106689E-1,-1.792775030E0,2.976007649E-1,1.960693813E0
1.274709542E1,7.135510750E-1,-1.645743869E0,-1.531859404E-1,1.800303850E0
1.275707342E1,5.379017401E-1,-1.645054482E0,-4.022399050E-1,1.776890394E0
1.276705242E1,2.794552468E-1,-1.645312344E0,-3.230674356E-1,1.699858969E0
1.277703042E1,6.652245685E-2,-1.667159296E0,-7.790362358E-2,1.670303664E0
1.278700942E1,-1.945200540E-2,-1.652482785E0,2.842559570E-1,1.676865881E0
1.279698742E1,1.034240887E-2,-1.596133752E0,7.041556227E-1,1.744587362E0
1.280696542E1,1.169521337E-1,-1.481882667E0,1.078860404E0,1.836734551E0
1.281694442E1,1.655464426E-1,-1.367429268E0,1.417612996E0,1.976586713E0
1.282692242E1,5.692988031E-2,-1.267778095E0,1.699069891E0,2.120693472E0
1.283690142E1,-9.700903527E-2,-1.173091793E0,1.828944737E0,2.174992864E0
1.284687942E1,-2.021276105E-1,-1.004438213E0,1.887711593E0,2.147837692E0
1.285685742E1,-2.608135193E-1,-7.570331633E-1,1.741676213E0,1.916913908E0
1.286683642E1,-3.502115994E-1,-4.529165536E-1,1.432595901E0,1.542761351E0
1.287681442E1,-4.142450793E-1,-1.914243919E-1,9.773983490E-1,1.078679663E0
1.288679342E1,-4.156206733E-1,-9.279531240E-4,5.278375125E-1,6.718287317E-1
1.289677142E1,-4.862819356E-1,9.335021317E-2,3.450313318E-1,6.035155367E-1
1.290674942E1,-6.304758815E-1,1.454810643E-1,7.559362257E-1,9.950397754E-1
1.291672842E1,-8.434440471E-1,9.394604445E-2,1.531535468E0,1.750949631E0
1.292670642E1,-8.206786439E-1,4.743846059E-2,2.256566235E0,2.401635905E0
1.293668542E1,-6.020870648E-1,9.800927460E-2,2.736155448E0,2.803330392E0
1.294666342E1,-3.921219561E-1,1.126390082E-1,2.917530230E0,2.945917483E0
1.295664142E1,-2.482430837E-1,1.111041141E-1,2.833261328E0,2.846285036E0
1.296662042E1,-2.707428406E-1,1.467522490E-1,2.510745285E0,2.529561186E0
1.297659842E1,-4.030020896E-1,2.670008236E-1,2.029901844E0,2.086672380E0
1.298657742E1,-5.093731384E-1,4.379564524E-1,1.527637714E0,1.668815099E0
1.299655542E1,-6.349030278E-1,5.963382286E-1,1.148806552E0,1.441692627E0
1.300653342E1,-9.603469911E-1,6.719234312E-1,1.044431414E0,1.569899493E0
1.301651242E1,-1.365168296E0,5.982783347E-1,1.317964747E0,1.989636277E0
1.302649042E1,-1.616859647E0,4.407999533E-1,1.916162975E0,2.545627676E0
1.303646942E1,-1.739668425E0,2.051665181E-1,2.753807607E0,3.263739553E0
1.304644742E1,-1.672679506E0,-1.539916867E-1,3.561846033E0,3.938060098E0
1.305642542E1,-1.678519559E0,-5.384063548E-1,4.442315088E0,4.779275327E0
1.306640442E1,-1.782472236E0,-1.028776664E0,5.516417613E0,5.887822346E0
1.307638242E1,-1.722970823E0,-1.480406830E0,6.515681040E0,6.900313925E0
1.308636142E1,-1.629616663E0,-1.889775660E0,7.186841410E0,7.607732380E0
1.309633942E1,-1.585170223E0,-2.332970633E0,7.580091221E0,8.087848881E0
1.310631742E1,-1.579727342E0,-2.644504436E0,7.599748975E0,8.200312596E0
1.311629642E1,-1.584622485E0,-2.871106262E0,7.172138001E0,7.886307317E0
1.312627442E1,-1.313201020E0,-2.974465739E0,6.439806401E0,7.214086902E0
1.313625242E1,-9.729444518E-1,-3.071133662E0,5.518174117E0,6.389736181E0
1.314623142E1,-6.834860078E-1,-3.081257531E0,4.570906470E0,5.554681544E0
1.315620942E1,-4.427494881E-1,-3.022852033E0,3.668060120E0,4.773712032E0
1.316618842E1,-4.111489420E-1,-3.086235266E0,2.978518444E0,4.308765912E0
1.317616642E1,-5.482436008E-1,-3.314204171E0,2.789249336E0,4.366283567E0
1.318614542E1,-5.455718252E-1,-3.636320849E0,2.877590239E0,4.669154476E0
1.319612342E1,-4.330426716E-1,-4.134886615E0,3.090666870E0,5.180447373E0
1.320610142E1,-4.008316031E-1,-4.791585066E0,3.243708385E0,5.800137714E0
1.321608042E1,-4.203580874E-1,-5.309913837E0,3.146604844E0,6.186518239E0
1.322605842E1,-6.477468024E-1,-5.829245405E0,2.961412707E0,6.570360959E0
1.323603642E1,-9.670470232E-1,-6.458459018E0,3.049493701E0,7.207377101E0
1.324601542E1,-1.229377676E0,-6.990603005E0,3.364076242E0,7.854737985E0
1.325599342E1,-1.404725148E0,-7.280665247E0,3.782969018E0,8.324193281E0
1.326597242E1,-1.251571660E0,-7.505373160E0,4.015083014E0,8.603368497E0
1.327595042E1,-1.150310237E0,-7.629530014E0,3.796385454E0,8.599156028E0
1.328592842E1,-1.162456731E0,-7.633909578E0,3.438915925E0,8.453048198E0
1.329590742E1,-9.958565471E-1,-7.604108659E0,2.896127082E0,8.197667402E0
1.330588542E1,-8.976116297E-1,-7.250995890E0,2.145625551E0,7.614877349E0
1.331586442E1,-9.263360766E-1,-6.412699878E0,9.888261473E-1,6.554280693E0
1.332584242E1,-9.222814710E-1,-5.144898979E0,-6.570551312E-1,5.268046133E0
1.333582042E1,-9.988245206E-1,-3.992985216E0,-2.964382215E0,5.072390292E0
1.334579942E1,-1.248079703E0,-3.111241468E0,-5.976621552E0,6.852556573E0
1.335577742E1,-1.657245927E0,-2.187875485E0,-9.565555980E0,9.951538796E0
1.336575642E1,-2.102208659E0,-1.377312232E0,-1.305063567E1,1.329042368E1
1.337573442E1,-2.370681519E0,-7.738357222E-1,-1.563388292E1,1.583152702E1
1.338571242E1,-2.557335314E0,-4.157808870E-1,-1.703852796E1,1.723439215E1
1.339569142E1,-2.592396973E0,-6.178507197E-1,-1.748511374E1,1.768704226E1
1.340566942E1,-2.410127859E0,-1.159975904E0,-1.670249199E1,1.691530369E1
1.341564842E1,-2.294635264E0,-1.717626030E0,-1.484426089E1,1.511845467E1
1.342562642E1,-2.468478101E0,-2.023578081E0,-1.242570982E1,1.282912768E1
1.343560442E1,-2.705869210E0,-2.259194559E0,-9.951089805E0,1.055698236E1
1.344558342E1,-2.726996369E0,-2.332006427E0,-7.579559124E0,8.385969216E0
1.345556142E1,-2.838497509E0,-2.132803484E0,-5.535091866E0,6.575953222E0
1.346554042E1,-2.845156319E0,-1.711605152E0,-3.905015903E0,5.125783440E0
1.347551842E1,-2.740223648E0,-1.084685985E0,-2.678362446E0,3.982335335E0
1.348549642E1,-2.735286552E0,-2.900523019E-1,-1.975472160E0,3.386504557E0
1.349547542E1,-2.641472362E0,3.783996373E-1,-1.674028021E0,3.150068624E0
1.350545342E1,-2.475399451E0,8.343883181E-1,-1.538596273E0,3.031680194E0
1.351543242E1,-2.239049439E0,1.072185223E0,-1.440650733E0,2.870260978E0
1.352541042E1,-1.965435122E0,9.540246892E-1,-1.400279218E0,2.594972103E0
1.353538842E1,-1.538441176E0,5.319826037E-1,-1.397051847E0,2.145124846E0
1.354536742E1,-1.021496222E0,-7.937010527E-3,-1.346725154E0,1.690321321E0
1.355534542E1,-5.363388524E-1,-4.342177427E-1,-1.168536812E0,1.357086104E0
1.356532442E1,-2.794907138E-1,-7.465415043E-1,-9.437885535E-1,1.235385005E0
1.357530242E1,-1.426952863E-1,-9.473360592E-1,-7.343222854E-1,1.207077782E0
1.358528042E1,-1.521900499E-2,-1.121366154E0,-5.223765054E-1,1.237162432E0
1.359525942E1,-3.576186329E-2,-1.238670655E0,-3.169110484E-1,1.279068613E0
1.360523742E1,1.276783392E-2,-1.315676731E0,-1.930366154E-1,1.329823828E0
1.361521658E1,7.552420881E-2,-1.390973666E0,-1.726869893E-1,1.403685308E0
1.362519558E1,9.283843562E-2,-1.572993397E0,-2.084099686E-1,1.589453339E0
1.363517358E1,1.805908900E-1,-1.731053576E0,-2.743010724E-1,1.761930938E0
1.364515258E1,2.540343305E-1,-1.855569448E0,-4.026802003E-1,1.915678147E0
1.365513058E1,2.953868629E-1,-1.900966646E0,-5.032675123E-1,1.988518488E0
1.366510858E1,3.393093927E-1,-1.919504659E0,-6.028572893E-1,2.040359260E0
1.367508758E1,3.896314808E-1,-1.940129542E0,-7.472800076E-1,2.115264225E0
1.368506558E1,3.161983459E-1,-1.899424151E0,-8.906420410E-1,2.121564692E0
1.369504458E1,1.838570715E-1,-1.807773138E0,-9.855763379E-1,2.067173882E0
1.370502258E1,1.575628737E-1,-1.794700518E0,-1.063747252E0,2.092207979E0
1.371500058E1,1.753889877E-1,-1.839449844E0,-1.130630629E0,2.166255443E0
1.372497958E1,1.486161952E-1,-1.851144276E0,-1.200815781E0,2.211510896E0
1.373495758E1,9.828628644E-2,-1.901354901E0,-1.268770368E0,2.287922398E0
1.374493658E1,3.938859880E-2,-1.985277064E0,-1.377234756E0,2.416537203E0
1.375491458E1,3.666730464E-2,-2.074807876E0,-1.447133834E0,2.529894967E0
1.376489258E1,1.432687703E-1,-2.221669468E0,-1.561505664E0,2.719308939E0
1.377487158E1,2.286543448E-1,-2.493000154E0,-1.591140523E0,2.966321079E0
1.378484958E1,1.770123209E-1,-2.801501006E0,-1.577934878E0,3.220189394E0
1.379482858E1,-4.915900379E-3,-3.005844237E0,-1.344445617E0,3.292819120E0
1.380480658E1,-2.434529167E-1,-3.034613707E0,-8.605505151E-1,3.163652456E0
1.381478458E1,-4.911369518E-1,-2.931924321E0,-3.477672440E-1,2.993048243E0
1.382476358E1,-5.932323338E-1,-2.663480405E0,6.586420655E-2,2.729540357E0
1.383474158E1,-5.044341780E-1,-2.299970702E0,1.717748237E-1,2.360895097E0
1.384472058E1,-3.452461439E-1,-1.973066323E0,-9.390745282E-2,2.005244181E0
1.385469858E1,-5.363639954E-1,-2.002642125E0,-4.178449541E-1,2.114912817E0
1.386467658E1,-1.100621548E0,-2.302091487E0,-1.138406110E-1,2.554202947E0
1.387465558E1,-1.441054045E0,-2.367450494E0,8.402197462E-1,2.896105631E0
1.388463358E1,-1.357596005E0,-2.214991947E0,1.808478897E0,3.165415006E0
1.389461258E1,-1.066546899E0,-1.955228807E0,2.537662357E0,3.376414106E0
1.390459058E1,-7.048295874E-1,-1.657744110E0,2.876126681E0,3.393671311E0
1.391456858E1,-4.102750026E-1,-1.477204310E0,2.931212715E0,3.307939862E0
1.392454758E1,-2.373144732E-1,-1.287414799E0,2.753698264E0,3.049034135E0
1.393452558E1,-3.516030174E-1,-1.129880869E0,2.485606935E0,2.752907063E0
1.394450458E1,-6.921391560E-1,-1.036386230E0,2.332036833E0,2.644153705E0
1.395448258E1,-8.579570556E-1,-8.970985365E-1,2.390494371E0,2.693573729E0
1.396446058E1,-7.784575076E-1,-6.891218466E-1,2.560143732E0,2.763190355E0
1.397443958E1,-6.021436732E-1,-5.543616521E-1,2.669881936E0,2.792519185E0
1.398441758E1,-4.549635542E-1,-4.242730907E-1,2.669419422E0,2.740948657E0
1.399439658E1,-3.529850434E-1,-2.798515418E-1,2.615404013E0,2.653912862E0
1.400437458E1,-3.595214631E-1,-1.508517319E-1,2.533259404E0,2.563087032E0
1.401435258E1,-4.826388644E-1,-1.178076544E-1,2.543364562E0,2.591432463E0
1.402433158E1,-6.295621079E-1,-1.030253085E-1,2.732657059E0,2.806132082E0
1.403430958E1,-7.711742158E-1,-1.315714154E-1,3.174178559E0,3.269163537E0
1.404428858E1,-8.747881928E-1,-2.601151425E-1,3.743171114E0,3.852822894E0
1.405426658E1,-8.983790767E-1,-4.449231175E-1,4.276030215E0,4.391978591E0
1.406424458E1,-8.393018796E-1,-6.515964630E-1,4.775156729E0,4.891945153E0
1.407422358E1,-8.389552858E-1,-9.039947426E-1,5.224792410E0,5.368380407E0
1.408420158E1,-7.873536077E-1,-1.277733272E0,5.758349669E0,5.950724236E0
1.409418058E1,-6.086302453E-1,-1.703091606E0,6.467926830E0,6.716027790E0
1.410415858E1,-4.218131670E-1,-2.128094137E0,7.280307983E0,7.596683179E0
1.411413658E1,-3.366599097E-1,-2.695690961E0,8.207721409E0,8.645622035E0
1.412411558E1,-1.538763138E-1,-3.369725237E0,9.111129676E0,9.715524178E0
1.413409358E1,3.102079466E-2,-3.970531324E0,9.678778540E0,1.046158857E1
1.414407258E1,3.453365564E-2,-4.462190651E0,9.626847079E0,1.061077390E1
1.415405058E1,-1.810819830E-1,-4.934868747E0,8.842282886E0,1.012776811E1
1.416402858E1,-5.794747125E-1,-5.380134804E0,7.656397970E0,9.375610450E0
1.417400758E1,-8.755169021E-1,-5.736887464E0,6.516462228E0,8.725977744E0
1.418398558E1,-1.009080537E0,-6.015382159E0,5.773060679E0,8.398291234E0
1.419396358E1,-1.050342876E0,-6.231898123E0,5.340221125E0,8.273919025E0
1.420394258E1,-8.998268473E-1,-6.555639158E0,4.948705598E0,8.262915964E0
1.421392058E1,-6.658955365E-1,-6.868828892E0,4.366698310E0,8.166534231E0
1.422389958E1,-5.935790006E-1,-7.282832226E0,3.742325606E0,8.209566505E0
1.423387758E1,-5.683764779E-1,-7.826311040E0,3.232392561E0,8.486610512E0
1.424385658E1,-7.445656570E-1,-8.300172905E0,2.827648878E0,8.800161728E0
1.425383458E1,-1.056362731E0,-8.727295636E0,2.514866695E0,9.143639638E0
1.426381258E1,-1.568044313E0,-9.269842404E0,2.523426141E0,9.734290968E0
1.427379158E1,-2.265288966E0,-9.691126691E0,2.758407319E0,1.032754964E1
1.428376958E1,-2.923064912E0,-9.923572809E0,3.006461703E0,1.077313407E1
1.429374758E1,-3.121508594E0,-1.026591091E1,3.199423327E0,1.119683225E1
1.430372658E1,-2.186458412E0,-1.071496187E1,3.021245803E0,1.134543673E1
1.431370458E1,-1.412034752E0,-1.066072661E1,1.915433242E0,1.092308649E1
1.432368358E1,-1.368569767E0,-1.039845911E1,1.359980500E-1,1.048901475E1
1.433366158E1,-1.432640340E0,-9.717632119E0,-1.651130616E0,9.960475122E0
1.434363958E1,-1.650376326E0,-8.620579857E0,-3.178537365E0,9.334947181E0
1.435361858E1,-1.847422084E0,-7.282483732E0,-4.740026658E0,8.883433479E0
1.436359658E1,-1.801393095E0,-5.838922547E0,-6.564812855E0,8.968545111E0
1.437357558E1,-2.293682314E0,-4.459037540E0,-9.052614834E0,1.034861487E1
1.438355358E1,-3.316304783E0,-3.410501381E0,-1.210015907E1,1.300166323E1
1.439353158E1,-4.133161979E0,-2.424417577E0,-1.483970123E1,1.559415150E1
1.440351058E1,-4.362704370E0,-1.493536168E0,-1.688561743E1,1.750394000E1
1.441348858E1,-4.406588893E0,-1.058082324E0,-1.818529208E1,1.874146238E1
1.442346758E1,-4.378135172E0,-1.288356201E0,-1.839564450E1,1.895330224E1
1.443344558E1,-4.096872112E0,-1.775843248E0,-1.741759126E1,1.798083607E1
1.444342358E1,-4.032283476E0,-2.449753563E0,-1.525023775E1,1.596340671E1
1.445340258E1,-3.994056426E0,-3.138093052E0,-1.253379911E1,1.352391345E1
1.446338058E1,-3.925371815E0,-3.526346417E0,-9.704529678E0,1.104633691E1
1.447335958E1,-3.868105939E0,-3.484267514E0,-7.132678651E0,8.830485174E0
1.448333758E1,-3.730311332E0,-3.077949176E0,-5.095529183E0,7.025198319E0
1.449331558E1,-3.521903995E0,-2.373500023E0,-3.647798349E0,5.598548285E0
1.450329458E1,-3.453691839E0,-1.676418362E0,-3.107137892E0,4.938893775E0
1.451327258E1,-3.372415541E0,-1.034720358E0,-2.805930857E0,4.507447257E0
1.452325158E1,-3.127738218E0,-4.943195182E-1,-2.556185752E0,4.069543432E0
1.453322958E1,-2.742633578E0,-2.009518450E-1,-2.433466144E0,3.672080890E0
1.454320758E1,-2.327112892E0,-2.499263692E-1,-2.297466632E0,3.279675369E0
1.455318658E1,-1.824606541E0,-5.223504853E-1,-2.172474211E0,2.884732788E0
1.456316458E1,-1.276256996E0,-7.630481941E-1,-1.987100226E0,2.481862561E0
1.457314358E1,-7.315405456E-1,-1.083299611E0,-1.740810532E0,2.176949913E0
1.458312158E1,-3.100232477E-1,-1.329574394E0,-1.357341067E0,1.925164215E0
1.459309958E1,-1.098446969E-2,-1.451289450E0,-8.806185977E-1,1.697601496E0
1.460307858E1,2.111571002E-1,-1.579527075E0,-4.782437682E-1,1.663793919E0
1.461305658E1,2.583270822E-1,-1.712873413E0,-1.658656275E-1,1.740166549E0
1.462303433E1,3.903987086E-1,-1.789875981E0,5.664636344E-3,1.831965956E0
1.463301233E1,5.031320031E-1,-1.831632702E0,9.193928003E-2,1.901702658E0
1.464299033E1,6.153527161E-1,-1.860791597E0,-6.751158647E-3,1.959910689E0
1.465296933E1,6.948967760E-1,-1.937428129E0,-1.987375045E-1,2.067850546E0
1.466294733E1,7.173987622E-1,-1.952357240E0,-4.112469560E-1,2.120255606E0
1.467292633E1,6.979252683E-1,-1.909765536E0,-6.726191767E-1,2.141663055E0
1.468290433E1,5.793734825E-1,-1.927822908E0,-8.136634469E-1,2.171226151E0
1.469288233E1,4.386015464E-1,-1.894989038E0,-8.552194624E-1,2.124795307E0
1.470286133E1,3.493027959E-1,-1.876587265E0,-9.110437073E-1,2.115086959E0
1.471283933E1,2.554416823E-1,-1.928605850E0,-9.638871878E-1,2.171140135E0
1.472281833E1,1.731064539E-1,-2.072460803E0,-1.022268128E0,2.317345842E0
1.473279633E1,9.685905419E-2,-2.266812896E0,-1.064644654E0,2.506250311E0
1.474277433E1,-1.217777677E-2,-2.509117420E0,-1.093904706E0,2.737233280E0
1.475275333E1,-1.431855936E-1,-2.746219676E0,-1.134154015E0,2.974647870E0
1.476273133E1,-2.322415385E-1,-2.961131163E0,-1.109106005E0,3.170544122E0
1.477270933E1,-3.067224944E-1,-3.186827840E0,-1.026323757E0,3.362036708E0
1.478268833E1,-3.098693197E-1,-3.246382316E0,-1.005854409E0,3.412735007E0
1.479266633E1,-3.440701226E-1,-3.201152349E0,-1.113315707E0,3.406645341E0
1.480264533E1,-3.864305688E-1,-3.163401555E0,-1.329929320E0,3.453281046E0
1.481262333E1,-5.473452857E-1,-3.162778827E0,-1.565899554E0,3.571386031E0
1.482260133E1,-8.172451589E-1,-3.279590408E0,-1.469035749E0,3.685331590E0
1.483258033E1,-1.176068391E0,-3.478250145E0,-7.477127016E-1,3.747056874E0
1.484255833E1,-1.404487313E0,-3.444275483E0,3.141007304E-1,3.732864514E0
1.485253733E1,-1.333587630E0,-3.098351866E0,1.443973998E0,3.669237136E0
1.486251533E1,-1.067113056E0,-2.635245954E0,2.220453832E0,3.607446012E0
1.487249333E1,-7.730283679E-1,-2.227642398E0,2.443752565E0,3.395863677E0
1.488247233E1,-5.396351837E-1,-1.941690749E0,2.177258111E0,2.966786473E0
1.489245033E1,-5.482748468E-1,-1.827612741E0,1.916288105E0,2.704243654E0
1.490242933E1,-8.558538122E-1,-1.876877287E0,2.355423356E0,3.131001962E0
1.491240733E1,-1.104292138E0,-1.864388511E0,3.204415680E0,3.868292323E0
1.492238533E1,-1.074454966E0,-1.675282541E0,4.020867079E0,4.486468225E0
1.493236433E1,-8.610301329E-1,-1.530937006E0,4.519888929E0,4.849178996E0
1.494234233E1,-6.798094247E-1,-1.522966081E0,4.596205033E0,4.889444472E0
1.495232133E1,-6.657464325E-1,-1.653263973E0,4.283331048E0,4.639334537E0
1.496229933E1,-5.219849613E-1,-1.438356871E0,3.816498122E0,4.111811851E0
1.497227733E1,-3.496181801E-1,-1.063780143E0,3.389343815E0,3.569525538E0
1.498225633E1,-2.294386940E-1,-6.956932399E-1,3.187050619E0,3.270156395E0
1.499223433E1,-2.369106133E-1,-4.093065575E-1,3.178323065E0,3.213315422E0
1.500221333E1,-3.579617183E-1,-3.089399779E-1,3.238604350E0,3.272940366E0
1.501219133E1,-4.526901202E-1,-2.917067716E-1,3.344036080E0,3.387122450E0
1.502216933E1,-4.345287415E-1,-3.643420538E-1,3.501310979E0,3.546933736E0
1.503214833E1,-3.852857936E-1,-3.997147849E-1,3.747928993E0,3.788824196E0
1.504212633E1,-3.260880341E-1,-4.219365433E-1,4.053222063E0,4.088150308E0
1.505210533E1,-3.006221492E-1,-5.200957990E-1,4.328475062E0,4.369962205E0
1.506208333E1,-3.475218802E-1,-7.619138342E-1,4.563401569E0,4.639603218E0
1.507206133E1,-3.662917348E-1,-1.038977424E0,4.803911582E0,4.928611387E0
1.508204033E1,-4.065090302E-1,-1.258250349E0,5.004377523E0,5.176121900E0
1.509201833E1,-3.683459713E-1,-1.469978028E0,5.152315587E0,5.370555844E0
1.510199733E1,-7.816426322E-2,-1.636684485E0,5.154474379E0,5.408646031E0
1.511197533E1,2.669951957E-2,-1.683419234E0,5.148908415E0,5.417182944E0
1.512195333E1,-1.259349187E-1,-1.914175214E0,5.000118411E0,5.355474814E0
1.513193233E1,-2.437294170E-1,-2.136193700E0,4.930882700E0,5.379250111E0
1.514191033E1,-2.625581092E-1,-2.328464769E0,5.082299858E0,5.596468242E0
1.515188933E1,-2.965974558E-1,-2.658723695E0,5.458427267E0,6.078750691E0
1.516186733E1,-2.788210431E-1,-3.196045976E0,5.845688360E0,6.668172422E0
1.517184533E1,-3.027900957E-1,-3.820893474E0,6.042672869E0,7.155753222E0
1.518182433E1,-3.469826207E-1,-4.677243349E0,6.196024870E0,7.770954026E0
1.519180233E1,-9.527109660E-2,-5.489331556E0,6.132235841E0,8.230805180E0
1.520178133E1,1.310172455E-1,-6.186946483E0,5.984628144E0,8.608788900E0
1.521175933E1,3.910075499E-1,-7.150782216E0,5.886802472E0,9.270437775E0
1.522173733E1,3.652015214E-1,-8.019863818E0,5.576082602E0,9.774675698E0
1.523171633E1,-3.616115503E-2,-8.585728113E0,5.003974065E0,9.937594845E0
1.524169433E1,-9.726968953E-1,-9.122098467E0,4.320114713E0,1.014012874E1
1.525167333E1,-2.416574122E0,-9.530626468E0,3.906046475E0,1.057969141E1
1.526165133E1,-3.778180148E0,-9.793562892E0,3.979685432E0,1.122614874E1
1.527162933E1,-5.029014766E0,-1.005398794E1,4.223496198E0,1.200881273E1
1.528160833E1,-4.932734513E0,-1.032389073E1,4.708948706E0,1.237290538E1
1.529158633E1,-2.361604594E0,-1.009572536E1,4.046451572E0,1.112989745E1
1.530156533E1,-6.047713023E-1,-9.818043430E0,9.284483832E-1,9.880371527E0
1.531154333E1,-1.164339534E0,-9.567309560E0,-2.668478605E0,1.000049383E1
1.532152133E1,-1.913538452E0,-8.373309878E0,-5.314022090E0,1.010013755E1
1.533150033E1,-2.032370539E0,-6.349374533E0,-6.732942524E0,9.475104326E0
1.534147833E1,-1.763649318E0,-4.729128617E0,-7.961318572E0,9.426436749E0
1.535145733E1,-2.113280216E0,-3.595327190E0,-9.440969356E0,1.032105776E1
1.536143533E1,-2.834783066E0,-2.679279581E0,-1.100842544E1,1.167903955E1
1.537141333E1,-3.652455948E0,-1.804136755E0,-1.266763954E1,1.330655611E1
1.538139233E1,-4.136667677E0,-1.202840672E0,-1.410381277E1,1.474708038E1
1.539137033E1,-4.600997996E0,-3.798351288E-1,-1.512539969E1,1.581427119E1
1.540134933E1,-4.731073986E0,-3.231054425E-2,-1.568154592E1,1.637971268E1
1.541132733E1,-4.487440390E0,-2.233987212E-1,-1.523488998E1,1.588360478E1
1.542130533E1,-4.103630324E0,-6.043436515E-1,-1.399906224E1,1.460064234E1
1.543128433E1,-3.771603785E0,-1.289520966E0,-1.222511641E1,1.285851199E1
1.544126233E1,-3.510765049E0,-1.704706022E0,-9.881546531E0,1.062433319E1
1.545124133E1,-3.420018309E0,-1.717074053E0,-7.492270135E0,8.413024445E0
1.546121933E1,-3.331047075E0,-1.534915159E0,-5.497677287E0,6.608804333E0
1.547119733E1,-3.237415611E0,-1.169836648E0,-4.115234416E0,5.365121799E0
1.548117633E1,-3.096483681E0,-6.743968034E-1,-3.380049959E0,4.633331410E0
1.549115433E1,-2.904319616E0,-2.296593350E-1,-2.980064155E0,4.167565022E0
1.550113333E1,-2.723716958E0,1.270892322E-1,-2.711189007E0,3.845169902E0
1.551111133E1,-2.415610501E0,3.058134717E-1,-2.501131585E0,3.490609571E0
1.552108933E1,-1.877293901E0,1.821214718E-1,-2.306200325E0,2.979255035E0
1.553106833E1,-1.350741022E0,-4.324015975E-3,-2.051209098E0,2.456008707E0
1.554104633E1,-8.181402214E-1,-1.470498723E-1,-1.592800255E0,1.796660719E0
1.555102533E1,-4.648088401E-1,-3.721238208E-1,-1.088180866E0,1.240427746E0
1.556100333E1,-2.625544181E-1,-5.685645390E-1,-5.996962114E-1,8.670847729E-1
1.557098133E1,-6.716832750E-2,-6.995029932E-1,-1.674058207E-1,7.223854446E-1
1.558096033E1,8.999961242E-4,-7.794584048E-1,1.883072412E-1,8.018826796E-1
1.559093833E1,5.631939445E-2,-8.998660237E-1,3.655749758E-1,9.729212700E-1
1.560091733E1,1.117006031E-1,-1.101777982E0,4.245943586E-1,1.186032088E0
1.561089533E1,2.214226547E-1,-1.487114756E0,4.024159793E-1,1.556430824E0
1.562087392E1,4.930791045E-1,-1.847914274E0,3.112374951E-1,1.937726231E0
1.563085292E1,6.872216477E-1,-1.921010901E0,1.609948969E-1,2.046576613E0
1.564083092E1,7.374066916E-1,-1.963311414E0,-4.845719174E-2,2.097786556E0
1.565080892E1,7.114330673E-1,-2.051220793E0,-2.064857961E-1,2.180889757E0
1.566078792E1,6.643767223E-1,-2.189760042E0,-2.913610549E-1,2.306802275E0
1.567076592E1,6.549618280E-1,-2.262915142E0,-3.452210739E-1,2.380953071E0
1.568074492E1,5.884881954E-1,-2.254941879E0,-3.984155336E-1,2.364279207E0
1.569072292E1,4.745508130E-1,-2.275314163E0,-4.330535620E-1,2.364273335E0
1.570070092E1,3.881487000E-1,-2.321156918E0,-4.643735880E-1,2.398764616E0
1.571067992E1,3.626717967E-1,-2.369080113E0,-4.888582188E-1,2.446028163E0
1.572065792E1,4.043929960E-1,-2.450278058E0,-4.890406519E-1,2.531117740E0
1.573063692E1,4.963376847E-1,-2.465356858E0,-5.608579087E-1,2.576605738E0
1.574061492E1,5.480568919E-1,-2.406194145E0,-6.903111702E-1,2.562550708E0
1.575059292E1,5.464040302E-1,-2.310272911E0,-9.267632157E-1,2.548491386E0
1.576057192E1,5.312218809E-1,-2.332436782E0,-1.231685572E0,2.690633267E0
1.577054992E1,4.873625010E-1,-2.356712667E0,-1.478638047E0,2.824533108E0
1.578052892E1,4.168251997E-1,-2.275230548E0,-1.650084257E0,2.841336895E0
1.579050692E1,2.891106078E-1,-2.176989723E0,-1.748754267E0,2.807313785E0
1.580048492E1,7.004891261E-2,-2.075285009E0,-1.646883491E0,2.650271675E0
1.581046392E1,-1.522127444E-1,-1.904106016E0,-1.447577053E0,2.396720210E0
1.582044192E1,-3.492874470E-1,-1.660874124E0,-1.309101537E0,2.143420494E0
1.583042092E1,-5.136949982E-1,-1.475712100E0,-1.328937632E0,2.051263997E0
1.584039892E1,-6.454158099E-1,-1.389344632E0,-1.477965617E0,2.128666822E0
1.585037692E1,-7.652487937E-1,-1.278344598E0,-1.607913553E0,2.192066747E0
1.586035592E1,-8.898900890E-1,-1.247252029E0,-1.570237604E0,2.193897930E0
1.587033392E1,-1.244737434E0,-1.391291755E0,-9.173246402E-1,2.080035702E0
1.588031292E1,-1.587973963E0,-1.527217884E0,3.217021108E-1,2.226555191E0
1.589029092E1,-1.637904215E0,-1.494944177E0,1.717022012E0,2.804594962E0
1.590026892E1,-1.539268557E0,-1.432343009E0,2.938503608E0,3.613275196E0
1.591024792E1,-1.325574021E0,-1.480457408E0,3.708324047E0,4.207204281E0
1.592022592E1,-1.027039529E0,-1.614055176E0,4.173123897E0,4.590745840E0
1.593020492E1,-7.547888558E-1,-1.737782552E0,4.645008819E0,5.016542767E0
1.594018292E1,-6.505556586E-1,-1.766979454E0,5.232435890E0,5.560919385E0
1.595016092E1,-7.206493755E-1,-1.697098795E0,5.961617596E0,6.240221487E0
1.596013992E1,-8.256610563E-1,-1.593197281E0,6.518233350E0,6.760721837E0
1.597011792E1,-8.168904521E-1,-1.639034189E0,6.718892249E0,6.963997138E0
1.598009692E1,-8.040879004E-1,-1.693975212E0,6.583780637E0,6.845602738E0
1.599007492E1,-8.000199924E-1,-1.647005990E0,6.151994752E0,6.418699257E0
1.600005292E1,-7.885832041E-1,-1.502677705E0,5.563890572E0,5.816939234E0
1.601003192E1,-7.968782104E-1,-1.272786235E0,5.035446703E0,5.254590677E0
1.602000992E1,-7.344373293E-1,-1.024399438E0,4.678561896E0,4.845382731E0
1.602998892E1,-6.838454653E-1,-8.179374692E-1,4.449200769E0,4.575156151E0
1.603996692E1,-6.860011145E-1,-6.823364452E-1,4.295917180E0,4.403530966E0
1.604994492E1,-7.414955764E-1,-6.395435974E-1,4.198912457E0,4.311577151E0
1.605992392E1,-7.808095501E-1,-6.194142652E-1,4.182547270E0,4.299655713E0
1.606990192E1,-8.425489846E-1,-7.952473488E-1,4.219525647E0,4.375694667E0
1.607988092E1,-8.993880138E-1,-1.034477114E0,4.340782281E0,4.552080020E0
1.608985892E1,-9.676865624E-1,-1.255583727E0,4.567722076E0,4.834975982E0
