"Time (s)","Linear Acceleration x (m/s^2)","Linear Acceleration y (m/s^2)","Linear Acceleration z (m/s^2)","Absolute acceleration (m/s^2)"
3.410583362E-3,7.869083240E-2,2.514292681E-2,-1.730232042E-1,1.917327386E-1
1.338958333E-2,4.618623139E-3,-3.258055771E-2,-2.812393785E-2,4.328718402E-2
2.336758334E-2,1.573665146E-2,-2.974611078E-2,-1.869588733E-2,3.849687661E-2
3.334558336E-2,7.692824177E-3,1.712564497E-2,-7.243355334E-2,7.482704664E-2
4.332458338E-2,-7.284284245E-3,3.615465000E-2,-1.032033563E-3,3.689559062E-2
5.330258334E-2,-9.880200173E-3,2.368158884E-2,-1.450401843E-2,2.947545684E-2
6.328058336E-2,-2.421508789E-2,7.263840688E-3,-2.648028553E-2,3.661064578E-2
7.325958338E-2,-3.246095474E-2,3.004655717E-3,-5.701152205E-2,6.567385466E-2
8.323758334E-2,2.225076832E-3,1.111486260E-2,1.648739398E-2,2.000813079E-2
9.321558336E-2,4.273586024E-2,2.415503059E-3,-2.931501567E-2,5.188023274E-2
1.031945834E-1,4.522614827E-2,-1.963331477E-2,-6.852936745E-2,8.442242439E-2
1.131725833E-1,3.013822141E-2,-7.787559349E-3,2.068744898E-2,3.737551358E-2
1.231505834E-1,1.263411541E-2,2.977821565E-2,-3.170184910E-2,4.529205489E-2
1.331295834E-1,-2.402141257E-3,2.400969073E-2,-5.250565767E-2,5.778476979E-2
1.431075833E-1,-1.267148734E-2,1.390109740E-2,1.575473785E-2,2.453607273E-2
1.530855834E-1,-1.509243561E-2,2.026006320E-2,-1.627747893E-2,3.005342067E-2
1.630645834E-1,-9.137804783E-4,2.809710461E-2,-6.641910732E-2,7.212336722E-2
1.730425833E-1,-7.746325058E-3,-8.807962434E-3,1.127109289E-2,1.626724590E-2
1.830215834E-1,3.630250918E-2,-2.499838181E-2,-3.528151453E-2,5.645862674E-2
1.929995834E-1,5.246004025E-2,-2.458309245E-2,-5.129528403E-2,7.737952198E-2
2.029775833E-1,5.757585146E-2,-1.829963797E-2,2.175105751E-2,6.421031010E-2
2.129565834E-1,4.298116464E-2,4.271071265E-3,-3.453190148E-2,5.529986242E-2
2.229345834E-1,6.955578220E-3,4.930244330E-3,-4.695197225E-2,4.771975561E-2
2.329125833E-1,-4.285110064E-2,-4.448287580E-3,-6.084612608E-3,4.350892551E-2
2.428915834E-1,-4.750671313E-2,3.410458879E-2,-1.341819048E-2,6.000048837E-2
2.528695834E-1,-4.631879188E-2,3.837692999E-2,-3.706666946E-2,7.065519954E-2
2.628475833E-1,-3.324978296E-2,2.255388021E-2,-7.277444601E-3,4.083119860E-2
2.728265834E-1,5.714906410E-3,-1.901979567E-2,-4.694320142E-2,5.097133452E-2
2.828045834E-1,3.353801186E-2,-1.384309120E-2,-4.305070996E-2,5.630091511E-2
2.927835833E-1,3.423836440E-2,-6.535743568E-3,-6.677520275E-3,3.549043277E-2
3.027615834E-1,4.651113787E-2,-6.599843670E-3,-4.005693555E-2,6.173655293E-2
3.127395834E-1,3.862037516E-2,-1.604799399E-2,-4.379681468E-2,6.055767883E-2
3.227185833E-1,1.790071168E-2,-6.297021853E-3,-1.086471140E-2,2.186618203E-2
3.326965834E-1,-8.859420216E-3,2.711014942E-2,-4.005459666E-2,4.917133557E-2
3.426745834E-1,-3.945926788E-2,2.032384353E-2,-4.259930491E-2,6.152067308E-2
3.526535833E-1,-3.796739649E-2,2.653636398E-2,-1.909759104E-2,5.010408958E-2
3.626315834E-1,-4.200936197E-2,2.350189660E-2,-4.529370189E-2,6.609572654E-2
3.726095834E-1,-3.134710584E-2,2.052056579E-2,-3.256723702E-2,4.964231654E-2
3.825885833E-1,-7.601213611E-3,2.146796091E-2,-6.820777059E-3,2.377340517E-2
3.925665834E-1,3.237190576E-2,-8.169071898E-3,-3.256606758E-2,4.663928361E-2
4.025445834E-1,5.353377177E-2,-1.177161455E-2,-4.753377020E-2,7.255270456E-2
4.125235833E-1,5.789452014E-2,-2.539464944E-2,-1.580502391E-3,6.323892528E-2
4.225015834E-1,3.881281251E-2,-4.111789456E-3,-3.675793648E-2,5.361424365E-2
4.324795834E-1,7.709622360E-3,-1.903104242E-3,-1.744750679E-2,1.916965247E-2
4.424585833E-1,-2.998301210E-2,2.069137758E-2,-3.226493597E-3,3.657218043E-2
4.524358333E-1,-2.238980415E-2,3.319274291E-2,-2.687614202E-2,4.822228242E-2
4.624148334E-1,-2.610293455E-2,1.877559219E-2,-2.088859320E-2,3.834343985E-2
4.723928334E-1,-1.377465593E-2,1.529342908E-2,-3.376240790E-2,3.954150106E-2
4.823708333E-1,-2.097419095E-3,3.228156399E-3,-3.376182318E-2,3.398059542E-2
4.923498334E-1,3.082500658E-2,7.070946526E-3,-2.777368963E-2,4.208986993E-2
5.023278334E-1,1.540468835E-2,-7.181294449E-4,-3.406120062E-2,3.738964456E-2
5.123058333E-1,3.147206038E-2,-4.629350267E-3,-4.304076970E-2,5.352036364E-2
5.222848334E-1,2.049871639E-2,-1.512967050E-3,-2.507812321E-2,3.242527882E-2
5.322628334E-1,-1.037562608E-2,1.616952471E-2,-2.328068912E-2,3.018439385E-2
5.422408333E-1,-4.465536866E-3,1.557674496E-2,-2.313100040E-2,2.824215258E-2
5.522198334E-1,2.013050169E-3,1.228658980E-2,-3.226201236E-2,3.458106565E-2
5.621978334E-1,-7.120234442E-3,1.734871625E-2,-1.474843204E-2,2.385774385E-2
5.721758333E-1,-7.608207429E-3,5.681602405E-3,-3.869921207E-2,3.984713843E-2
5.821548334E-1,-1.503227782E-3,1.908738582E-2,-1.998753726E-2,2.767832432E-2
5.921328334E-1,2.795801625E-2,-5.875565512E-3,-2.837010562E-2,4.026208931E-2
6.021118333E-1,5.453354515E-2,-1.951012124E-2,-2.537633121E-2,6.323377708E-2
6.120898334E-1,4.299895297E-2,-1.323415850E-2,-3.046574771E-2,5.433428652E-2
6.220678334E-1,4.056541490E-2,-1.517928961E-2,-2.567570865E-2,5.035082655E-2
6.320468333E-1,3.706856067E-3,1.949489107E-2,-3.525637150E-2,4.045742566E-2
6.420248334E-1,-1.029998229E-2,1.777642180E-2,-2.552718937E-2,3.276779218E-2
6.520028334E-1,-4.112629993E-2,3.431613008E-2,-3.959675968E-2,6.660985443E-2
6.619818333E-1,-6.398787159E-2,3.293680846E-2,-7.416023612E-3,7.234831352E-2
6.719598334E-1,-4.750397224E-2,4.606251025E-2,-5.546493351E-2,8.634084247E-2
6.819378334E-1,-5.673024357E-2,3.114709452E-2,-8.610609770E-3,6.528862560E-2
6.919168333E-1,2.090954267E-2,-6.033778377E-4,-1.894088566E-2,2.821932298E-2
7.018948334E-1,5.052594577E-2,4.224138223E-3,-5.336461365E-2,7.361043764E-2
7.118728334E-1,3.436350624E-2,-8.447344545E-3,-1.399589539E-2,3.805382081E-2
7.218518333E-1,6.315084724E-2,-1.356237916E-2,-4.049079895E-2,7.623301408E-2
7.318298334E-1,5.126655502E-2,-3.671667706E-3,-2.746554136E-2,5.827603941E-2
7.418088334E-1,4.569320376E-2,-1.122455271E-3,-1.788487852E-2,4.908154088E-2
7.517868333E-1,-2.918237067E-2,2.714002504E-2,-6.713422179E-2,7.807173274E-2
7.617648334E-1,-6.520173529E-2,2.665339965E-2,-6.810252070E-3,7.076757401E-2
7.717438334E-1,-5.637227520E-2,5.115847746E-2,-1.115239441E-2,7.693763142E-2
7.817218333E-1,-2.540547593E-2,4.189248618E-2,-9.656676650E-3,4.993665997E-2
7.916998334E-1,-1.579461084E-2,1.578063919E-2,-5.531115174E-2,5.964747951E-2
8.016788334E-1,-8.595548621E-3,-6.000166023E-3,1.722005010E-3,1.062312335E-2
8.116568333E-1,4.960613307E-2,-4.023533044E-3,-3.869336486E-2,6.304073080E-2
8.216348334E-1,8.932315352E-2,-3.528564412E-2,-2.581955016E-2,9.945024689E-2
8.316138334E-1,5.978921444E-2,-2.887861239E-2,8.250421286E-4,6.640335166E-2
8.415918333E-1,2.051982118E-2,-1.896618401E-2,-2.596982360E-2,3.814722709E-2
8.515698334E-1,1.544656218E-2,2.223411974E-2,-4.737706482E-2,5.456682724E-2
8.615488334E-1,-1.917729590E-2,1.985169000E-2,-1.818893373E-2,3.305594628E-2
8.715268333E-1,-4.579555744E-2,2.677330412E-2,-1.010632753E-2,5.400167360E-2
8.815048333E-1,-6.077765884E-2,2.936072445E-2,-5.800613344E-2,8.899824420E-2
8.914838334E-1,-3.456822502E-2,3.199905211E-2,-2.193056703E-2,5.196009322E-2
9.014618333E-1,1.573171216E-2,4.571334925E-3,-3.704854310E-2,4.050899179E-2
9.114408334E-1,4.043525497E-2,-1.408874734E-2,-3.779406309E-2,5.711299196E-2
9.214188334E-1,4.423750745E-2,-1.623962735E-2,-3.285199642E-2,5.744507142E-2
9.313968333E-1,4.156876970E-2,-4.693678776E-3,-3.704328060E-2,5.587663083E-2
9.413758334E-1,3.246333245E-2,-5.280839726E-3,-3.359985530E-2,4.701814010E-2
9.513538334E-1,1.056271414E-2,7.807394201E-3,-3.329930842E-2,3.579623270E-2
9.613318333E-1,-3.220697773E-2,2.177120299E-2,-2.012553155E-2,4.377569776E-2
9.713108334E-1,-5.572350379E-2,3.773254856E-2,-2.207323909E-2,7.082430359E-2
9.812888334E-1,-3.961992470E-2,4.391455385E-2,-1.743171930E-2,6.166110047E-2
9.912668333E-1,-2.560266642E-2,8.497045878E-3,-4.392662287E-2,5.154846761E-2
1.001245833E0,-1.168632743E-2,1.508202483E-2,-4.751973689E-2,5.120706119E-2
1.011223833E0,1.502953236E-2,-8.999230340E-4,-2.716207087E-2,3.105599457E-2
1.021201833E0,5.711291643E-2,-1.294721553E-2,-3.479561090E-2,6.811938161E-2
1.031180833E0,6.200712272E-2,-1.467530530E-2,-3.763735771E-2,7.400553053E-2
1.041158833E0,6.398966230E-2,-1.922400967E-2,-2.087222099E-2,6.999920742E-2
1.051137833E0,4.690852012E-2,-8.160337619E-3,-3.299817681E-2,5.792995808E-2
1.061115833E0,-2.164737449E-3,1.116372339E-2,-1.368950129E-2,1.779655174E-2
1.071093833E0,-1.562725485E-2,2.050623097E-2,-3.210004449E-2,4.117194991E-2
1.081072833E0,-3.273216048E-2,2.695172642E-2,-3.105163872E-2,5.255467776E-2
1.091050833E0,-4.646764006E-2,3.314543528E-2,-2.581077933E-2,6.264230027E-2
1.101028833E0,-4.247277665E-2,3.365523026E-2,-1.772700369E-2,5.701629539E-2
1.111007833E0,-1.737596747E-2,2.761226079E-2,-2.895365775E-2,4.361966860E-2
1.120985833E0,5.354523780E-3,-6.664592447E-3,-3.029968679E-2,3.148267360E-2
1.130963833E0,3.718225247E-2,-1.215681816E-3,-2.071726978E-2,4.258172200E-2
1.140942833E0,3.971879289E-2,1.885727048E-5,-3.972715259E-2,5.617677026E-2
1.150920833E0,3.163769875E-2,1.366693469E-2,-2.805143237E-2,4.443660590E-2
1.160898833E0,1.828574398E-2,-1.583535634E-3,-3.673279345E-2,4.106305070E-2
1.170877833E0,-1.216117844E-2,3.140384210E-3,-3.613579273E-2,3.825639542E-2
1.180855833E0,-1.304821933E-2,2.393212376E-2,-4.421839893E-2,5.194486865E-2
1.190834833E0,-2.577768775E-2,3.533798584E-2,-2.700536549E-2,5.140576032E-2
1.200812833E0,-3.170180571E-2,3.233211500E-2,-3.868108571E-2,5.955330836E-2
1.210790833E0,-1.722863363E-2,9.526037062E-3,-2.296435475E-2,3.024785592E-2
1.220769833E0,1.830483194E-2,3.899699980E-3,-3.703275561E-2,4.149336719E-2
1.230747833E0,2.880091523E-2,-4.117682353E-3,-1.577637255E-2,3.309595076E-2
1.240725833E0,2.758408681E-2,-5.208261162E-3,-1.502675951E-2,3.184040406E-2
1.250704833E0,1.876592372E-2,-7.298101718E-3,-2.340757370E-2,3.087615080E-2
1.260682833E0,3.094595258E-2,2.588891275E-3,-2.924660325E-2,4.265815445E-2
1.270660833E0,1.874444434E-2,5.699546048E-3,-1.876839280E-2,2.713100785E-2
1.280639833E0,9.361472202E-3,1.351727338E-2,-3.651001453E-3,1.684291106E-2
1.290617833E0,-3.451775853E-3,6.239116145E-3,-3.628372729E-2,3.697769859E-2
1.300596833E0,-1.973384805E-2,1.140968104E-2,-3.298940599E-2,4.009870930E-2
1.310574833E0,-7.341298023E-3,1.778161121E-2,-8.291936517E-3,2.094842631E-2
1.320552833E0,2.263808926E-4,8.501632288E-3,-2.326022387E-2,2.476624748E-2
1.330531833E0,1.696042915E-2,1.489196291E-2,-1.846901536E-2,2.916386882E-2
1.340509833E0,1.202581083E-2,9.115790930E-3,-1.457827806E-2,2.098199137E-2
1.350487833E0,1.204479601E-2,-3.999303645E-3,-2.400983691E-2,2.715775781E-2
1.360466833E0,1.873846008E-2,3.670406900E-4,-1.817139208E-2,2.610486727E-2
1.370444833E0,2.379823851E-2,-3.777310448E-3,-2.984477341E-2,3.835798131E-2
1.380422833E0,1.127070003E-2,4.640057981E-3,-2.161130905E-2,2.481143882E-2
1.390401833E0,-1.804562213E-2,1.192631909E-2,-1.741885543E-2,2.777225395E-2
1.400379833E0,-5.385667055E-3,1.351859814E-2,-3.448395431E-2,3.742861218E-2
1.410357833E0,-1.751756145E-2,1.171313326E-2,-2.819527388E-2,3.519994203E-2
1.420336833E0,-1.668162889E-2,1.136664919E-2,-1.921453536E-2,2.786890427E-2
1.430314833E0,-4.786498756E-3,2.072963116E-2,-4.121819258E-2,4.638499302E-2
1.440293833E0,1.242312685E-2,1.900214438E-2,-2.909282148E-2,3.690268057E-2
1.450271958E0,1.815533965E-2,-7.761383923E-3,-2.789589643E-2,3.417654863E-2
1.460249958E0,1.828614826E-2,3.097489402E-3,-2.415484786E-2,3.045380656E-2
1.470228958E0,1.444284422E-2,7.813926637E-3,-2.415192425E-2,2.920562692E-2
1.480206958E0,2.990069655E-3,1.738878795E-2,-1.621842206E-2,2.396555188E-2
1.490184958E0,-2.721502015E-3,5.238648411E-4,-1.487239301E-2,1.512841966E-2
1.500163958E0,-8.321227413E-3,3.676774884E-3,-2.744566083E-2,2.891411070E-2
1.510141958E0,-9.210746514E-3,1.948056540E-2,-2.924075603E-2,3.632288663E-2
1.520119958E0,-4.204853831E-3,2.546154524E-2,-2.430161297E-2,3.544770056E-2
1.530098958E0,1.585213739E-2,9.762090985E-3,-2.400223553E-2,3.037591136E-2
1.540076958E0,1.590070126E-2,3.735438902E-3,-2.579908490E-2,3.053487492E-2
1.550054958E0,1.457987234E-2,4.364626715E-3,-2.430161297E-2,2.867387377E-2
1.560033958E0,2.603785458E-2,-2.065812154E-3,-2.549912274E-2,3.650263979E-2
1.570011958E0,3.622153667E-3,1.595365282E-2,-3.208250284E-2,3.601285915E-2
1.579990958E0,5.653876096E-3,1.483618596E-2,-3.372849405E-2,3.727854664E-2
1.589968958E0,7.473735174E-3,1.437220939E-2,-1.651429117E-2,2.313307012E-2
1.599946958E0,1.584070334E-2,1.915059971E-2,-1.651429117E-2,2.983949001E-2
1.609925958E0,2.036638202E-2,1.479045890E-2,-2.130666912E-2,3.297758845E-2
1.619903958E0,-2.470615350E-3,9.766549487E-3,-2.295441449E-2,2.506779953E-2
1.629881958E0,7.244051518E-3,9.062042227E-3,-2.415133953E-2,2.679335912E-2
1.639860958E0,7.656979146E-3,7.882001018E-3,-4.151523113E-2,4.294496112E-2
1.649838958E0,-4.992807254E-3,6.301608263E-3,-2.654518962E-2,2.773599616E-2
1.659816958E0,9.861025417E-3,1.169147115E-2,-2.370110393E-2,2.820767001E-2
1.669795958E0,1.093744300E-2,2.278312761E-4,-4.390849650E-2,4.525080807E-2
1.679773958E0,7.806939671E-3,9.624306830E-3,-2.594643474E-2,2.875400954E-2
1.689751958E0,2.502683674E-3,5.115071163E-3,-3.058678508E-2,3.111235767E-2
1.699730958E0,8.514349982E-3,3.793490790E-3,-3.313266277E-2,3.441886213E-2
1.709708958E0,-7.847009087E-4,1.240015369E-2,-3.852087200E-2,4.047514233E-2
1.719687958E0,-4.578456650E-3,6.544021033E-3,-3.672519207E-2,3.758358963E-2
1.729665958E0,-1.178127159E-3,6.305299317E-3,-1.352285564E-2,1.496704405E-2
1.739643958E0,1.617140450E-2,1.518909283E-2,-2.669487834E-2,3.471079651E-2
1.749622958E0,2.794411312E-2,3.415276436E-3,-2.549678385E-2,3.798188461E-2
1.759600958E0,1.894907405E-2,-1.035720049E-2,-1.606639445E-2,2.691594397E-2
1.769578958E0,4.599659659E-3,1.439598198E-2,-2.744215250E-2,3.132846788E-2
1.779557958E0,9.812459266E-3,3.808949366E-3,-2.115464151E-2,2.362861209E-2
1.789535958E0,1.843474291E-2,1.227185299E-2,-1.681425333E-2,2.780570512E-2
1.799513958E0,1.601978574E-2,8.659461429E-3,-1.531561196E-2,2.379470061E-2
1.809492958E0,1.792449340E-2,1.845976945E-2,-3.402553260E-2,4.265896648E-2
1.819470958E0,-6.193841337E-3,2.215568483E-2,-3.013596475E-2,3.791324851E-2
1.829448958E0,-5.938445921E-3,2.200349277E-2,-1.905899942E-2,2.970966666E-2
1.839427958E0,-1.711751826E-3,2.277153368E-2,-2.908755898E-2,3.698052093E-2
1.849405958E0,8.561945404E-4,3.492432274E-3,-2.340055704E-2,2.367522380E-2
1.859383958E0,1.075813676E-2,7.111127861E-4,-2.265152872E-2,2.508654901E-2
1.869362958E0,7.658173714E-3,1.263460876E-2,-2.325145304E-2,2.754833991E-2
1.879340958E0,8.357201493E-3,4.778244132E-3,-4.001717448E-2,4.115882272E-2
1.889319958E0,7.734461606E-3,1.176723828E-2,-2.205686688E-2,2.616859128E-2
1.899297958E0,1.134351386E-2,1.970713587E-2,-2.220597088E-2,3.178288303E-2
1.909275958E0,3.223917168E-3,4.206733620E-3,-3.028857708E-2,3.074879105E-2
1.919254958E0,6.074681478E-3,-4.558206098E-3,-1.891164958E-2,2.037963415E-2
1.929232958E0,3.370782780E-4,1.578335267E-2,-2.340055704E-2,2.822789246E-2
1.939210958E0,7.356313490E-3,6.899595698E-3,-4.360794961E-2,4.475905538E-2
1.949189958E0,-7.104008419E-3,6.367298076E-3,-3.432841837E-2,3.562933803E-2
1.959167958E0,1.755854907E-4,3.689967664E-3,-2.459865153E-2,2.487449193E-2
1.969145958E0,1.013713734E-2,4.976738831E-3,-2.864024699E-2,3.078625067E-2
1.979124958E0,7.132426801E-3,1.252663627E-2,-3.118437052E-2,3.435481179E-2
1.989102958E0,-2.504618280E-3,4.486934021E-3,-2.205335855E-2,2.264412315E-2
1.999081958E0,2.216971815E-3,8.416765435E-3,-3.028448403E-2,3.151042490E-2
2.009059958E0,7.873698429E-3,7.367994217E-3,-1.367020547E-2,1.741140383E-2
2.019037958E0,1.442413084E-2,7.945434172E-3,-2.265211344E-2,2.800542301E-2
2.029016958E0,5.469880665E-3,5.185201205E-4,-2.534592569E-2,2.593461792E-2
2.038994958E0,-3.200891472E-3,1.313026079E-2,-2.399872720E-2,2.754248286E-2
2.048972958E0,1.678048109E-3,2.247932822E-2,-4.240985513E-3,2.293734947E-2
2.058951958E0,2.152958508E-2,6.638051569E-3,-1.995771646E-2,3.009812633E-2
2.068929958E0,1.733545266E-2,-2.922383565E-3,-2.130491495E-2,2.762168796E-2
2.078907958E0,1.272390899E-2,1.398975581E-2,-2.325145304E-2,2.997067227E-2
2.088886958E0,1.385181634E-2,8.663782887E-3,-2.459748209E-2,2.952913942E-2
2.098864958E0,9.077861686E-3,1.792986553E-2,-2.429693520E-2,3.153139247E-2
2.108842958E0,7.916718861E-4,1.310268751E-2,-4.285716712E-2,4.482235980E-2
2.118821958E0,-8.978477293E-3,5.008231569E-3,-3.477280676E-2,3.626077120E-2
2.128799958E0,8.377917996E-4,1.492926632E-2,-2.279537022E-2,2.726194768E-2
2.138778958E0,-1.463290842E-3,1.383244744E-2,-4.165497959E-2,4.391600103E-2
2.148756958E0,-9.767773747E-4,1.171173541E-2,-2.294447422E-2,2.577921134E-2
2.158734958E0,-8.307363116E-4,3.661901029E-3,-2.399229527E-2,2.428435451E-2
2.168713958E0,-3.531099271E-3,5.212281123E-3,-2.998042881E-2,3.063433774E-2
2.178691958E0,4.573801719E-3,3.406743156E-3,-2.743572056E-2,2.802221126E-2
2.188669958E0,1.767449296E-2,7.136691157E-3,-1.665813267E-2,2.531429332E-2
2.198648958E0,1.193615200E-2,1.054161619E-2,-1.965190709E-2,2.529416630E-2
2.208626958E0,1.126980239E-2,-7.937659202E-3,-2.294388950E-2,2.676633977E-2
2.218604958E0,1.359956152E-2,1.042138282E-3,-2.803330600E-2,3.117531670E-2
2.228583958E0,9.721443700E-3,9.820727594E-3,-4.060598910E-2,4.289288413E-2
2.238561958E0,1.576196465E-2,5.282849707E-3,-3.581653476E-2,3.948635451E-2
2.248539958E0,-1.449551941E-2,1.758839727E-2,-2.099852085E-2,3.099047724E-2
2.258518958E0,-2.670873350E-3,2.471216060E-2,-2.339295566E-2,3.413289939E-2
2.268496958E0,-1.447318350E-3,7.681578565E-3,-1.620731235E-2,1.799384209E-2
2.278475958E0,1.158169653E-2,5.023534829E-3,-1.171665072E-2,1.722357399E-2
2.288453958E0,5.696505953E-3,2.857064685E-2,-3.042540193E-2,4.212406822E-2
2.298431958E0,-7.817371013E-3,1.782058655E-2,-2.803038239E-2,3.412311433E-2
2.308410958E0,3.803193513E-3,1.633910310E-2,-2.982664704E-2,3.422074583E-2
2.318388958E0,-5.831661145E-3,7.183121704E-3,-1.979808748E-2,2.185336992E-2
2.328366958E0,2.164583275E-2,-6.710310364E-3,-1.964781404E-2,2.999344823E-2
2.338345958E0,2.224911466E-2,2.692788988E-3,-3.776073396E-2,4.391067347E-2
2.348323958E0,3.147151906E-3,1.197730863E-2,-4.345007479E-2,4.518041043E-2
2.358301958E0,2.767697303E-3,9.890382551E-4,-1.261478305E-2,1.295264824E-2
2.368280958E0,3.823823221E-3,7.722143624E-3,-2.548625886E-2,2.690357815E-2
2.378258958E0,2.877524458E-3,3.956472790E-3,-2.982781649E-2,3.022635374E-2
2.388237958E0,8.640069687E-3,-3.044727417E-3,-1.994953036E-2,2.195233315E-2
2.398215958E0,-4.874969870E-3,1.238932720E-2,-2.608676791E-2,2.928788521E-2
2.408193958E0,1.409766435E-2,2.415133039E-2,-4.764252841E-2,5.524347395E-2
2.418172958E0,1.053949201E-3,1.312517188E-2,-2.519097447E-2,2.842474522E-2
2.428150958E0,8.104336825E-3,8.809031378E-3,-1.082027256E-2,1.613560063E-2
2.438128958E0,2.189267890E-2,2.364368244E-2,-1.845439732E-2,3.713324507E-2
2.448108125E0,2.274700507E-2,1.903954829E-2,-2.489218175E-2,3.872404100E-2
2.458086125E0,1.417299065E-2,-5.027097976E-3,-3.237603307E-2,3.569807971E-2
2.468064125E0,2.304692612E-2,1.350291115E-2,-2.683696568E-2,3.786439145E-2
2.478043125E0,4.600280926E-3,1.225823080E-2,-2.758423984E-2,3.053386799E-2
2.488021125E0,-5.343450615E-3,1.367769722E-2,-2.653758824E-2,3.032944865E-2
2.497999125E0,-4.903644067E-4,1.014493743E-2,-4.090829015E-2,4.215030742E-2
2.507978125E0,3.684602387E-3,1.755874093E-2,-1.680782139E-2,2.458431487E-2
2.517956125E0,1.542423313E-2,1.805756324E-2,-1.620848179E-2,2.875234668E-2
2.527935125E0,-1.744818287E-3,2.002734401E-2,-3.791276157E-2,4.291289304E-2
2.537913125E0,6.156510520E-3,1.181155834E-3,-3.372147739E-2,3.429920973E-2
2.547891125E0,2.030504107E-2,5.669451160E-3,-1.995069981E-2,2.902529573E-2
2.557870125E0,1.416001485E-2,1.843289053E-2,-1.950104892E-2,3.034086985E-2
2.567848125E0,1.597803525E-2,-1.224772409E-3,-1.710485995E-2,2.343872675E-2
2.577826125E0,1.021101097E-2,-1.861159606E-3,-2.923023105E-2,3.101830213E-2
2.587805125E0,7.897439038E-3,1.072964072E-2,-4.419734895E-2,4.616167661E-2
2.597783125E0,-5.699454686E-3,-6.133729219E-4,-2.683462679E-2,2.744006569E-2
2.607761125E0,-3.579329664E-3,1.023169549E-2,-3.461610138E-2,3.627359465E-2
2.617740125E0,4.309203790E-3,1.785185088E-2,-3.626326203E-2,4.064827168E-2
2.627718125E0,6.764486188E-3,1.819280751E-2,-3.596329987E-2,4.086680139E-2
2.637696125E0,1.330009043E-2,1.518713767E-2,-4.239991486E-2,4.696056150E-2
2.647675125E0,7.089349267E-3,7.102932623E-3,-2.877824128E-2,3.047782302E-2
2.657653125E0,6.489189682E-3,7.812674968E-3,-3.581419587E-2,3.722638982E-2
2.667632125E0,9.338270633E-3,1.608422846E-2,-2.728193879E-2,3.301832654E-2
2.677610125E0,9.445653835E-3,1.172695644E-2,-2.234221101E-2,2.694283349E-2
2.687588125E0,-4.989435968E-3,7.647198765E-3,-4.075392365E-2,4.176429592E-2
2.697567125E0,1.233313455E-2,8.885173090E-3,-3.012543976E-2,3.374306787E-2
2.707545125E0,5.365912146E-3,1.841754159E-2,-2.832975984E-2,3.421365435E-2
2.717523125E0,-7.412535839E-3,1.260106950E-2,-2.788010895E-2,3.148067844E-2
2.727502125E0,-6.787228659E-3,1.385933549E-2,-4.015399933E-2,4.301733738E-2
2.737480125E0,-9.789744203E-3,1.458794424E-2,-2.638146758E-2,3.169588365E-2
2.747458125E0,1.184271076E-2,8.778571039E-3,-3.057099760E-2,3.393963762E-2
2.757437125E0,9.222742443E-3,5.123513080E-3,-2.383266628E-2,2.606348684E-2
2.767415125E0,-1.985972535E-3,1.795768549E-2,-1.574947536E-2,2.396807312E-2
2.777393125E0,-6.138607990E-3,2.290239254E-2,-2.787601590E-2,3.659609753E-2
2.787372125E0,-1.944628609E-3,1.192245444E-2,-2.413555205E-2,2.698983833E-2
2.797350125E0,-5.834772047E-3,-4.800216872E-3,-2.263983428E-2,2.386731538E-2
2.807329125E0,1.065713982E-2,7.302368358E-3,-4.359800935E-2,4.547181140E-2
2.817307125E0,-2.623647947E-3,2.957037454E-3,-2.773100495E-2,2.801135903E-2
2.827285125E0,-2.706445435E-3,4.742521299E-3,-2.728076935E-2,2.782187505E-2
2.837264125E0,2.403447744E-3,6.739445943E-3,-1.814975739E-2,1.950923847E-2
2.847242125E0,1.142078390E-2,3.546455065E-3,-3.251987457E-2,3.464900995E-2
2.857220125E0,2.491972305E-2,-5.181729421E-4,-2.174287140E-2,3.307587576E-2
2.867199125E0,5.726461513E-3,1.596697351E-2,-2.877473295E-2,3.340242298E-2
2.877177125E0,-7.205382236E-3,2.113914639E-3,-1.440403104E-2,1.624383817E-2
2.887155125E0,-6.984937638E-3,1.620096263E-2,-1.440286160E-2,2.277505140E-2
2.897134125E0,-5.177079057E-3,2.521716817E-2,-2.338360012E-2,3.477787332E-2
2.907112125E0,1.482612463E-2,1.904036142E-3,-2.652764797E-2,3.044922712E-2
2.917091125E0,1.734612383E-2,4.957433883E-4,-1.769542873E-2,2.478430898E-2
2.927069125E0,2.500592152E-2,9.192124503E-3,-2.143472314E-2,3.419413137E-2
2.937047125E0,1.002104498E-2,5.455799382E-3,-3.161180198E-2,3.360793231E-2
2.947026125E0,3.053345208E-3,4.132720660E-3,-4.059487939E-2,4.091877967E-2
2.957004125E0,3.681461792E-3,3.700565742E-3,-3.355892479E-2,3.396246135E-2
2.966982125E0,-2.192881743E-3,3.410498165E-2,-4.044577539E-2,5.295110245E-2
2.976961125E0,-4.830284351E-3,1.537168127E-2,-1.918880761E-2,2.505654744E-2
2.986939125E0,-5.359062224E-3,2.192939758E-2,-2.771989524E-2,3.574927438E-2
2.996917125E0,-4.424791366E-3,1.345012176E-2,-4.463413596E-2,4.682617481E-2
3.006896125E0,1.010440206E-2,6.291887267E-3,-3.580250144E-2,3.772937709E-2
3.016874125E0,5.818413547E-3,8.210294768E-3,-3.056339622E-2,3.217738437E-2
3.026852125E0,2.127747187E-2,2.110756229E-2,-2.592246115E-2,3.962617805E-2
3.036831125E0,-1.004396332E-4,1.349046755E-2,-2.831806540E-2,3.136742946E-2
3.046809125E0,9.918076883E-3,-1.072488986E-2,-3.116332054E-2,3.441720585E-2
3.056788125E0,1.586553345E-2,-1.818584567E-3,-2.098390281E-2,2.636942508E-2
3.066766125E0,-1.483418054E-3,2.229864925E-2,-1.035424948E-2,2.463007856E-2
3.076744125E0,8.959773055E-3,1.536196028E-2,-2.966467917E-2,3.458699968E-2
3.086723125E0,1.230355814E-2,1.823426792E-2,-2.891565084E-2,3.633154185E-2
3.096701125E0,6.456166618E-3,1.699152446E-2,-2.098097920E-2,2.775960157E-2
3.106679125E0,1.367211724E-2,1.904199681E-2,-1.499401510E-2,2.782705376E-2
3.116658125E0,1.065545874E-2,2.174596860E-2,-2.532253683E-2,3.503793405E-2
3.126636125E0,1.040082849E-2,5.104683219E-3,-2.442323506E-2,2.703200760E-2
3.136614125E0,1.011582469E-2,7.080247253E-3,-3.445237935E-2,3.659817281E-2
3.146593125E0,1.519544026E-2,4.445473608E-3,-2.083012104E-2,2.616405134E-2
3.156571125E0,-1.537829137E-3,9.065249059E-3,-1.110210836E-2,1.441528595E-2
3.166549125E0,-5.672877263E-3,1.521429981E-2,-1.125179708E-2,1.975498400E-2
3.176528125E0,-6.729688402E-4,1.804986136E-2,-2.726849020E-2,3.270811734E-2
3.186506125E0,1.303104085E-2,2.347039472E-2,-1.050510764E-2,2.882749973E-2
3.196485125E0,2.438535606E-3,1.052378219E-2,-2.966760278E-2,3.157313893E-2
3.206463125E0,-9.427381286E-3,1.275444928E-2,-1.574655175E-2,2.234961714E-2
3.216441125E0,1.363794072E-2,2.465743432E-2,-3.355892479E-2,4.381990333E-2
3.226420125E0,1.374059818E-2,1.120396868E-2,-3.999553978E-2,4.374901319E-2
3.236398125E0,-2.287266310E-5,6.224160064E-3,-3.146328270E-2,3.207302371E-2
3.246376125E0,1.192939344E-2,7.004489265E-3,-2.667324364E-2,3.004721658E-2
3.256355125E0,4.284060763E-3,8.463433525E-3,-3.385888696E-2,3.516258110E-2
3.266333125E0,3.519902767E-3,1.079246175E-2,-3.116332054E-2,3.316654177E-2
3.276311125E0,-3.993812744E-3,2.845995175E-3,-2.427646995E-2,2.476685733E-2
3.286290125E0,-1.482424713E-2,3.195348037E-3,-4.283904076E-2,4.544394311E-2
3.296268125E0,-2.314370896E-2,5.849700719E-3,-3.251110375E-2,4.033388315E-2
3.306247125E0,-2.077452453E-2,9.814085523E-3,-2.891798973E-2,3.693436441E-2
3.316225125E0,-1.120586903E-4,2.461210012E-2,-2.442615867E-2,3.467571567E-2
3.326203125E0,-1.714773648E-3,1.770590804E-2,-2.592129171E-2,3.143808187E-2
3.336182125E0,4.447456179E-3,1.445589767E-2,-2.083304465E-2,2.574429244E-2
3.346160125E0,8.977294145E-3,2.108613772E-2,-3.026284933E-2,3.796125741E-2
3.356138125E0,1.038310183E-3,1.066692020E-2,-3.056164205E-2,3.238634341E-2
3.366117125E0,1.162044347E-2,6.365680955E-3,-3.310635030E-2,3.565931899E-2
3.376095125E0,2.923543872E-3,8.922047094E-3,-2.173176169E-2,2.367318102E-2
3.386073125E0,3.362388827E-3,7.315414958E-3,-3.460265279E-2,3.552695504E-2
3.396052125E0,1.489349552E-2,1.910735772E-2,-2.397533834E-2,3.408407511E-2
3.406030125E0,1.776250269E-2,9.891341859E-3,-3.415475607E-2,3.974786167E-2
3.416008125E0,-2.794665301E-3,2.668395136E-3,-3.804724753E-2,3.824295401E-2
3.425987125E0,9.894299728E-3,2.725716121E-4,-1.649382591E-2,1.923584559E-2
3.435965125E0,3.978445530E-3,1.336950327E-2,-2.742227197E-2,3.076609573E-2
3.445944708E0,-8.042564190E-3,2.456938804E-2,-2.861978173E-2,3.856720853E-2
3.455922708E0,8.918504503E-3,1.203938048E-2,-2.951966822E-2,3.310433834E-2
3.465900708E0,-1.396018169E-3,2.867986187E-3,-2.532838404E-2,2.552844002E-2
3.475879708E0,5.153669638E-3,2.016897454E-2,-3.191527247E-2,3.810423155E-2
3.485857708E0,-7.634768863E-3,1.297295242E-2,-2.727492213E-2,3.115298649E-2
3.495835708E0,1.380266318E-2,1.185553123E-2,-1.634647608E-2,2.445964865E-2
3.505814708E0,2.782808701E-3,1.422292267E-2,-2.323098779E-2,2.738091209E-2
3.515792708E0,-8.669001984E-3,1.736636753E-2,-2.293161035E-2,3.004331988E-2
3.525770708E0,1.304710242E-2,1.644471844E-2,-2.398118556E-2,3.187087866E-2
3.535749708E0,1.528532292E-2,2.183723085E-2,-3.401032984E-2,4.321120554E-2
3.545727708E0,-9.263739190E-3,1.166049005E-2,-2.817071557E-2,3.186491970E-2
3.555706708E0,8.745534271E-3,4.556287481E-3,-1.826085448E-3,1.002889392E-2
3.565684708E0,6.863486858E-3,1.544368425E-2,-2.398001611E-2,2.933693931E-2
3.575662708E0,2.632205896E-2,1.834298045E-2,-2.173410058E-2,3.875160445E-2
3.585641708E0,-3.030214445E-3,4.305935288E-3,-2.772281885E-2,2.821839760E-2
3.595619708E0,-9.477774692E-3,1.101694915E-2,-1.888943017E-2,2.383300135E-2
3.605597708E0,4.544106543E-3,8.141699620E-3,-1.080506980E-2,1.427185028E-2
3.615576708E0,1.370103126E-2,1.403156340E-2,-2.502491355E-2,3.179385675E-2
3.625554708E0,2.802712074E-3,7.377733486E-3,-1.888884544E-2,2.047131233E-2
3.635532708E0,5.034174020E-3,1.789755053E-2,-2.712347925E-2,3.288386154E-2
3.645511708E0,-1.353790537E-2,1.449077083E-2,-3.550546288E-2,4.066811055E-2
3.655489708E0,-1.083368462E-2,2.249993051E-2,-2.562542260E-2,3.578097090E-2
3.665467708E0,-2.468390667E-3,2.128493392E-2,-2.233168602E-2,3.094908020E-2
3.675446708E0,-5.606913362E-3,2.300212411E-3,-4.059370995E-2,4.104360781E-2
3.685424708E0,3.051705246E-3,4.079282591E-3,-2.727141380E-2,2.774316965E-2
3.695403708E0,6.963531347E-3,6.301982850E-3,-2.338009179E-2,2.519592127E-2
3.705381708E0,1.976088914E-2,-4.631789653E-3,-3.625390649E-2,4.154866966E-2
3.715359708E0,2.309661831E-2,8.272183891E-3,-2.906826317E-2,3.803743850E-2
3.725338708E0,2.238354123E-2,2.540357558E-2,-2.637445092E-2,4.291825057E-2
3.735316708E0,7.409470619E-3,2.494404838E-2,-2.457994044E-2,3.579496161E-2
3.745294708E0,7.041356417E-3,7.909345888E-3,-2.607682765E-2,2.814497100E-2
3.755273708E0,-6.907450610E-3,-1.902683973E-3,-3.460674584E-2,3.534062730E-2
3.765251708E0,-2.218618628E-3,-1.091099577E-3,-2.262930930E-2,2.276397167E-2
3.775229708E0,1.377213432E-2,9.477094039E-3,-2.936354756E-2,3.378912430E-2
3.785208708E0,2.773020325E-2,1.639394816E-3,-2.158265769E-2,3.517759089E-2
3.795186708E0,1.995046683E-2,5.223482195E-4,-3.715086937E-2,4.217204132E-2
3.805164708E0,1.517416873E-2,-5.115719838E-3,-1.409997582E-2,2.133624391E-2
3.815143708E0,1.976854990E-2,6.120773982E-3,-4.763024926E-2,5.193168671E-2
3.825121708E0,-3.779503154E-3,1.247142577E-2,-3.415767968E-2,3.655910537E-2
3.835100708E0,-2.040842716E-2,2.135150081E-2,-2.921736717E-2,4.154569810E-2
3.845078708E0,-2.632292919E-2,1.822303031E-2,-2.682234764E-2,4.176617971E-2
3.855056708E0,-1.135312293E-2,2.618817142E-2,-2.532487571E-2,3.815839426E-2
3.865035708E0,8.046067951E-3,1.687949547E-2,-2.891623557E-2,3.443552317E-2
3.875013708E0,1.070555979E-2,1.296649307E-2,-1.424732566E-2,2.203917515E-2
3.884991708E0,1.573823089E-2,3.486247016E-3,-3.625156760E-2,3.967394590E-2
3.894970708E0,1.098551808E-2,1.545473915E-3,-1.245281518E-2,1.667761082E-2
3.904948708E0,2.762222390E-2,-1.570279813E-2,-3.745317042E-2,4.911522266E-2
3.914926708E0,1.885905890E-2,-4.888354512E-3,-1.799305201E-2,2.651999308E-2
3.924905708E0,-3.745370032E-4,2.099436385E-2,-2.742344141E-2,3.453908988E-2
3.934883708E0,-2.490770428E-2,2.559374713E-2,-3.041721582E-2,4.691098638E-2
3.944862708E0,-3.320040825E-2,2.846476656E-2,-1.529865503E-2,4.633097117E-2
3.954840708E0,-2.296146769E-2,2.167850635E-2,-2.263223290E-2,3.885105664E-2
3.964818708E0,3.722024567E-3,2.346537891E-2,-3.505639672E-2,4.234888931E-2
3.974797708E0,9.218866378E-4,2.014729416E-2,-3.071425438E-2,3.674409829E-2
3.984775708E0,2.093385887E-2,5.217324346E-3,-3.191000998E-2,3.851877020E-2
3.994753708E0,1.621159726E-2,1.254035896E-3,-2.457292378E-2,2.946552349E-2
4.004732708E0,3.144516547E-2,-2.144570494E-2,-1.888358295E-2,4.248889734E-2
4.014710708E0,2.026367659E-2,-4.781094650E-3,-2.591836810E-2,3.324510881E-2
4.024688708E0,2.719179346E-2,1.876789944E-2,-3.100661516E-2,4.531046087E-2
4.034667708E0,2.006662086E-2,3.180925515E-2,-2.950797379E-2,4.780395907E-2
4.044645708E0,-1.586110236E-2,1.233113827E-2,-2.771346331E-2,3.422963026E-2
4.054623708E0,-2.664683296E-2,1.035090560E-2,-3.744381487E-2,4.710874893E-2
4.064602708E0,-3.083669645E-2,3.284288756E-2,-8.854438663E-3,4.591250586E-2
4.074580708E0,-1.503772989E-2,1.815077151E-2,-2.277724385E-2,3.277783800E-2
4.084559708E0,3.400911929E-3,7.897258596E-3,-2.951382101E-2,3.074082832E-2
4.094537708E0,2.284061762E-3,-1.638864912E-4,-2.128094137E-2,2.140379084E-2
4.104515708E0,1.886580604E-2,6.274062395E-3,-2.577335715E-2,3.255070561E-2
4.114494708E0,4.661004717E-2,-1.276702993E-3,7.458708286E-3,4.722032187E-2
4.124472708E0,4.108998324E-2,-1.071925278E-2,-3.170945048E-3,4.258337698E-2
4.134450708E0,1.591668060E-2,1.795099773E-2,-1.067543703E-1,1.094169759E-1
4.144429708E0,-2.693649397E-2,-8.559775539E-5,9.554350376E-3,2.858089651E-2
4.154407708E0,-1.535377418E-2,2.645588254E-2,-2.367771506E-2,3.868186000E-2
4.164385708E0,5.357191572E-4,2.067482265E-2,-1.104965883E-1,1.124154408E-1
4.174364708E0,-2.029241931E-2,1.766243764E-2,1.342433006E-1,1.369124090E-1
4.184342708E0,-3.252777288E-2,4.266172394E-2,-1.431298989E-1,1.528536773E-1
4.194321708E0,-2.792929409E-2,9.047908410E-3,2.706851542E-2,3.993262628E-2
4.204299708E0,-7.087373547E-3,-2.283354158E-2,-7.981215477E-2,8.331615410E-2
4.214277708E0,6.840731596E-2,-5.474583562E-3,2.422326028E-2,7.277567094E-2
4.224256708E0,5.657595931E-2,7.432825221E-3,-5.376339376E-2,7.840018221E-2
4.234234708E0,5.122403480E-2,1.199915347E-2,-3.924300313E-2,6.563455431E-2
4.244212708E0,-4.488205334E-2,-1.114104716E-3,-2.427062273E-2,5.103629168E-2
4.254191708E0,2.613243101E-2,-2.791716568E-2,-4.518728256E-3,3.850572679E-2
4.264169708E0,5.309376880E-3,7.125230614E-2,-1.239621413E-1,1.430793244E-1
4.274147708E0,-9.965124585E-2,2.968208377E-2,8.933668435E-2,1.370855210E-1
4.284126708E0,-1.896005357E-4,2.356225996E-2,-1.094452590E-1,1.119530292E-1
4.294104708E0,-4.384822450E-2,-3.640548642E-2,-1.110093892E-2,5.806252731E-2
4.304083708E0,6.429834504E-2,2.867655454E-2,2.748191357E-4,7.040381723E-2
4.314061708E0,-1.603194384E-2,2.731443652E-2,-2.113066792E-2,3.807370211E-2
4.324039708E0,5.006400660E-2,-1.806995203E-2,2.781754375E-2,6.005617090E-2
4.334018708E0,7.763791331E-2,-4.487482198E-2,-1.251619899E-1,1.539705133E-1
4.343996708E0,1.179960261E-1,-1.961728974E-2,9.682579815E-2,1.538932599E-1
4.353974708E0,-9.967239175E-3,5.358452378E-2,-1.606376320E-1,1.696322371E-1
4.363953708E0,-6.872187789E-2,2.518495367E-2,8.006416976E-2,1.084769546E-1
4.373931708E0,-8.966883360E-2,3.415312981E-3,-1.380352199E-1,1.646386529E-1
4.383909708E0,-8.359455869E-3,4.707538504E-2,2.572424054E-2,5.429280736E-2
4.393888708E0,-6.939042477E-2,6.715947445E-2,-1.424440205E-2,9.761316022E-2
4.403866708E0,-1.896059032E-2,7.290984560E-3,2.222526670E-3,2.043531419E-2
4.413844708E0,5.627892532E-2,-7.139508784E-2,-1.215694606E-1,1.518015473E-1
4.423823708E0,1.592236656E-1,-1.182646874E-2,5.341548443E-2,1.683604913E-1
4.433801708E0,6.635420779E-2,3.491863998E-2,-6.558704853E-2,9.961853866E-2
4.443780708E0,-1.385522645E-2,-2.876713157E-2,1.943789899E-2,3.738110587E-2
4.453758583E0,-2.399885283E-2,-1.206309825E-2,-5.929778337E-2,6.509754519E-2
4.463736583E0,-6.316381618E-3,6.346122019E-2,-1.528871477E-2,6.558176533E-2
4.473715583E0,-7.706714284E-2,8.080989989E-2,6.268215179E-3,1.118430818E-1
4.483693583E0,-9.793027324E-2,3.722729431E-2,-3.968680680E-2,1.120323725E-1
4.493671583E0,-4.331953570E-2,1.240368029E-3,-7.695695937E-2,8.832040694E-2
4.503650583E0,4.829601872E-2,1.910522897E-3,1.959051132E-2,5.215307906E-2
4.513628583E0,5.831928838E-2,2.618325611E-2,-3.160420060E-3,6.400539471E-2
4.523606583E0,2.898883240E-2,-1.898804711E-2,-3.594341934E-2,4.992822579E-2
4.533585583E0,6.727749685E-2,-3.460201325E-2,-5.001298964E-2,9.069101409E-2
4.543563583E0,5.930923113E-2,-1.401335481E-2,8.365026712E-3,6.151367882E-2
4.553542583E0,4.520592513E-2,2.277959188E-2,-2.097337782E-2,5.479386873E-2
4.563520583E0,-4.592117665E-2,2.727241879E-3,-5.884403944E-2,7.469145393E-2
4.573498583E0,-6.860293273E-2,1.121622956E-2,-2.291933119E-2,7.319468510E-2
4.583477583E0,-4.844715097E-2,5.554324052E-2,-5.420602798E-2,9.149028077E-2
4.593455583E0,-2.419477110E-2,5.839047823E-2,4.638479233E-2,7.839887662E-2
4.603433583E0,-3.927555568E-2,1.081979748E-2,-5.315879166E-2,6.697383386E-2
4.613412583E0,9.288302064E-3,-1.128560130E-2,-2.935770035E-2,3.279499842E-2
4.623390583E0,5.825638056E-2,7.506226050E-3,-2.501848161E-2,6.384413621E-2
4.633368583E0,8.696058604E-2,-9.813244985E-3,-4.661400318E-3,8.763659027E-2
4.643347583E0,3.961124067E-2,-1.103855643E-2,-5.899723649E-2,7.191365676E-2
4.653325583E0,2.879131300E-2,-6.833056211E-3,-5.708636642E-3,3.013667025E-2
4.663303583E0,6.843256862E-3,2.074745603E-2,-4.642513812E-2,5.130867904E-2
4.673282583E0,-2.345738467E-3,3.715251390E-2,5.964159966E-3,3.770123316E-2
4.683260583E0,-9.808969209E-2,4.613181802E-2,-4.313666403E-2,1.166640652E-1
4.693239583E0,-6.978609854E-2,3.461349755E-2,-3.565573633E-2,8.567102950E-2
4.703217583E0,-3.806532593E-2,2.046390262E-2,-3.775371730E-2,5.738539465E-2
4.713195583E0,2.329341595E-2,8.498571636E-3,3.424071014E-2,4.227570434E-2
4.723174583E0,2.717751117E-2,-2.733692089E-3,-7.548696935E-2,8.027685051E-2
4.733152583E0,7.499588546E-2,-4.215554693E-2,-3.417346716E-2,9.257050735E-2
4.743130583E0,1.305491393E-1,-4.231031542E-2,9.843787551E-3,1.375868479E-1
4.753109583E0,7.153533422E-2,-1.815751408E-2,1.823395729E-2,7.602286865E-2
4.763087583E0,5.319039860E-2,-6.187240379E-3,-3.414715469E-2,6.351006708E-2
4.773065583E0,-5.261561274E-2,-2.437789173E-2,3.502891481E-2,6.774739243E-2
4.783044583E0,5.861057108E-3,8.057408351E-2,-1.228891772E-1,1.470655799E-1
4.793022583E0,-7.606664769E-2,4.044690829E-2,-5.700742900E-2,1.033050543E-1
4.803001583E0,-1.231722555E-1,3.243359160E-2,5.601223290E-2,1.391427779E-1
4.812979583E0,-5.894219500E-2,7.894285653E-2,-1.896222800E-1,2.136884789E-1
4.822957583E0,-5.973818378E-2,2.309277423E-2,-8.183996916E-2,1.039216406E-1
4.832936583E0,8.544077592E-2,1.075357776E-3,2.249306917E-2,8.835847862E-2
4.842914583E0,5.892073390E-2,-3.653583365E-2,1.875845253E-2,7.182199917E-2
4.852892583E0,1.257754359E-1,-6.807867503E-3,-3.532887697E-3,1.260090816E-1
4.862871583E0,-2.498803041E-3,-6.338083011E-2,-1.908589661E-2,6.623930171E-2
4.872849583E0,2.284845563E-1,-1.029261617E-2,4.248060644E-2,2.326278838E-1
4.882827583E0,-1.242739806E-1,1.059509081E-2,-2.707553208E-2,1.276297874E-1
4.892806583E0,2.789172116E-2,9.071584152E-2,2.942903638E-3,9.495247597E-2
4.902784583E0,-1.337902418E-1,6.563618341E-2,-3.542009354E-2,1.531748034E-1
4.912762583E0,-1.566604107E-1,7.284396392E-2,-8.591898680E-2,1.929528431E-1
4.922741583E0,1.933712589E-1,9.665428287E-2,-6.856562018E-2,2.267944850E-1
4.932719583E0,-8.029855175E-2,1.166060882E-2,-5.715127051E-2,9.924764446E-2
4.942698583E0,-5.689557360E-2,7.998269247E-3,-3.506575227E-3,5.756192036E-2
4.952676583E0,3.939281245E-1,7.164967926E-3,9.849751711E-2,4.061187818E-1
4.962654583E0,5.042530971E-2,-2.084002476E-3,-8.249544203E-2,9.670859776E-2
4.972633583E0,7.260438340E-2,-5.409408121E-2,2.423898929E-1,2.587478045E-1
4.982611583E0,3.763972583E-1,9.329833740E-2,2.674487203E-1,4.710714318E-1
4.992589583E0,7.104415988E-1,4.010209067E-1,5.038189048E-1,9.588422820E-1
5.002568583E0,8.940981840E-1,6.302015740E-1,4.418278939E-1,1.179736188E0
5.012546583E0,1.943257510E0,1.413939775E0,3.280293828E-1,2.425505868E0
5.022524583E0,1.622272268E0,2.243079048E0,9.692104930E-1,2.933008678E0
5.032503583E0,-1.457745653E0,2.023381322E0,4.837542427E0,5.442509632E0
5.042481583E0,-1.348850325E-1,1.360053444E0,4.989592838E-1,1.454956944E0
5.052460583E0,-8.540737005E-1,1.500629425E0,4.232746786E-1,1.777777267E0
5.062438583E0,-5.660784490E-1,-9.894634938E-1,1.373163047E0,1.784673519E0
5.072416583E0,-8.207789236E-1,-2.304127341E0,2.676539576E-1,2.460552679E0
5.082395583E0,-9.738420725E-2,-1.958386596E0,-2.710175099E0,3.345117459E0
5.092373583E0,4.012781842E-1,-2.519161767E0,-4.372912731E0,5.062565154E0
5.102351583E0,-4.721546240E-1,-3.222582394E0,-2.242792534E0,3.954501945E0
5.112330583E0,-3.265266484E-1,-1.425615495E0,-1.359822625E0,1.997026981E0
5.122308583E0,5.753084251E-1,4.854599998E-1,9.114458495E-1,1.182110288E0
5.132286583E0,-1.661986265E-1,-1.500215004E-1,4.082824177E0,4.088958509E0
5.142265583E0,-3.308035943E-1,-6.949379258E-1,6.582455658E0,6.627299015E0
5.152243583E0,-3.262877896E-2,-5.621138541E-1,7.653210068E0,7.673894771E0
5.162222583E0,-8.946149316E-1,-6.862872626E-1,6.933590314E0,7.024670862E0
5.172200583E0,-2.442299825E0,-8.963139132E-1,5.026585833E0,5.659926872E0
5.182178583E0,-3.130222407E0,-5.307834128E-1,2.655346343E0,4.138947638E0
5.192157583E0,-2.783885685E0,-3.881639758E-1,1.450017681E0,3.162790232E0
5.202135583E0,-1.411549433E0,-6.833652627E-1,1.518958107E0,2.183275891E0
5.212113583E0,5.823721540E-1,-1.018916942E0,2.237054662E0,2.526215078E0
5.222092583E0,1.548736076E0,-1.966410730E0,2.701865621E0,3.683128077E0
5.232070583E0,1.612756802E0,-2.133880834E0,2.250447709E0,3.495561014E0
5.242048583E0,1.189131729E0,-1.531687203E0,1.170982118E0,2.265237091E0
5.252027583E0,2.989554186E-1,-8.961217591E-1,1.913787836E-1,9.638642997E-1
5.262005583E0,-7.126520656E-1,-4.692951894E-1,1.022771573E-1,8.594018608E-1
5.271984583E0,-1.236305749E0,-2.635258234E-1,7.619647050E-1,1.475970181E0
5.281962583E0,-1.169947014E0,-4.172967777E-1,1.312403460E0,1.807018389E0
5.291940583E0,-1.160802408E0,-8.831280765E-1,1.214757298E0,1.898160352E0
5.301919583E0,-8.459403697E-1,-1.505687559E0,2.957176691E-1,1.752186940E0
5.311897583E0,9.118864372E-2,-1.597831784E0,-1.059706095E0,1.919468361E0
5.321875583E0,1.134910644E0,-1.300715461E0,-2.429588855E0,2.980400122E0
5.331854583E0,1.606214206E0,-1.250139384E0,-3.621260760E0,4.154070540E0
5.341832583E0,1.570185417E0,-1.042822260E0,-4.578738815E0,4.951546188E0
5.351810583E0,1.353997336E0,-4.977225977E-1,-5.006293071E0,5.209991064E0
5.361789583E0,1.004580593E0,-3.176184154E-1,-4.814989716E0,4.928913632E0
5.371767583E0,6.783141455E-1,-5.240531945E-1,-4.369365225E0,4.452650256E0
5.381745583E0,7.696604448E-1,-8.986527264E-1,-3.868229023E0,4.045139021E0
5.391724583E0,1.307766472E0,-1.120222439E0,-3.403713348E0,3.814500755E0
5.401702583E0,1.577009557E0,-8.893164772E-1,-3.046747264E0,3.544081239E0
5.411681583E0,1.275401402E0,-5.999892300E-1,-2.706925217E0,3.051897761E0
5.421659583E0,4.673803724E-1,-3.462902373E-1,-2.270561546E0,2.343888025E0
5.431637583E0,-2.720996688E-1,-3.585383999E-1,-1.687070235E0,1.746079606E0
5.441616583E0,-3.104555031E-1,-5.066372627E-1,-1.215700454E0,1.353141356E0
5.451594625E0,1.284457862E-1,-5.934169596E-1,-8.674309337E-1,1.058809913E0
5.461572625E0,4.077854774E-1,-5.777323884E-1,-5.306061691E-1,8.840851853E-1
5.471551625E0,1.560108764E-1,-4.615622467E-1,-9.267778337E-2,4.959518854E-1
5.481529625E0,-2.876042189E-1,-4.096787328E-1,4.481212521E-1,6.718374114E-1
5.491507625E0,-3.017411783E-1,-3.641236603E-1,9.921672463E-1,1.099104009E0
5.501486625E0,-2.293158111E-1,-1.290761161E-1,1.639616572E0,1.660598954E0
5.511464625E0,-2.004414562E-1,8.886247516E-2,2.131311275E0,2.142559466E0
5.521442625E0,-2.164255511E-1,3.077711195E-1,2.306763412E0,2.337246355E0
5.531421625E0,-2.811053310E-1,2.009962839E-1,2.285704665E0,2.311680240E0
5.541399625E0,-4.568773113E-2,3.891696239E-1,1.906205167E0,1.946062307E0
5.551378625E0,5.168090791E-2,-1.540624380E-2,1.502765998E0,1.503733325E0
5.561356625E0,-6.985734321E-2,3.183002007E-1,1.345125064E0,1.384036308E0
5.571334625E0,-3.515669840E-1,3.676278967E-1,1.408977828E0,1.497988029E0
5.581313625E0,-4.370932572E-2,7.303189892E-1,1.441399469E0,1.616449431E0
5.591291625E0,4.627945474E-1,7.431273150E-1,1.915135619E0,2.105744866E0
5.601269625E0,9.240721808E-1,7.224954146E-1,2.492130089E0,2.754382217E0
5.611248625E0,9.042928775E-1,6.103756392E-1,2.891425336E0,3.090411704E0
5.621226625E0,6.471256819E-1,4.926407826E-1,3.268575423E0,3.368241661E0
5.631204625E0,2.452352943E-1,2.654799628E-1,3.670038818E0,3.687791329E0
5.641183625E0,-1.812178577E-1,4.304135442E-2,3.771691493E0,3.776287752E0
5.651161625E0,-5.470379414E-1,-8.529918194E-2,3.695841996E0,3.737081016E0
5.661140625E0,-6.023490201E-1,-1.081167716E-1,3.836506124E0,3.885008728E0
5.671118625E0,-4.432712790E-1,-1.613311118E-1,4.443230177E0,4.468200036E0
5.681096625E0,-1.937485139E-1,-5.042451668E-1,5.353901271E0,5.381083580E0
5.691075625E0,3.314323162E-1,-8.074162817E-1,6.142380760E0,6.204080095E0
5.701053625E0,8.429218177E-1,-1.013285050E0,6.907998805E0,7.032617669E0
5.711031625E0,1.094858167E0,-1.463375060E0,7.594129216E0,7.810952536E0
5.721010625E0,1.009851858E0,-2.036023294E0,8.071559637E0,8.385419882E0
5.730988625E0,7.129770977E-1,-2.550564238E0,8.720680096E0,9.113944021E0
5.740966625E0,2.271214242E-1,-3.124054472E0,9.803135369E0,1.029139269E1
5.750945625E0,1.466828864E-1,-3.856375548E0,1.058780481E1,1.126919513E1
5.760923625E0,6.240356120E-1,-4.711907982E0,1.076741374E1,1.176982140E1
5.770902625E0,1.127757161E0,-5.433528069E0,1.074202279E1,1.209074510E1
5.780880625E0,1.131509611E0,-6.069781730E0,1.125115623E1,1.283398148E1
5.790858625E0,6.651272124E-1,-7.189245200E0,1.186183826E1,1.388635473E1
5.800837625E0,5.644506573E-1,-8.759877491E0,1.132255424E1,1.432669860E1
5.810815625E0,7.623692592E-1,-9.789233614E0,1.003691991E1,1.404101360E1
5.820793625E0,1.104150635E0,-1.055484640E1,8.516288919E0,1.360702422E1
5.830772625E0,1.297247039E0,-1.095559935E1,7.479208040E0,1.332841176E1
5.840750625E0,1.033232900E0,-1.121895327E1,6.814049252E0,1.316676687E1
5.850728625E0,7.399064494E-1,-1.189147078E1,4.830958170E0,1.285662069E1
5.860707625E0,4.980928726E-1,-1.169773615E1,9.342318642E-1,1.174554881E1
5.870685625E0,3.700044975E-1,-1.138748523E1,-2.991864421E0,1.177976977E1
5.880663625E0,1.314438876E0,-1.020272239E1,-5.965705969E0,1.189171735E1
5.890642625E0,1.872348765E0,-8.482084461E0,-1.010143224E1,1.332255156E1
5.900620625E0,9.136406019E-1,-7.394381313E0,-1.309171002E1,1.506334908E1
5.910599625E0,4.272496158E-1,-6.938799013E0,-1.301662008E1,1.475675684E1
5.920577625E0,3.812688661E-1,-7.103570627E0,-1.124933540E1,1.330990716E1
5.930555625E0,2.705265485E-1,-7.130998746E0,-1.023264143E1,1.247522658E1
5.940534625E0,-1.608599724E-1,-6.832559198E0,-9.680261979E0,1.184977692E1
5.950512625E0,-6.429051617E-1,-6.465660449E0,-9.479968531E0,1.149294981E1
5.960490625E0,-9.733956376E-1,-5.916104039E0,-9.468525530E0,1.120717457E1
5.970469625E0,-1.464594935E0,-5.861935433E0,-8.848355804E0,1.071451006E1
5.980447625E0,-1.958753363E0,-5.893520338E0,-8.185802536E0,1.027509902E1
5.990426625E0,-2.148445371E0,-5.822486023E0,-8.147616709E0,1.024211009E1
6.000404625E0,-2.022861943E0,-5.687651569E0,-8.522164786E0,1.044359342E1
6.010382625E0,-1.755567589E0,-5.474850342E0,-9.122049351E0,1.078275420E1
6.020361625E0,-1.441601344E0,-5.079020739E0,-9.610852606E0,1.096554394E1
6.030339625E0,-1.142439665E0,-4.648135909E0,-9.677012681E0,1.079605994E1
6.040317625E0,-9.859244666E-1,-4.092518860E0,-9.572528200E0,1.045724886E1
6.050296625E0,-8.191969594E-1,-3.468447288E0,-9.166218633E0,9.834672047E0
6.060274625E0,-7.105625631E-1,-2.859245185E0,-8.291923068E0,8.799782404E0
6.070252625E0,-6.525400575E-1,-2.356578766E0,-7.109326041E0,7.518097417E0
6.080231625E0,-6.214762858E-1,-1.970632128E0,-6.279033698E0,6.610286524E0
6.090209625E0,-5.995381173E-1,-1.621015409E0,-5.917530760E0,6.164763353E0
6.100187625E0,-7.220434248E-1,-1.519445765E0,-5.321623471E0,5.581195079E0
6.110166625E0,-8.366235624E-1,-1.590859564E0,-4.224953324E0,4.591405420E0
6.120144625E0,-8.896354428E-1,-1.781446050E0,-2.736028271E0,3.383910748E0
6.130123625E0,-7.572766998E-1,-2.015524710E0,-1.350094612E0,2.541370363E0
6.140101625E0,-4.963522296E-1,-2.237779716E0,-2.590220055E-1,2.306754429E0
6.150079625E0,-3.776153065E-1,-2.398960555E0,2.864156261E-1,2.445330034E0
6.160058625E0,-1.834590223E-1,-2.497903045E0,3.830816491E-1,2.533757760E0
6.170036625E0,7.498476662E-2,-2.585973222E0,4.065992966E-1,2.618817139E0
6.180014625E0,4.201896145E-1,-2.587381817E0,6.240218711E-1,2.694532849E0
6.189993625E0,5.854122676E-1,-2.635368746E0,9.502392018E-1,2.861962699E0
6.199971625E0,5.111729479E-1,-2.659763914E0,1.382481755E0,3.040871202E0
6.209949625E0,2.384313279E-1,-2.622796063E0,1.767413317E0,3.171696473E0
6.219928625E0,1.268228915E-1,-2.546864705E0,1.710284851E0,3.070452433E0
6.229906625E0,4.556341933E-1,-2.447497122E0,1.239313264E0,2.780960634E0
6.239885625E0,7.721550132E-1,-2.420419836E0,9.496427858E-1,2.712282612E0
6.249863625E0,6.617105381E-1,-2.458605078E0,1.018237057E0,2.742153619E0
6.259841625E0,5.014109483E-1,-2.281185352E0,1.129645227E0,2.594478346E0
6.269820625E0,4.181793418E-1,-2.049773022E0,1.617368208E0,2.644300158E0
6.279798625E0,9.543226048E-2,-1.902856466E0,2.584911368E0,3.211189317E0
6.289776625E0,-2.495561673E-1,-1.721847135E0,3.512292634E0,3.919596329E0
6.299755625E0,-2.152328653E-1,-1.445072690E0,4.185255408E0,4.432936171E0
6.309733625E0,9.703286268E-2,-1.177144498E0,4.529391531E0,4.680862334E0
6.319711625E0,3.807238325E-1,-8.988825220E-1,4.788112697E0,4.886610648E0
6.329690625E0,4.760838068E-1,-7.612320489E-1,4.944868655E0,5.025719455E0
6.339668625E0,3.180073283E-1,-5.535822183E-1,4.809251551E0,4.851441272E0
6.349647625E0,-6.304738350E-2,-2.099261516E-1,4.480854963E0,4.486212786E0
6.359625625E0,-4.071065426E-1,2.315438926E-2,4.159305757E0,4.179245894E0
6.369603625E0,-3.784834718E-1,1.879447138E-1,3.783903987E0,3.807427260E0
6.379582625E0,-4.512296319E-2,3.693346989E-1,3.293625480E0,3.314575841E0
6.389560625E0,3.709361782E-1,4.731005573E-1,2.794324719E0,2.858263182E0
6.399538625E0,5.650626415E-1,4.762562996E-1,2.404772102E0,2.515759272E0
6.409517625E0,5.226128791E-1,5.557901269E-1,2.127970760E0,2.260594268E0
6.419495625E0,3.293332388E-1,6.684256268E-1,1.935829500E0,2.074292422E0
6.429473625E0,2.148256067E-1,7.788350916E-1,1.724619592E0,1.904480737E0
6.439452625E0,2.198376938E-1,8.457646608E-1,1.641550831E0,1.859660077E0
6.449433083E0,2.768665382E-1,9.624277228E-1,1.855168329E0,2.108215296E0
6.459411083E0,2.766879789E-1,1.089901117E0,2.375122626E0,2.627859998E0
6.469390083E0,2.578062232E-1,1.079442787E0,2.923345286E0,3.126916763E0
6.479368083E0,2.142679285E-1,9.944412285E-1,3.218784628E0,3.375707123E0
6.489347083E0,8.165380843E-2,1.039812114E0,3.242207404E0,3.405845773E0
6.499325083E0,-1.548554666E-2,1.112647371E0,3.104166337E0,3.297585878E0
6.509303083E0,-1.065644089E-1,1.089505261E0,3.080025523E0,3.268781869E0
6.519282083E0,-1.264686964E-1,1.051394278E0,3.380351382E0,3.542343819E0
6.529260083E0,-1.276045181E-2,1.027669786E0,3.920938456E0,4.053396896E0
6.539238083E0,-1.675695062E-2,8.308086526E-1,4.509614494E0,4.585536685E0
6.549217083E0,-1.926375429E-1,6.069105792E-1,4.835216990E0,4.876963503E0
6.559195083E0,-4.095601805E-1,4.682736808E-1,5.051843466E0,5.090004144E0
6.569173083E0,-8.317189910E-1,1.823272938E-1,5.538550494E0,5.603618589E0
6.579152083E0,-9.992002042E-1,-2.184040296E-1,6.149230188E0,6.233709431E0
6.589130083E0,-9.361570600E-1,-4.744547725E-1,6.921362032E0,7.000482108E0
6.599109083E0,-8.074616707E-1,-6.733396268E-1,8.005206603E0,8.073952771E0
6.609087083E0,-2.636724057E-1,-8.625005615E-1,9.066070447E0,9.110821242E0
6.619065083E0,5.950103625E-1,-1.159646705E0,9.810396441E0,9.896600232E0
6.629044083E0,9.646346082E-1,-1.780055582E0,1.015544999E1,1.035530214E1
6.639022083E0,7.012762345E-1,-2.424814603E0,1.011365526E1,1.042389260E1
6.649000083E0,3.932103057E-1,-3.125993409E0,9.844395661E0,1.033627472E1
6.658979083E0,4.172569070E-1,-4.044455917E0,9.261045268E0,1.011428131E1
6.668957083E0,3.395987568E-1,-5.022065935E0,8.795901602E0,1.013431589E1
6.678935083E0,1.198000932E-1,-5.919801818E0,8.666460035E0,1.049599615E1
6.688914083E0,2.449786015E-1,-7.023943244E0,8.296388587E0,1.087317142E1
6.698892083E0,8.540895610E-1,-8.048833848E0,6.802565321E0,1.057298871E1
6.708870083E0,1.069622535E0,-8.600425674E0,4.073305202E0,9.576180314E0
6.718849083E0,8.982270491E-1,-8.634879223E0,9.490861309E-1,8.733196180E0
6.728827083E0,6.607433356E-1,-8.079907122E0,-1.901150249E0,8.326815305E0
6.738806083E0,3.767014232E-1,-7.460120389E0,-4.361935169E0,8.649958300E0
6.748784083E0,5.519561442E-2,-6.843536176E0,-6.065329075E0,9.144684289E0
6.758762083E0,1.113462253E-1,-6.035047515E0,-6.851381970E0,9.131025758E0
6.768741083E0,2.516214039E-1,-5.716613413E0,-6.643368443E0,8.767971630E0
6.778719083E0,2.244337880E-1,-5.645095534E0,-5.819048445E0,8.110412993E0
6.788697083E0,1.227845120E-1,-5.562243412E0,-5.001481397E0,7.481206051E0
6.798676083E0,4.434835330E-2,-5.411978740E0,-5.049047327E0,7.401645734E0
6.808654083E0,-2.892296717E-1,-4.882294092E0,-5.563661946E0,7.407751592E0
6.818632083E0,-6.389550751E-1,-4.383209678E0,-5.627811749E0,7.161917044E0
6.828611083E0,-9.698642117E-1,-4.178316225E0,-5.658988518E0,7.100923469E0
6.838589083E0,-1.148065125E0,-3.988022684E0,-6.207062075E0,7.466592132E0
6.848568083E0,-1.167285800E0,-3.761648900E0,-6.881757086E0,7.929132309E0
6.858546083E0,-9.443518596E-1,-3.557641300E0,-7.282650962E0,8.160001047E0
6.868524083E0,-6.640567334E-1,-3.299290262E0,-7.565591295E0,8.280365887E0
6.878503083E0,-4.754205863E-1,-2.968324993E0,-7.812656622E0,8.371056175E0
6.888481083E0,-3.362088701E-1,-2.555585243E0,-7.882730239E0,8.293460578E0
6.898459083E0,-1.979158976E-1,-2.254767632E0,-7.694820024E0,8.020810618E0
6.908438083E0,-1.222067340E-1,-1.911314464E0,-7.521422013E0,7.761433280E0
6.918416083E0,-1.744275592E-2,-1.523516597E0,-7.374325948E0,7.530079034E0
6.928394083E0,1.354334648E-1,-1.220279408E0,-7.177858917E0,7.282107023E0
6.938373083E0,1.646404166E-1,-9.595041150E-1,-6.972827470E0,7.040460037E0
6.948351083E0,1.302871475E-1,-7.349441367E-1,-6.657937950E0,6.699645914E0
6.958330083E0,9.082070768E-2,-5.821312487E-1,-6.197317690E0,6.225260777E0
6.968308083E0,3.315247022E-2,-5.330602455E-1,-5.713972226E0,5.738878890E0
6.978286083E0,5.032651003E-2,-6.380095804E-1,-5.291485167E0,5.330047303E0
6.988265083E0,9.671769775E-3,-8.054223812E-1,-4.777347681E0,4.844775497E0
6.998243083E0,-3.078298840E-1,-8.927353442E-1,-3.580531395E0,3.702963773E0
7.008221083E0,-4.870826387E-1,-1.090636112E0,-1.804114535E0,2.163692650E0
7.018200083E0,-5.148425873E-1,-1.295702643E0,-2.150354487E-1,1.410726222E0
7.028178083E0,-5.132173903E-1,-1.481121944E0,8.089219397E-1,1.763935659E0
7.038156083E0,-4.230439694E-1,-1.660742562E0,1.360998500E0,2.188458127E0
7.048135083E0,-1.834122812E-1,-1.790341419E0,1.452561219E0,2.312768159E0
7.058113083E0,-4.159259710E-2,-1.703300352E0,1.381231913E0,2.193345305E0
7.068092083E0,-6.968960121E-2,-1.511111144E0,1.614834318E0,2.212691439E0
7.078070083E0,-1.610846516E-1,-1.399450960E0,2.143645684E0,2.565078570E0
7.088048083E0,-3.009848044E-1,-1.317667708E0,2.669260377E0,2.991954379E0
7.098027083E0,-2.749317311E-1,-1.166447017E0,2.832071127E0,3.075193160E0
7.108005083E0,-1.056278677E-1,-9.939436305E-1,2.619078695E0,2.803329164E0
7.117983083E0,1.761771010E-1,-9.792577636E-1,2.089686701E0,2.314470705E0
7.127962083E0,5.694210099E-1,-1.036682684E0,1.337916324E0,1.785769124E0
7.137940083E0,9.347345786E-1,-1.041746957E0,7.123402628E-1,1.570475758E0
7.147918083E0,8.069736475E-1,-9.758412355E-1,5.818207616E-1,1.393552289E0
7.157897083E0,3.080287259E-1,-8.014182079E-1,1.037237877E0,1.346482548E0
7.167875083E0,-1.396113003E-1,-6.535655129E-1,1.739035025E0,1.863030331E0
7.177854083E0,-2.760904300E-1,-6.411238074E-1,2.225153531E0,2.332075020E0
7.187832083E0,-1.662538461E-1,-6.331160456E-1,2.316948970E0,2.407639673E0
7.197810083E0,-2.458414312E-2,-5.983110791E-1,2.110802897E0,2.194098766E0
7.207789083E0,2.911699972E-1,-6.627520734E-1,1.506868550E0,1.671727581E0
7.217767083E0,5.743508339E-1,-7.008677334E-1,4.754183936E-1,1.023287403E0
7.227745083E0,6.900402249E-1,-7.531166983E-1,-5.629159825E-1,1.166282417E0
7.237724083E0,4.233209447E-1,-7.603824484E-1,-9.142380412E-1,1.262225529E0
7.247702083E0,-2.224056447E-1,-6.576462847E-1,-1.868185401E-1,7.189325932E-1
7.257680083E0,-6.431900673E-1,-6.101785880E-1,8.377399421E-1,1.219762101E0
7.267659083E0,-5.462193678E-1,-6.308900106E-1,1.469595913E0,1.689997027E0
7.277637083E0,-2.607709442E-1,-6.671064949E-1,1.731703202E0,1.873987337E0
7.287615083E0,8.756165240E-2,-6.410472089E-1,1.683299950E0,1.803360000E0
7.297594083E0,6.151858512E-1,-5.282380468E-1,1.175873898E0,1.428344668E0
7.307572083E0,9.489923561E-1,-4.872823942E-1,2.798021328E-1,1.102868921E0
7.317551083E0,9.129113080E-1,-3.524941331E-1,-2.669043446E-1,1.014345651E0
7.327529083E0,4.482715255E-1,-1.029665440E-1,-7.501101513E-2,4.660215898E-1
7.337507083E0,-1.706349090E-1,7.821411073E-2,5.971463138E-1,6.259532246E-1
7.347486083E0,-4.280562392E-1,1.132804477E-1,1.112233973E0,1.197133666E0
7.357464083E0,-3.847858566E-1,1.752819836E-1,1.438538427E0,1.499392122E0
7.367442083E0,-1.610992331E-1,2.466373104E-1,1.769546381E0,1.793900031E0
7.377421083E0,1.887138785E-1,3.290684330E-1,1.929867094E0,1.966795862E0
7.387399083E0,5.600248267E-1,4.051067948E-1,1.832745427E0,1.958748356E0
7.397377083E0,7.109657286E-1,4.090413862E-1,1.676916545E0,1.866771604E0
7.407356083E0,4.607372046E-1,4.793307656E-1,1.698606938E0,1.824089439E0
7.417334083E0,1.009991021E-1,5.060040092E-1,1.944010193E0,2.011322079E0
7.427313083E0,-1.196699926E-1,5.208226079E-1,2.423224161E0,2.481449663E0
7.437291083E0,-5.299085232E-1,6.166549641E-1,3.263159148E0,3.362926406E0
7.447269083E0,-9.644192845E-1,6.375230920E-1,4.331411533E0,4.483042061E0
7.457245708E0,-1.060016436E0,5.064717865E-1,5.189027916E0,5.320353299E0
7.467223708E0,-9.289614033E-1,3.194737369E-1,5.773657680E0,5.856633483E0
7.477201708E0,-9.066567606E-1,2.156154925E-1,6.219260536E0,6.288697650E0
7.487180708E0,-9.848139341E-1,8.991088092E-2,6.454211016E0,6.529531552E0
7.497158708E0,-9.284029211E-1,-3.408985198E-2,6.625542621E0,6.690359417E0
7.507136708E0,-6.967806758E-1,2.765265226E-2,6.965232521E0,7.000052289E0
7.517115708E0,-5.976340081E-1,1.668847972E-1,7.960685903E0,7.984831682E0
7.527093708E0,-5.410551069E-1,2.637760842E-1,9.702818783E0,9.721471637E0
7.537072708E0,-6.134631152E-1,3.030331206E-1,1.213005238E1,1.214933483E1
7.547050708E0,-4.009450025E-1,-3.924551743E-1,1.430817763E1,1.431917334E1
7.557028708E0,4.112875210E-1,-1.596347761E0,1.498318839E1,1.507360004E1
7.567007708E0,1.099892108E0,-2.223528298E0,1.361606260E1,1.384019513E1
7.576985708E0,7.098439403E-1,-2.868663880E0,1.186584711E1,1.222830481E1
7.586963708E0,1.254941118E-1,-4.029133288E0,1.084990158E1,1.157454224E1
7.596942708E0,-2.157942711E-1,-4.967454695E0,1.011506094E1,1.127105279E1
7.606920708E0,-2.568925775E-1,-5.745719683E0,8.908307891E0,1.060364267E1
7.616898708E0,-1.888999661E-2,-6.441536592E0,7.168816198E0,9.637721524E0
7.626877708E0,2.190789079E-1,-6.903845528E0,5.045723770E0,8.553970248E0
7.636855708E0,5.129707840E-1,-6.846681393E0,2.817361579E0,7.421435939E0
7.646834708E0,1.014930749E0,-6.613737093E0,1.937708795E-1,6.693963692E0
7.656812708E0,1.663686196E0,-6.262313585E0,-2.742321337E0,7.035961164E0
7.666790708E0,1.960903969E0,-6.292999772E0,-5.143617854E0,8.360848948E0
7.676769708E0,2.035140657E0,-6.285725836E0,-6.929425342E0,9.574397232E0
7.686747708E0,2.067738153E0,-6.046004028E0,-8.149196042E0,1.035563141E1
7.696725708E0,1.942419166E0,-5.865166605E0,-8.778803759E0,1.073501593E1
7.706704708E0,1.828437491E0,-5.867479763E0,-8.885529478E0,1.080384823E1
7.716682708E0,1.489748780E0,-5.686483880E0,-8.800758299E0,1.058342085E1
7.726660708E0,8.742362157E-1,-5.402229677E0,-8.794137497E0,1.035785831E1
7.736639708E0,2.553994361E-1,-5.089004275E0,-9.204544208E0,1.052078074E1
7.746617708E0,-2.400070429E-1,-4.744624908E0,-9.989584365E0,1.106168453E1
7.756596708E0,-7.471627709E-1,-4.371130500E0,-1.041680884E1,1.132143721E1
7.766574708E0,-1.138229816E0,-4.110212535E0,-1.015279886E1,1.101220863E1
7.776552708E0,-1.346283982E0,-3.893687800E0,-9.896606619E0,1.071989309E1
7.786531708E0,-1.549751299E0,-3.630539122E0,-9.879000653E0,1.063847721E1
7.796509708E0,-1.407640131E0,-3.288502734E0,-9.930902878E0,1.055549776E1
7.806487708E0,-1.128526216E0,-3.131545340E0,-9.911653844E0,1.045566973E1
7.816466708E0,-7.523480818E-1,-2.996460625E0,-9.880108116E0,1.035187617E1
7.826444708E0,-3.409769455E-1,-2.906048053E0,-9.621765264E0,1.005682591E1
7.836422708E0,-1.538327155E-1,-2.830333042E0,-8.890759227E0,9.331669158E0
7.846401708E0,3.612683918E-2,-2.707216993E0,-7.714102972E0,8.175433545E0
7.856379708E0,3.755100165E-2,-2.650191438E0,-6.553386226E0,7.069073189E0
7.866358708E0,-1.056848780E-1,-2.601066640E0,-5.388397504E0,5.984274778E0
7.876336708E0,-2.687135462E-1,-2.529348786E0,-4.120776699E0,4.842583283E0
7.886314708E0,-3.329609611E-1,-2.499866540E0,-2.948727465E0,3.880101723E0
7.896293708E0,-3.122056478E-1,-2.501405527E0,-2.123398823E0,3.295955785E0
7.906271708E0,-2.705508144E-1,-2.495399852E0,-1.623498137E0,2.989308342E0
7.916249708E0,-2.126077944E-1,-2.427310780E0,-1.260982461E0,2.743559087E0
7.926228708E0,-1.957374443E-1,-2.402475316E0,-8.465610516E-1,2.554773259E0
7.936206708E0,-1.864157400E-1,-2.424490668E0,-2.227818400E-1,2.441830783E0
7.946184708E0,-1.998724125E-1,-2.442428171E0,5.856764156E-1,2.519607353E0
7.956163708E0,-1.823601113E-1,-2.476339098E0,1.382310432E0,2.841881889E0
7.966141708E0,9.330657832E-3,-2.482975688E0,1.850270702E0,3.096571814E0
7.976120708E0,3.476761736E-1,-2.186271009E0,1.985849214E0,2.973929513E0
7.986098708E0,4.852045861E-1,-2.065030746E0,1.808730912E0,2.787702098E0
7.996076708E0,6.558109899E-1,-2.084821233E0,1.692761915E0,2.764418660E0
8.006055708E0,6.380177665E-1,-2.040156106E0,1.921304139E0,2.874145648E0
8.016033708E0,3.658468348E-1,-1.856365255E0,2.459170211E0,3.102813883E0
8.026011708E0,1.059198996E-1,-1.668877793E0,3.083642610E0,3.507880252E0
8.035990708E0,5.740958953E-2,-1.512354847E0,3.342081356E0,3.668790105E0
8.045968708E0,2.005674820E-1,-1.378981612E0,2.983036587E0,3.292464864E0
8.055946708E0,4.675569583E-1,-1.192688736E0,2.077788202E0,2.440966969E0
8.065925708E0,7.575013060E-1,-1.060174457E0,1.040266588E0,1.667313013E0
8.075903708E0,9.818254222E-1,-1.000059233E0,5.315166537E-1,1.498869435E0
8.085882708E0,8.351050405E-1,-1.075550296E0,8.791733122E-1,1.620849956E0
8.095860708E0,4.636850783E-1,-1.054665211E0,1.694590924E0,2.049136637E0
8.105838708E0,1.487410150E-1,-8.783892006E-1,2.433488948E0,2.591439742E0
8.115817708E0,-2.072024820E-2,-8.247977149E-1,2.829929584E0,2.947748641E0
8.125795708E0,2.893907625E-2,-8.926265860E-1,2.759386436E0,2.900316051E0
8.135773708E0,3.913247979E-1,-7.575371933E-1,2.042286832E0,2.213127470E0
8.145752708E0,6.030396128E-1,-6.247545272E-1,1.170644075E0,1.457526173E0
8.155730708E0,4.681493178E-1,-7.293208694E-1,9.925935084E-1,1.317692903E0
8.165708708E0,5.758692462E-2,-7.177562463E-1,1.631482071E0,1.783318264E0
8.175687708E0,-4.176134044E-1,-4.341809052E-1,2.540689461E0,2.611133269E0
8.185665708E0,-6.945813918E-1,-4.810404915E-1,3.457025337E0,3.558773306E0
8.195644708E0,-5.622381074E-1,-5.326731598E-1,3.861563490E0,3.938467338E0
8.205622708E0,-1.904390264E-1,-2.419957906E-1,3.665617738E0,3.678529922E0
8.215600708E0,3.109850050E-1,-6.547361255E-2,3.084016247E0,3.100347510E0
8.225579708E0,7.073913988E-1,-4.834536374E-2,2.619504665E0,2.713769437E0
8.235557708E0,7.049749638E-1,-1.191370189E-2,2.655883994E0,2.747881262E0
8.245535708E0,4.888677936E-1,9.138788760E-2,3.047134642E0,3.087454128E0
8.255514708E0,8.858498823E-2,1.873155534E-1,3.470242383E0,3.476422962E0
8.265492708E0,-1.994192898E-1,2.982658857E-1,3.654256891E0,3.671828429E0
8.275470708E0,-7.753831878E-2,3.839539075E-1,3.455253338E0,3.477385285E0
8.285449708E0,2.237219992E-1,4.426763248E-1,2.930173080E0,2.971856009E0
8.295427708E0,4.508289149E-1,3.900829589E-1,2.365005773E0,2.438988260E0
8.305406708E0,6.252407963E-1,3.690815145E-1,1.984134226E0,2.112802840E0
8.315384708E0,7.523403342E-1,4.254656303E-1,1.808411362E0,2.004342444E0
8.325362708E0,6.255104260E-1,5.226960558E-1,1.983248080E0,2.144235856E0
8.335341708E0,3.429048822E-1,4.494205034E-1,2.332872400E0,2.400386673E0
8.345319708E0,1.776505079E-1,4.106359220E-1,2.496321081E0,2.536099466E0
8.355297708E0,6.152893469E-2,3.933573997E-1,2.479798603E0,2.511556682E0
8.365276708E0,-5.160167813E-3,3.629337519E-1,2.452166124E0,2.478884071E0
8.375254708E0,-5.662195131E-2,2.957200080E-1,2.577494467E0,2.595021021E0
8.385232708E0,-2.032648208E-1,1.284861320E-1,2.883457043E0,2.893466743E0
8.395211708E0,-3.366180290E-1,5.775294900E-2,3.317951066E0,3.335482931E0
8.405189708E0,-5.000149255E-1,1.281762296E-1,3.919202418E0,3.953048402E0
8.415168708E0,-7.499937735E-1,1.117812216E-1,4.631704941E0,4.693365143E0
8.425146708E0,-8.420513865E-1,9.251640022E-2,5.530880116E0,5.595377081E0
8.435124708E0,-8.718432426E-1,1.033992380E-1,6.755107564E0,6.811921920E0
8.445103708E0,-9.649430488E-1,1.149878347E-1,8.335380160E0,8.391835300E0
8.455084458E0,-4.778480214E-1,-2.218737674E-1,9.820902718E0,9.835023991E0
8.465062458E0,4.082551550E-1,-8.632285398E-1,1.057030059E1,1.061334492E1
8.475041458E0,8.946216559E-1,-1.538900036E0,1.025372648E1,1.040708740E1
8.485019458E0,6.632770072E-1,-2.082436153E0,9.209421955E0,9.465195691E0
8.494997458E0,-2.133372345E-1,-2.684743804E0,8.795461307E0,9.198559760E0
8.504976458E0,-9.092873499E-1,-3.349701447E0,9.225020573E0,9.856384116E0
8.514954458E0,-1.014211176E0,-4.180067466E0,9.594835328E0,1.051486820E1
8.524933458E0,-1.032142613E0,-5.021642012E0,9.627641716E0,1.090750622E1
8.534911458E0,-8.582303399E-1,-5.765191496E0,9.512955598E0,1.115662657E1
8.544889458E0,-5.131501108E-1,-6.440239679E0,9.386047629E0,1.139464349E1
8.554868458E0,-8.656143134E-2,-7.213639199E0,8.707781138E0,1.130794127E1
8.564846458E0,3.773505007E-1,-7.797878369E0,7.033476545E0,1.050804895E1
8.574824458E0,1.025963934E0,-8.508225608E0,4.417701526E0,9.641503605E0
8.584803458E0,1.544466586E0,-9.385697966E0,1.201116913E0,9.587459787E0
8.594781458E0,1.663886171E0,-9.833213446E0,-2.318727985E0,1.023899914E1
8.604759458E0,2.004189444E0,-9.395895510E0,-6.178205481E0,1.142233998E1
8.614738458E0,2.001723527E0,-8.924828614E0,-1.004448036E1,1.358495670E1
8.624716458E0,1.962269586E0,-7.961231448E0,-1.348918737E1,1.578574940E1
8.634695458E0,1.556701446E0,-6.732059010E0,-1.572324943E1,1.717453087E1
8.644673458E0,8.511911693E-1,-6.045928014E0,-1.723300870E1,1.828262456E1
8.654651458E0,3.688132369E-1,-5.113994105E0,-1.835329195E1,1.905603013E1
8.664630458E0,-6.233859133E-2,-4.781582235E0,-1.699732848E1,1.765719656E1
8.674608458E0,-3.967214125E-1,-4.804670550E0,-1.358750012E1,1.441743411E1
8.684586458E0,-8.348446932E-1,-4.432140348E0,-1.056836048E1,1.149047767E1
8.694565458E0,-1.313693064E0,-4.087373895E0,-8.166095080E0,9.225915872E0
8.704543458E0,-1.337178551E0,-3.758346393E0,-6.342963645E0,7.493090277E0
8.714521458E0,-1.244286321E0,-3.500483013E0,-5.388184081E0,6.544780933E0
8.724500458E0,-1.095767994E0,-3.178784410E0,-4.983971325E0,6.012100132E0
8.734478458E0,-8.884900463E-1,-2.911663719E0,-4.735393909E0,5.629489821E0
8.744457458E0,-6.226428784E-1,-2.646445127E0,-4.731230106E0,5.456729266E0
8.754435458E0,-5.460186987E-1,-2.269934140E0,-4.632312174E0,5.187393710E0
8.764413458E0,-6.719971792E-1,-1.974999413E0,-3.955115139E0,4.471592407E0
8.774392458E0,-9.078182369E-1,-1.583241227E0,-2.786249129E0,3.330761316E0
8.784370458E0,-1.214321972E0,-1.275336791E0,-1.668380780E0,2.425810423E0
8.794348458E0,-1.390413503E0,-9.662740213E-1,-1.140786511E0,2.041648613E0
8.804327458E0,-1.435714222E0,-7.263680255E-1,-1.275183009E0,2.053041047E0
8.814305458E0,-1.317193499E0,-6.152639115E-1,-1.883948910E0,2.379666340E0
8.824283458E0,-1.095685841E0,-7.044982696E-1,-2.669594253E0,2.970450934E0
8.834262458E0,-8.312414197E-1,-8.952455539E-1,-3.259936162E0,3.481323122E0
8.844240458E0,-7.987668610E-1,-1.122508700E0,-2.850383145E0,3.165870868E0
8.854219458E0,-7.716497406E-1,-1.255197226E0,-1.724402368E0,2.268154961E0
8.864197458E0,-7.332412083E-1,-1.551755140E0,-6.291107029E-1,1.827940634E0
8.874175458E0,-6.219760765E-1,-1.469898214E0,1.060024184E-1,1.599591045E0
8.884154458E0,-6.308848212E-1,-1.406024984E0,5.383636701E-1,1.632408452E0
8.894132458E0,-5.193580265E-1,-1.396428534E0,4.164553633E-1,1.546990782E0
8.904110458E0,-2.811211185E-1,-1.396339656E0,-2.740429178E-1,1.450480279E0
8.914089458E0,-1.565678237E-1,-1.518090965E0,-1.305421592E0,2.008292607E0
8.924067458E0,-1.397872650E-1,-1.815715411E0,-1.991755779E0,2.698787509E0
8.934045458E0,-2.053167550E-1,-2.097461159E0,-1.676323930E0,2.692872110E0
8.944024458E0,-3.132865422E-1,-2.299414047E0,-7.471943459E-1,2.437981298E0
8.954002458E0,-3.089935895E-1,-2.293492572E0,1.638790360E-1,2.320008955E0
8.963981458E0,-1.920096616E-1,-2.256705399E0,8.814727297E-1,2.430345889E0
8.973959458E0,-4.162632823E-2,-2.181579788E0,1.291871839E0,2.535735785E0
8.983937458E0,2.750768152E-1,-2.088070530E0,1.276033194E0,2.462512235E0
8.993916458E0,6.234026510E-1,-2.056919489E0,7.032655303E-1,2.261444462E0
9.003894458E0,7.539323118E-1,-2.097348307E0,-4.321047051E-1,2.270241910E0
9.013872458E0,6.631727075E-1,-2.205786676E0,-1.417369752E0,2.704483299E0
9.023851458E0,1.072497940E-1,-2.423021847E0,-1.183844750E0,2.698893436E0
9.033829458E0,-4.482832930E-1,-2.271723973E0,-2.602818247E-1,2.330114664E0
9.043808458E0,-6.377612199E-1,-2.056047669E0,5.826253384E-1,2.230139833E0
9.053786458E0,-7.443888518E-1,-2.380664032E0,1.476050654E0,2.898344619E0
9.063764458E0,-3.802521084E-1,-2.267523918E0,2.022635363E0,3.062239409E0
9.073743458E0,-4.454209713E-2,-2.352826023E0,2.620568274E0,3.522094884E0
9.083721458E0,2.752956472E-1,-2.238232875E0,3.105805897E0,3.838164192E0
9.093699458E0,4.757377978E-1,-1.871485569E0,3.578975451E0,4.066675542E0
9.103678458E0,4.784844542E-1,-1.511475425E0,4.029802210E0,4.330451614E0
9.113656458E0,3.058529404E-1,-1.320422916E0,4.414750729E0,4.618125886E0
9.123634458E0,-1.537308278E-1,-1.045317267E0,4.885982516E0,4.998914532E0
9.133613458E0,-5.411856095E-1,-7.178082865E-1,5.465729855E0,5.539163605E0
9.143591458E0,-4.030650202E-1,-3.798579329E-1,5.725068487E0,5.751796471E0
9.153570458E0,2.518282492E-2,-2.721440345E-1,5.410530385E0,5.417428873E0
9.163548458E0,5.900470631E-1,-2.329413772E-2,4.531984771E0,4.570293658E0
9.173526458E0,1.229025381E0,2.182958561E-1,3.580546598E0,3.791895358E0
9.183505458E0,1.687228256E0,3.551288885E-1,3.019060113E0,3.476719673E0
9.193483458E0,1.747899550E0,5.350442058E-1,2.870100541E0,3.402778608E0
9.203461458E0,1.393750509E0,6.182337123E-1,3.056648939E0,3.415824372E0
9.213440458E0,8.863395866E-1,6.788845414E-1,3.249833051E0,3.436262059E0
9.223418458E0,4.918915350E-1,7.340442502E-1,3.342039548E0,3.456878156E0
9.233396458E0,2.426772470E-1,7.209283608E-1,3.414182788E0,3.497895661E0
9.243375458E0,6.122522665E-2,6.835634834E-1,3.552065980E0,3.617759015E0
9.253353458E0,4.670291740E-2,7.084989345E-1,3.740072089E0,3.806874195E0
9.263332458E0,2.471956464E-1,7.069997084E-1,3.805636626E0,3.878636926E0
9.273310458E0,4.653971431E-1,6.905754644E-1,3.683905490E0,3.776856978E0
9.283288458E0,5.660858677E-1,7.512777489E-1,3.444434527E0,3.570574278E0
9.293267458E0,6.783539066E-1,7.315141600E-1,3.139688465E0,3.294377125E0
9.303245458E0,6.488893484E-1,6.360250354E-1,2.919203703E0,3.057341246E0
9.313223458E0,5.962249022E-1,5.994331598E-1,2.946074291E0,3.064989066E0
9.323202458E0,6.987572540E-1,5.630570465E-1,3.113311383E0,3.240062145E0
9.333180458E0,7.995263413E-1,4.595408642E-1,3.335240698E0,3.460383027E0
9.343158458E0,9.561353148E-1,3.656994849E-1,3.820090943E0,3.954873660E0
9.353137458E0,1.035683687E0,3.720922458E-1,4.690356607E0,4.817731670E0
9.363115458E0,8.232850403E-1,3.100141114E-1,5.901383674E0,5.966593355E0
9.373094458E0,4.374628743E-1,1.420370543E-1,7.231821701E0,7.246433151E0
9.383072458E0,-5.528319474E-2,-1.125401902E-1,8.677913561E0,8.678819349E0
9.393050458E0,-5.184460071E-1,-3.870418221E-1,9.849952855E0,9.871178191E0
9.403029458E0,-1.270369873E0,-1.423437408E0,1.130181182E1,1.146171733E1
9.413007458E0,-1.819246983E0,-2.718700925E0,1.232743333E1,1.275408197E1
9.422985458E0,-1.699590001E0,-3.684431155E0,1.221718291E1,1.287335222E1
9.432964458E0,-1.127532628E0,-4.027852163E0,1.040198732E1,1.121143447E1
9.442942458E0,-3.020532735E-1,-4.694221324E0,7.973250400E0,9.257411731E0
9.452920500E0,5.456751382E-1,-5.352468703E0,5.376698395E0,7.606284783E0
9.462899500E0,9.231889589E-1,-5.787840101E0,3.138512882E0,6.648430943E0
9.472877500E0,1.067332619E0,-5.963581676E0,1.513990313E0,6.244651471E0
9.482856500E0,8.994073096E-1,-5.946290874E0,5.678710592E-1,6.040677629E0
9.492834500E0,4.491456112E-1,-5.967975858E0,1.151483408E-1,5.985960806E0
9.502812500E0,3.239562124E-1,-5.952281932E0,-2.104740357E-1,5.964805709E0
9.512791500E0,3.235145283E-1,-5.972554228E0,-7.214353144E-1,6.024660536E0
9.522769500E0,2.588274394E-1,-5.946431792E0,-1.677694809E0,6.183987595E0
9.532747500E0,1.218882618E-1,-5.689328551E0,-3.209030887E0,6.533084673E0
9.542726500E0,-2.937856029E-1,-5.238167916E0,-5.005215429E0,7.250992662E0
9.552704500E0,-6.193570355E-1,-4.824349355E0,-6.595511321E0,8.195042369E0
9.562682500E0,-8.404303191E-1,-4.372958339E0,-7.591337171E0,8.800993569E0
9.572661500E0,-9.525530181E-1,-3.792650253E0,-7.775550776E0,8.703490281E0
9.582639500E0,-1.034586896E0,-3.758890768E0,-7.041832216E0,8.049039123E0
9.592618500E0,-1.150756306E0,-3.633094355E0,-6.149564064E0,7.234690930E0
9.602596500E0,-1.268902515E0,-3.662033395E0,-5.600462567E0,6.810710913E0
9.612574500E0,-1.352494602E0,-3.521415460E0,-5.557396070E0,6.716714939E0
9.622553500E0,-1.384222910E0,-3.248372124E0,-6.017148018E0,6.976680070E0
9.632531500E0,-1.202736372E0,-3.166973035E0,-6.835561743E0,7.628970922E0
9.642509500E0,-1.022261842E0,-3.009034477E0,-7.647825952E0,8.281820425E0
9.652488500E0,-7.060693433E-1,-2.910460947E0,-8.281492220E0,8.806385764E0
9.662466500E0,-2.438794163E-1,-2.820316762E0,-8.913658678E0,9.352378031E0
9.672445500E0,1.762339103E-1,-2.681732488E0,-9.442404263E0,9.817420527E0
9.682423500E0,5.511325273E-1,-2.682140039E0,-9.739831073E0,1.011740736E1
9.692401500E0,7.120169118E-1,-2.611016262E0,-9.681054862E0,1.005222350E1
9.702380500E0,6.354648721E-1,-2.474113648E0,-9.134651855E0,9.485089270E0
9.712358500E0,3.389941182E-1,-2.263274161E0,-8.022559969E0,8.342589251E0
9.722336500E0,-6.602741696E-2,-2.074758759E0,-6.789952877E0,7.100172082E0
9.732315500E0,-4.650687123E-1,-1.821829845E0,-5.879778796E0,6.173099026E0
9.742293500E0,-7.475074643E-1,-1.522249505E0,-5.483967320E0,5.740201088E0
9.752271500E0,-8.509200047E-1,-1.346783334E0,-5.250258204E0,5.486629330E0
9.762250500E0,-8.012784594E-1,-1.287904796E0,-4.905744351E0,5.134887883E0
9.772228500E0,-6.693595733E-1,-1.347807766E0,-4.430521254E0,4.679118143E0
9.782207500E0,-4.941593410E-1,-1.480533130E0,-3.741062023E0,4.053605415E0
9.792185500E0,-3.495240765E-1,-1.610873998E0,-2.618276165E0,3.093937975E0
9.802163500E0,-2.970197710E-1,-1.682183132E0,-1.138730046E0,2.052965404E0
9.812142500E0,-1.032386954E-1,-1.875522487E0,2.336173153E-1,1.892833822E0
9.822120500E0,8.681032173E-2,-2.016927457E0,1.234929022E0,2.366554899E0
9.832098500E0,2.787404978E-1,-1.926352333E0,1.720771540E0,2.597996202E0
9.842077500E0,4.211090161E-1,-2.078449522E0,1.786529034E0,2.772899423E0
9.852055500E0,5.337442236E-1,-2.264202114E0,1.506669014E0,2.771560143E0
9.862033500E0,6.124872150E-1,-2.463995041E0,1.147300602E0,2.786164177E0
9.872012500E0,5.103199122E-1,-2.656905211E0,1.026133430E0,2.893530979E0
9.881990500E0,4.590491134E-1,-2.856853673E0,1.088671740E0,3.091527965E0
9.891969500E0,4.184480213E-1,-3.059266153E0,1.204870533E0,3.314501643E0
9.901947500E0,3.075712909E-1,-3.204636120E0,1.347171589E0,3.489865908E0
9.911925500E0,3.495467710E-1,-3.289903727E0,1.498467856E0,3.631949255E0
9.921904500E0,4.455177062E-1,-3.317145320E0,1.664590176E0,3.738020807E0
9.931882500E0,4.929441069E-1,-3.294711893E0,2.042087442E0,3.907459720E0
9.941860500E0,4.902668130E-1,-3.189618132E0,2.699344887E0,4.207194812E0
9.951839500E0,4.472960638E-1,-2.848446547E0,3.435001799E0,4.484747357E0
9.961817500E0,1.108390159E-1,-2.979603687E0,4.380594803E0,5.299050316E0
9.971796500E0,-1.273136191E-2,-2.677617803E0,4.674610932E0,5.387187258E0
9.981774500E0,1.267322597E-1,-2.027880462E0,4.155030273E0,4.625217487E0
9.991752500E0,2.939979299E-1,-1.675458834E0,3.218880522E0,3.640712692E0
1.000173150E1,5.446309351E-1,-1.537461036E0,2.237779862E0,2.769127662E0
1.001170950E1,5.577161998E-1,-1.474205273E0,1.925172949E0,2.488095543E0
1.002168750E1,2.552040660E-1,-1.273211328E0,2.454337780E0,2.776683298E0
1.003166650E1,-1.632557228E-2,-9.183432251E-1,3.326745864E0,3.451211214E0
1.004164450E1,-1.100700340E-1,-5.966159713E-1,3.931298553E0,3.977835384E0
1.005162250E1,8.206508696E-2,-3.773085469E-1,4.029351389E0,4.047810400E0
1.006160150E1,4.716352451E-1,-8.365026712E-2,3.603750981E0,3.635444719E0
1.007157950E1,9.098768954E-1,2.337950706E-1,2.683726389E0,2.843399977E0
1.008155850E1,1.225606222E0,3.926036936E-1,1.674730125E0,2.112100675E0
1.009153650E1,1.282813333E0,5.191397792E-1,9.945473555E-1,1.704183265E0
1.010151450E1,1.167135088E0,6.924196762E-1,8.463458741E-1,1.599359453E0
1.011149350E1,8.836505252E-1,7.654993469E-1,1.052193885E0,1.572876178E0
1.012147150E1,6.492806733E-1,9.185262430E-1,1.459920233E0,1.842992929E0
1.013144950E1,4.480699427E-1,1.056634553E0,1.887363684E0,2.208932984E0
1.014142850E1,3.225982697E-1,1.171141162E0,2.198709498E0,2.511964316E0
1.015140650E1,2.983669695E-1,1.241502462E0,2.399074868E0,2.717703338E0
1.016138450E1,3.070835600E-1,1.190029423E0,2.627250472E0,2.900502608E0
1.017136350E1,3.361097963E-1,1.187746085E0,2.874114946E0,3.127978146E0
1.018134150E1,4.175836567E-1,1.194448748E0,3.104530619E0,3.352490758E0
1.019132050E1,4.020130330E-1,1.158110642E0,3.461998394E0,3.672637692E0
1.020129850E1,3.252356563E-1,1.075149761E0,3.921468799E0,4.079171825E0
1.021127650E1,2.501921251E-1,9.260165262E-1,4.400081819E0,4.503423444E0
1.022125550E1,2.223832060E-1,7.534809798E-1,4.644148693E0,4.710127913E0
1.023123350E1,2.746024232E-1,5.987899661E-1,4.538333386E0,4.585894224E0
1.024121150E1,3.768570688E-1,4.488082999E-1,4.243354512E0,4.283632530E0
1.025119050E1,4.482193391E-1,2.271964878E-1,4.089231555E0,4.119991934E0
1.026116850E1,4.069874787E-1,1.074718237E-3,4.239363495E0,4.258854636E0
1.027114650E1,4.923411859E-1,-1.797393161E-1,4.406502646E0,4.437563705E0
1.028112550E1,6.380854480E-1,-4.504806036E-1,4.548123379E0,4.614706067E0
1.029110350E1,7.658143656E-1,-8.272196317E-1,4.767603881E0,4.899062229E0
1.030108250E1,9.231866200E-1,-1.133309092E0,5.303190708E0,5.500953983E0
1.031106050E1,9.628027486E-1,-1.416699076E0,6.413590994E0,6.638386464E0
1.032103850E1,7.552117556E-1,-1.868552606E0,8.016630308E0,8.266087051E0
1.033101750E1,5.926973501E-1,-2.316934059E0,9.481319822E0,9.778287128E0
1.034099550E1,5.902498153E-1,-2.898390539E0,1.026997824E1,1.068744663E1
1.035097350E1,8.659645982E-1,-3.615797122E0,9.722823277E0,1.040947530E1
1.036095250E1,1.005160929E0,-4.187467702E0,8.320521215E0,9.368901085E0
1.037093050E1,7.016095258E-1,-4.864913244E0,7.556909934E0,9.014794759E0
1.038090950E1,3.306517860E-1,-5.641307123E0,7.780926121E0,9.616469621E0
1.039088750E1,3.640723510E-1,-6.262628165E0,7.873790431E0,1.006725563E1
1.040086550E1,5.386918085E-1,-6.822350544E0,7.043058962E0,9.820353117E0
1.041084450E1,7.364664593E-1,-7.258625922E0,5.312959067E0,9.025384599E0
1.042082250E1,8.801712857E-1,-7.444636377E0,3.126797401E0,8.122448785E0
1.043080050E1,8.128945380E-1,-7.251154350E0,1.031569586E0,7.369136500E0
1.044077950E1,6.410562721E-1,-7.079040973E0,-6.377423626E-1,7.136560065E0
1.045075750E1,2.451298251E-1,-7.276030744E0,-2.284984581E0,7.630325455E0
1.046073525E1,-2.863089144E-2,-7.035557569E0,-3.941706889E0,8.064548545E0
1.047071425E1,3.399914704E-2,-6.672061315E0,-5.659709480E0,8.749278229E0
1.048069225E1,-4.152327105E-2,-6.374561999E0,-7.501473067E0,9.844229936E0
1.049067125E1,-3.765118638E-1,-5.464502524E0,-9.272788816E0,1.076973358E1
1.050064925E1,-5.034943112E-1,-4.686358573E0,-1.090312995E1,1.187828716E1
1.051062725E1,-5.483871865E-1,-4.325429832E0,-1.225662706E1,1.300903450E1
1.052060625E1,-6.526682577E-1,-3.732145019E0,-1.340958338E1,1.393455448E1
1.053058425E1,-8.367747860E-1,-3.135700371E0,-1.388762132E1,1.426179634E1
1.054056225E1,-1.027388023E0,-2.696324800E0,-1.356715415E1,1.387059354E1
1.055054125E1,-1.217458273E0,-2.330997782E0,-1.284221869E1,1.310871222E1
1.056051925E1,-1.362832918E0,-2.042052358E0,-1.196139880E1,1.221074742E1
1.057049825E1,-1.397201243E0,-1.855623243E0,-1.111195390E1,1.135213762E1
1.058047625E1,-1.325569636E0,-1.735296900E0,-1.036799745E1,1.059545947E1
1.059045425E1,-1.256049165E0,-1.648432419E0,-9.738202039E0,9.956282835E0
1.060043325E1,-1.198961337E0,-1.640985990E0,-9.083595137E0,9.308170815E0
1.061041125E1,-1.196738372E0,-1.685885589E0,-8.341927872E0,8.594309371E0
1.062038925E1,-1.355202009E0,-1.691886002E0,-7.414201035E0,7.724598871E0
1.063036825E1,-1.553953547E0,-1.606199149E0,-6.423031908E0,6.800734242E0
1.064034625E1,-1.679589453E0,-1.456315717E0,-5.563853735E0,5.991522726E0
1.065032425E1,-1.783103151E0,-1.297191929E0,-4.796800783E0,5.279342904E0
1.066030325E1,-1.791957443E0,-1.185503093E0,-4.139719924E0,4.664097995E0
1.067028125E1,-1.749831617E0,-1.107049246E0,-3.385606860E0,3.968602088E0
1.068026025E1,-1.614729799E0,-1.071230958E0,-2.443918626E0,3.118914288E0
1.069023825E1,-1.319618340E0,-1.195827522E0,-1.472473912E0,2.310752139E0
1.070021625E1,-9.068240641E-1,-1.329511244E0,-6.598126781E-1,1.739334011E0
1.071019525E1,-5.096421468E-1,-1.451460189E0,-5.746643543E-3,1.538344832E0
1.072017325E1,-1.744270476E-1,-1.599369017E0,4.042586562E-1,1.658864403E0
1.073015125E1,1.327882940E-1,-1.698727244E0,4.929170635E-1,1.773774003E0
1.074013025E1,3.761526985E-1,-1.845939669E0,3.116963553E-1,1.909486510E0
1.075010825E1,4.876880448E-1,-2.070390304E0,2.134458831E-1,2.137735902E0
1.076008725E1,3.255244722E-1,-2.324115610E0,6.043274255E-1,2.423363610E0
1.077006525E1,1.160924834E-1,-2.401340956E0,1.366335254E0,2.765282604E0
1.078004325E1,1.102952980E-2,-2.450532997E0,2.128552412E0,3.245915740E0
1.079002225E1,1.090164023E-1,-2.487800810E0,2.526326945E0,3.547303945E0
1.080000025E1,4.755355937E-1,-2.479960864E0,2.342290510E0,3.444221947E0
1.080997825E1,9.282023616E-1,-2.416040272E0,1.668939189E0,3.079637679E0
1.081995725E1,1.357496018E0,-2.413003228E0,7.645281243E-1,2.872261003E0
1.082993525E1,1.590933970E0,-2.671009279E0,-2.945534428E-2,3.109055980E0
1.083991325E1,1.346520209E0,-3.040784274E0,7.086533010E-2,3.326335456E0
1.084989225E1,5.137211645E-1,-3.074404594E0,1.080166088E0,3.298883420E0
1.085987025E1,-3.422082961E-1,-2.831013658E0,2.493735734E0,3.788200465E0
1.086984925E1,-8.065622959E-1,-2.542763468E0,3.484462227E0,4.388355706E0
1.087982725E1,-8.129493557E-1,-2.364770715E0,3.899122202E0,4.632081729E0
1.088980525E1,-4.948429902E-1,-2.352775737E0,3.958247493E0,4.631214362E0
1.089978425E1,2.005948543E-1,-1.884737699E0,3.200405367E0,3.719552259E0
1.090976225E1,8.986943878E-1,-1.558015169E0,1.981504733E0,2.676083682E0
1.091974025E1,1.173994822E0,-1.649205421E0,1.417063358E0,2.471074852E0
1.092971925E1,8.086791341E-1,-1.635622339E0,2.207825600E0,2.864213026E0
1.093969725E1,1.129419305E-1,-1.253982759E0,3.585162098E0,3.799817878E0
1.094967625E1,-4.234161812E-1,-9.096209335E-1,4.644510343E0,4.751648960E0
1.095965425E1,-6.904177357E-1,-6.663182902E-1,5.107254020E0,5.196604693E0
1.096963225E1,-5.854215501E-1,-5.380894357E-1,4.896696661E0,4.960836303E0
1.097961125E1,-5.740094662E-2,-2.388412178E-1,3.973027500E0,3.980613962E0
1.098958925E1,4.844603817E-1,-4.324542224E-2,2.904609638E0,2.945051642E0
1.099956725E1,8.341742369E-1,2.445188642E-2,2.024477382E0,2.189738163E0
1.100954625E1,9.336657076E-1,1.089511693E-2,1.386258472E0,1.671395497E0
1.101952425E1,7.157442194E-1,2.997107327E-2,1.128068817E0,1.336311083E0
1.102950225E1,3.633482464E-1,2.004238415E-1,1.269091964E0,1.335210125E0
1.103948125E1,1.108078795E-1,3.833341026E-1,1.727662191E0,1.773144119E0
1.104945925E1,1.112071712E-1,4.176332849E-1,2.160906080E0,2.203701359E0
1.105943825E1,2.444488072E-1,4.260743254E-1,2.371326613E0,2.421669766E0
1.106941625E1,2.656371067E-1,4.874233121E-1,2.526440088E0,2.586705255E0
1.107939425E1,2.499314124E-1,4.788337523E-1,2.728476300E0,2.781425964E0
1.108937325E1,2.865375040E-1,4.627381217E-1,2.957952909E0,3.007609636E0
1.109935125E1,3.796655595E-1,4.568055367E-1,3.155829996E0,3.211242781E0
1.110932925E1,2.744888411E-1,3.969867665E-1,3.435779186E0,3.469513112E0
1.111930825E1,1.566846219E-1,3.915003240E-1,3.808118769E0,3.831395455E0
1.112928625E1,9.685284153E-2,3.192410177E-1,4.134094610E0,4.147533429E0
1.113926525E1,1.954942367E-1,1.686167425E-1,4.289752461E0,4.297513907E0
1.114924325E1,4.090927687E-1,1.864092350E-2,4.546849270E0,4.565253845E0
1.115922125E1,7.492645526E-1,-1.538741577E-1,5.087875178E0,5.145050870E0
1.116920025E1,1.052424850E0,-2.501918328E-1,6.059966009E0,6.155760071E0
1.117917825E1,1.096505109E0,-2.936267048E-1,7.324059774E0,7.411504008E0
1.118915625E1,1.015540614E0,-2.336886513E-1,8.740875210E0,8.802774140E0
1.119913525E1,3.031397775E-1,-6.272507036E-1,1.059576053E1,1.061863826E1
1.120911325E1,-5.947001311E-1,-1.646596978E0,1.255708039E1,1.267853373E1
1.121909225E1,-9.614138156E-1,-3.314136928E0,1.402763407E1,1.444584154E1
1.122907025E1,-7.332830890E-1,-5.094605323E0,1.434450404E1,1.523999684E1
1.123904825E1,4.448156018E-2,-5.584896694E0,1.237679435E1,1.357858933E1
1.124902725E1,6.440990169E-1,-6.171430312E0,9.672208609E0,1.149143311E1
1.125900525E1,1.185091230E0,-6.951303869E0,7.013704770E0,9.945708687E0
1.126898325E1,1.608597239E0,-7.230746983E0,4.735053016E0,8.791587688E0
1.127896225E1,1.433199773E0,-7.166760317E0,2.978207957E0,7.892163054E0
1.128894025E1,1.029374103E0,-6.947641758E0,1.583657987E0,7.199813168E0
1.129891825E1,7.600073496E-1,-6.716060443E0,5.976237389E-1,6.785295364E0
1.130889725E1,6.128412639E-1,-6.595986700E0,-8.438847810E-2,6.624932934E0
1.131887525E1,7.942158269E-1,-6.665820581E0,-8.102960354E-1,6.761695236E0
1.132885425E1,9.828934892E-1,-6.802415632E0,-1.783337624E0,7.100650049E0
1.133883225E1,9.017369134E-1,-6.707023571E0,-2.578676482E0,7.242020923E0
1.134881025E1,7.708958884E-1,-6.196557552E0,-3.031414695E0,6.941259325E0
1.135878925E1,7.019884984E-1,-5.854249268E0,-3.493651126E0,6.853511548E0
1.136876725E1,4.488227718E-1,-5.787772858E0,-4.212731767E0,7.172647034E0
1.137874525E1,4.067542478E-2,-5.786004660E0,-5.121189689E0,7.726971480E0
1.138872425E1,-2.854636994E-1,-5.729693635E0,-6.094894937E0,8.370102924E0
1.139870225E1,-3.493238093E-1,-5.459604312E0,-7.270657738E0,9.098998313E0
1.140868025E1,-4.247843566E-1,-5.156422087E0,-8.133712031E0,9.639834121E0
1.141865925E1,-2.934532070E-1,-4.833668062E0,-9.280990121E0,1.046839240E1
1.142863725E1,-1.516151042E-1,-4.283329879E0,-1.055472945E1,1.139176087E1
1.143861625E1,-1.244882445E-1,-3.882964591E0,-1.150371852E1,1.214201182E1
1.144859425E1,-4.438933862E-2,-3.685242164E0,-1.209909605E1,1.264796843E1
1.145856896E1,6.097893097E-2,-3.658871806E0,-1.241363415E1,1.294176859E1
1.146854796E1,2.050758680E-1,-3.430262631E0,-1.244769769E1,1.291332396E1
1.147852596E1,2.935070562E-1,-3.200109791E0,-1.207330749E1,1.249366251E1
1.148850396E1,3.213128689E-1,-3.114337569E0,-1.127969882E1,1.170614992E1
1.149848296E1,2.823534558E-1,-2.957449172E0,-9.935401726E0,1.037007409E1
1.150846096E1,1.142378562E-1,-2.704437227E0,-8.339081447E0,8.767400435E0
1.151843996E1,-1.944619839E-1,-2.459741777E0,-6.727794635E0,7.165986724E0
1.152841796E1,-4.788592973E-1,-2.299109407E0,-5.213892031E0,5.718380925E0
1.153839596E1,-6.732393470E-1,-2.172030700E0,-4.057016321E0,4.650844010E0
1.154837496E1,-7.618881065E-1,-2.066365081E0,-3.451659347E0,4.094421862E0
1.155835296E1,-6.158647860E-1,-1.976173534E0,-3.329534985E0,3.920504367E0
1.156833096E1,-3.952471833E-1,-1.905418131E0,-3.377511975E0,3.898002787E0
1.157830996E1,-1.607360480E-1,-1.873741425E0,-3.266520127E0,3.769203728E0
1.158828796E1,2.820360616E-2,-1.910229220E0,-2.815917317E0,3.402816694E0
1.159826696E1,6.352977879E-2,-1.875113767E0,-2.061072766E0,2.787132688E0
1.160824496E1,6.727850184E-2,-1.956526304E0,-1.011500480E0,2.203555036E0
1.161822296E1,5.760859586E-2,-2.229463221E0,-1.716648960E-1,2.236804382E0
1.162820196E1,7.434252307E-2,-2.379053709E0,4.280948308E-1,2.418406199E0
1.163817996E1,-5.223573558E-3,-2.448763044E0,7.377651259E-1,2.557491958E0
1.164815796E1,1.550515676E-1,-2.563921033E0,8.455898291E-1,2.704210460E0
1.165813696E1,3.856942216E-1,-2.781586559E0,7.355633569E-1,2.902935975E0
1.166811496E1,3.472689150E-1,-3.052462918E0,4.607734573E-1,3.106515370E0
1.167809296E1,3.480372392E-2,-3.144250755E0,3.010903832E-1,3.158825656E0
1.168807196E1,-2.840300352E-1,-3.173240665E0,5.033002567E-1,3.225436487E0
1.169804996E1,-4.232913797E-1,-3.215116085E0,1.171379582E0,3.447938102E0
1.170802896E1,-4.780080523E-1,-3.254902879E0,2.018736001E0,3.859815992E0
1.171800696E1,-5.603075761E-1,-3.412208768E0,2.819264263E0,4.461542809E0
1.172798496E1,-3.698591211E-1,-3.339557698E0,3.149736028E0,4.605461804E0
1.173796396E1,9.212372314E-2,-3.101694134E0,2.849318951E0,4.212791446E0
1.174794196E1,6.947125156E-1,-2.689578867E0,1.747580731E0,3.281843746E0
1.175791996E1,9.107498847E-1,-2.554340955E0,9.144693717E-1,2.861883523E0
1.176789896E1,1.494621411E-1,-2.500384603E0,1.321745557E0,2.832185271E0
1.177787696E1,-8.414810637E-1,-1.883525571E0,2.488800099E0,3.232628171E0
1.178785596E1,-1.588785703E0,-1.855816786E0,4.146397444E0,4.812578074E0
1.179783396E1,-1.663094750E0,-2.043679054E0,5.522112801E0,6.118515998E0
1.180781196E1,-1.057225633E0,-1.873327442E0,6.056957617E0,6.427582541E0
1.181779096E1,1.154639990E-1,-1.062826754E0,5.251389640E0,5.359106810E0
1.182776896E1,1.145520783E0,-4.635397750E-1,3.653796422E0,3.857112298E0
1.183774696E1,1.599434798E0,-5.589224803E-1,2.119302848E0,2.713306207E0
1.184772596E1,1.597461217E0,-5.947852081E-1,1.295543599E0,2.141047640E0
1.185770396E1,7.950098057E-1,-4.499555236E-1,1.582276728E0,1.827046855E0
1.186768296E1,-1.368834007E-1,-2.402831411E-1,2.479980744E0,2.495351187E0
1.187766096E1,-5.979427046E-1,-5.703198731E-2,3.099312856E0,3.156980884E0
1.188763896E1,-5.937976865E-1,5.141866028E-2,3.266876515E0,3.320801369E0
1.189761796E1,-2.431068529E-1,1.154696453E-1,3.117110026E0,3.128707256E0
1.190759596E1,2.665302689E-1,2.383693475E-1,2.796282367E0,2.819051862E0
1.191757396E1,7.368099102E-1,2.912591672E-1,2.542170560E0,2.662771471E0
1.192755296E1,8.864555077E-1,3.412610471E-1,2.757352189E0,2.916376787E0
1.193753096E1,7.454990188E-1,4.757347280E-1,3.267622327E0,3.385180644E0
1.194750896E1,5.755599650E-1,6.088290507E-1,3.633577335E0,3.728917583E0
1.195748796E1,4.850806982E-1,5.925989342E-1,3.890685840E0,3.965338962E0
1.196746596E1,5.916930908E-1,4.791214353E-1,4.036498441E0,4.107673031E0
1.197744496E1,6.390169825E-1,4.893739432E-1,4.125799457E0,4.203575945E0
1.198742296E1,5.754963400E-1,5.611333126E-1,4.106027098E0,4.183960463E0
1.199740096E1,5.020341884E-1,6.200364089E-1,3.991167317E0,4.070122852E0
1.200737996E1,3.147921637E-1,5.612309611E-1,3.983608621E0,4.035246206E0
1.201735796E1,1.065444370E-1,4.789530355E-1,4.161464842E0,4.190290844E0
1.202733596E1,-8.666313635E-2,4.690408355E-1,4.422780710E0,4.448426577E0
1.203731496E1,-2.135916432E-1,3.762817758E-1,4.631235410E0,4.651403098E0
1.204729296E1,-2.480313597E-1,2.858083928E-1,5.084245226E0,5.098309084E0
1.205727196E1,-6.156960481E-2,2.956358081E-1,5.895251114E0,5.902980352E0
1.206724996E1,3.957033026E-1,5.931298614E-2,6.679928159E0,6.691901026E0
1.207722796E1,8.277693430E-1,-2.786630952E-1,7.523294291E0,7.573824147E0
1.208720696E1,1.194866751E0,-6.478674012E-1,8.084276161E0,8.197741138E0
1.209718496E1,1.448821779E0,-1.153207167E0,8.247122287E0,8.452455106E0
1.210716296E1,1.360436290E0,-1.679215086E0,8.226040151E0,8.505191753E0
1.211714196E1,1.219859066E0,-2.183272557E0,7.695193661E0,8.091399179E0
1.212711996E1,1.094059072E0,-2.632771997E0,6.434081392E0,7.037460977E0
1.213709796E1,7.798011978E-1,-3.020425438E0,4.836523842E0,5.755260430E0
1.214707696E1,9.477401018E-2,-3.224992617E0,4.003500849E0,5.141748588E0
1.215705496E1,-8.688721262E-1,-3.377838834E0,4.575588920E0,5.753324945E0
1.216703396E1,-9.027735516E-1,-3.702566294E0,5.493003023E0,6.685587443E0
1.217701196E1,-2.738950015E-1,-4.108084733E0,5.576808826E0,6.931967637E0
1.218698996E1,3.573215578E-1,-4.655618007E0,4.633911096E0,6.578418485E0
1.219696896E1,8.096304030E-1,-5.220135103E0,3.298754950E0,6.227928717E0
1.220694696E1,9.404081319E-1,-5.592687525E0,2.013494557E0,6.018029705E0
1.221692496E1,8.841895654E-1,-5.792472265E0,9.741095826E-1,5.939984479E0
1.222690396E1,8.391406426E-1,-5.852308577E0,1.457716709E-1,5.913959932E0
1.223688196E1,1.043364078E0,-6.073232757E0,-8.592436624E-1,6.221821629E0
1.224686096E1,1.330615929E0,-6.123824621E0,-2.293281487E0,6.673148186E0
1.225683896E1,1.365111285E0,-6.008222244E0,-4.072334856E0,7.385538202E0
1.226681696E1,1.200064268E0,-6.097114540E0,-6.075793253E0,8.690812598E0
1.227679596E1,1.075501764E0,-5.925430933E0,-7.980417332E0,9.997724570E0
1.228677396E1,1.033263671E0,-5.430135514E0,-9.371191608E0,1.087994658E1
1.229675196E1,8.062636493E-1,-5.142194642E0,-1.019922342E1,1.145060632E1
1.230673096E1,3.939423405E-1,-4.774455063E0,-1.070275756E1,1.172602367E1
1.231670896E1,-1.740940852E-1,-4.411700821E0,-1.094268519E1,1.179982085E1
1.232668796E1,-7.119366588E-1,-4.096978531E0,-1.090548287E1,1.167140281E1
1.233666596E1,-9.698724709E-1,-3.816105189E0,-1.061792148E1,1.132446767E1
1.234664396E1,-1.007563258E0,-3.586863930E0,-9.988403227E0,1.066062735E1
1.235662296E1,-9.103322473E-1,-3.354931782E0,-9.217498130E0,9.851220423E0
1.236660096E1,-6.278231460E-1,-3.164904290E0,-8.691939277E0,9.271493378E0
1.237657896E1,-3.211755690E-1,-3.077246341E0,-8.267333772E0,8.827310264E0
1.238655796E1,-6.883970842E-2,-2.995398186E0,-7.712508436E0,8.274051944E0
1.239653596E1,1.531951863E-1,-2.826653974E0,-7.276992611E0,7.808204846E0
1.240651396E1,2.479989076E-1,-2.586528708E0,-7.111226386E0,7.571074886E0
1.241649296E1,1.956208289E-1,-2.343223726E0,-7.058001521E0,7.439378362E0
1.242647096E1,1.622353837E-2,-2.219124759E0,-6.770507961E0,7.124924979E0
1.243644996E1,-2.508490598E-1,-2.093627724E0,-6.034472734E0,6.392265911E0
1.244642796E1,-7.196863391E-1,-1.960590119E0,-4.727121268E0,5.167933584E0
1.245640971E1,-1.070313383E0,-1.846182328E0,-3.142273811E0,3.798400273E0
1.246638871E1,-1.150964613E0,-1.785249664E0,-1.868219900E0,2.828795061E0
1.247636671E1,-9.531929959E-1,-1.780712809E0,-1.224536181E0,2.361991502E0
1.248634471E1,-6.145167835E-1,-1.889609014E0,-1.170932416E0,2.306368537E0
1.249632371E1,-2.952017985E-1,-2.127534558E0,-1.313022388E0,2.517454109E0
1.250630171E1,-1.524098687E-1,-2.406095327E0,-1.166240610E0,2.678178607E0
1.251628071E1,-1.190730650E-1,-2.593935376E0,-5.785179618E-1,2.660331213E0
1.252625871E1,-2.379057363E-1,-2.804853215E0,3.559106612E-1,2.837335563E0
1.253623671E1,-5.233470701E-1,-2.855558515E0,1.467563128E0,3.252975273E0
1.254621571E1,-5.766121715E-1,-2.807078665E0,2.642970711E0,3.898392798E0
1.255619371E1,-2.843706355E-1,-2.782994569E0,3.472680087E0,4.459308513E0
1.256617171E1,2.415449520E-1,-2.609902368E0,3.408057829E0,4.299394434E0
1.257615071E1,9.461026622E-1,-2.464996669E0,2.396696513E0,3.565876190E0
1.258612871E1,1.231913321E0,-2.613666220E0,1.629482177E0,3.317238868E0
1.259610771E1,6.909460317E-1,-2.725582513E0,2.283609608E0,3.622303037E0
1.260608571E1,-1.236336831E-1,-2.465648634E0,4.113374124E0,4.797348763E0
1.261606371E1,-5.002178605E-1,-2.110877595E0,5.767203523E0,6.161709065E0
1.262604271E1,-3.440727173E-1,-1.877638010E0,6.258275498E0,6.542929217E0
1.263602071E1,9.903681312E-2,-1.853797742E0,5.654308407E0,5.951266917E0
1.264599871E1,1.095148847E0,-1.129641718E0,3.636869318E0,3.962607708E0
1.265597771E1,1.958917670E0,-9.225444496E-1,1.725935362E0,2.768988908E0
1.266595571E1,2.235984767E0,-1.101014335E0,1.122592607E0,2.733509577E0
1.267593471E1,1.575258900E0,-1.214915172E0,2.052066154E0,2.858047407E0
1.268591271E1,5.750542905E-1,-8.857502604E-1,3.362682266E0,3.524609622E0
1.269589071E1,-1.787272362E-1,-5.381941009E-1,4.044133735E0,4.083701016E0
1.270586971E1,-3.940920293E-1,-3.900671715E-1,3.842581089E0,3.882382046E0
1.271584771E1,-1.343781428E-1,-2.759827316E-1,3.019886910E0,3.035447397E0
1.272582571E1,3.351511088E-1,-2.198325044E-1,2.053878644E0,2.092622776E0
1.273580471E1,6.661973260E-1,-1.910542631E-1,1.347854252E0,1.515596151E0
1.274578271E1,6.779560766E-1,-1.744505095E-1,1.115825625E0,1.317241150E0
1.275576071E1,4.204338820E-1,3.945701122E-2,1.493686149E0,1.552230594E0
1.276573971E1,1.027358348E-1,3.654270047E-1,2.105319232E0,2.139266373E0
1.277571771E1,-8.732478535E-2,6.092968279E-1,2.406002064E0,2.483488308E0
1.278569671E1,-1.889269364E-1,7.548293477E-1,2.270170075E0,2.399819348E0
1.279567471E1,-2.160787929E-1,7.959346890E-1,1.876675558E0,2.049905662E0
1.280565271E1,-2.059666547E-1,7.527740514E-1,1.401763533E0,1.604379020E0
1.281563171E1,-1.893113726E-1,8.068952948E-1,1.221735950E0,1.476332464E0
1.282560971E1,-2.114005636E-1,8.692488331E-1,1.555440932E0,1.794346741E0
1.283558771E1,-3.137661235E-1,9.082737350E-1,2.215888910E0,2.415279284E0
1.284556671E1,-5.599262645E-1,9.367946988E-1,2.808486383E0,3.013087701E0
1.285554471E1,-7.280601367E-1,9.653454834E-1,3.158661510E0,3.382174744E0
1.286552371E1,-6.912959144E-1,9.634351981E-1,3.214130244E0,3.425891220E0
1.287550171E1,-4.502126915E-1,8.655048609E-1,3.130199896E0,3.278710344E0
1.288547971E1,-6.378285360E-2,7.296260941E-1,3.040336085E0,3.127309706E0
1.289545871E1,3.389727393E-1,6.674298459E-1,3.002864496E0,3.094763367E0
1.290543671E1,6.299373530E-1,6.034437650E-1,3.031292196E0,3.154314161E0
1.291541471E1,8.189905527E-1,5.061741632E-1,3.076831774E0,3.223949685E0
1.292539371E1,8.145161171E-1,3.754438698E-1,3.055161700E0,3.184086622E0
1.293537171E1,5.733823888E-1,1.879143083E-1,2.948173149E0,3.009286305E0
1.294535071E1,3.635424471E-1,6.955204546E-2,2.919732876E0,2.943100519E0
1.295532871E1,2.071389301E-1,-6.243364513E-2,3.206919458E0,3.214208597E0
1.296530671E1,2.335195572E-1,-2.404971492E-1,3.663524435E0,3.678828828E0
1.297528571E1,3.649133999E-1,-4.371998227E-1,4.078612427E0,4.118177364E0
1.298526371E1,4.918349997E-1,-5.656397617E-1,4.427082799E0,4.490090435E0
1.299524171E1,5.961004662E-1,-6.640174109E-1,4.755588730E0,4.838582339E0
1.300522071E1,7.555659507E-1,-8.051019537E-1,4.900123422E0,5.022975076E0
1.301519871E1,8.541402125E-1,-1.001564307E0,5.019925854E0,5.189637959E0
1.302517671E1,9.435420933E-1,-1.210803995E0,5.056723552E0,5.284578609E0
1.303515571E1,9.909090717E-1,-1.660669472E0,5.188520377E0,5.537189503E0
1.304513371E1,7.726808971E-1,-2.182321215E0,5.467507993E0,5.937440973E0
1.305511271E1,4.003982513E-1,-2.768388809E0,5.721135065E0,6.368334303E0
1.306509071E1,-1.190372508E-1,-3.436083534E0,5.862635930E0,6.796421114E0
1.307506871E1,-4.279140057E-1,-4.026479237E0,5.862469284E0,7.124899406E0
1.308504771E1,-6.718629125E-1,-4.578789686E0,6.396093201E0,7.894727544E0
1.309502571E1,-7.005123688E-1,-5.165602216E0,7.192514963E0,8.882929434E0
1.310500371E1,8.397657830E-2,-5.887474317E0,7.140190569E0,9.254821839E0
1.311498271E1,7.096071281E-1,-6.479015490E0,6.348740695E0,9.098774225E0
1.312496071E1,8.728844125E-1,-6.742316195E0,5.285491186E0,8.611455856E0
1.313493971E1,1.179312207E0,-6.933061725E0,4.229636067E0,8.206579277E0
1.314491771E1,1.236638748E0,-7.176740929E0,3.346177038E0,8.014473566E0
1.315489571E1,1.260231240E0,-7.426463816E0,2.503533329E0,7.937772150E0
1.316487471E1,1.367069079E0,-7.235579122E0,1.510738091E0,7.516968317E0
1.317485271E1,1.175881207E0,-6.870657316E0,2.559086555E-1,6.975250376E0
1.318483071E1,8.416283405E-1,-6.700052521E0,-1.582544823E0,6.935667968E0
1.319480971E1,6.237467596E-1,-6.030286712E0,-4.490730034E0,7.544539355E0
1.320478771E1,6.174068429E-1,-5.468115519E0,-8.007353700E0,9.715924651E0
1.321476671E1,8.123641956E-1,-4.782396752E0,-1.207170769E1,1.300989550E1
1.322474471E1,9.386397877E-1,-3.911709504E0,-1.522088005E1,1.574349724E1
1.323472271E1,1.034701720E0,-2.993011352E0,-1.614886358E1,1.645644310E1
1.324470171E1,7.026135658E-1,-3.307393334E0,-1.455477226E1,1.494235296E1
1.325467971E1,4.892178226E-1,-3.104026004E0,-1.304099244E1,1.341423853E1
1.326465771E1,-1.752516512E-1,-3.031016500E0,-1.202547025E1,1.240281052E1
1.327463671E1,-6.139987933E-1,-2.991571183E0,-1.075488432E1,1.118007287E1
1.328461471E1,-7.942020860E-1,-2.975262129E0,-9.406677775E0,9.897905256E0
1.329459371E1,-8.265667900E-1,-2.969514316E0,-8.498895206E0,9.040599961E0
1.330457171E1,-8.472274880E-1,-2.902739698E0,-8.030961834E0,8.581377520E0
1.331454971E1,-8.480441248E-1,-2.861763580E0,-7.493210952E0,8.065796922E0
1.332452871E1,-8.466109722E-1,-2.758970699E0,-6.961701388E0,7.536176462E0
1.333450671E1,-8.893109223E-1,-2.662940707E0,-6.745035735E0,7.305999876E0
1.334448471E1,-9.185638113E-1,-2.512834495E0,-6.839325011E0,7.344008666E0
1.335446371E1,-9.203039427E-1,-2.236058296E0,-7.183968673E0,7.579994851E0
1.336444171E1,-1.068912537E0,-1.908569196E0,-7.114128944E0,7.442851673E0
1.337442071E1,-1.164552519E0,-2.082031526E0,-6.491095837E0,6.915588407E0
1.338439871E1,-1.149608644E0,-1.988461457E0,-5.344778445E0,5.817407982E0
1.339437671E1,-1.282308426E0,-2.012007610E0,-3.925651605E0,4.593825208E0
1.340435571E1,-1.214591968E0,-2.135670959E0,-2.735808708E0,3.677087622E0
1.341433371E1,-1.106993186E0,-2.330916506E0,-1.696913438E0,3.088384835E0
1.342431171E1,-8.853261910E-1,-2.517789425E0,-8.118049094E-1,2.789640347E0
1.343429071E1,-6.435783224E-1,-2.568867778E0,-9.191384465E-2,2.649853368E0
1.344426871E1,-3.729976141E-1,-2.650190853E0,4.252036750E-1,2.709877662E0
1.345424671E1,-1.099717277E-1,-2.759919117E0,7.908268538E-1,2.873091441E0
1.346422246E1,1.041740672E-1,-2.885462345E0,1.016860915E0,3.061168291E0
1.347420046E1,1.670390906E-1,-2.921629713E0,1.239686024E0,3.178150984E0
1.348417946E1,2.210263596E-1,-2.903840144E0,1.675670796E0,3.359912625E0
1.349415746E1,2.307284984E-1,-2.683514720E0,2.383072500E0,3.596320541E0
1.350413546E1,3.165400426E-1,-2.222764651E0,3.115646760E0,3.840330068E0
1.351411446E1,3.534711663E-1,-2.390744632E0,4.183405641E0,4.831302570E0
1.352409246E1,5.860021055E-1,-2.562955073E0,5.132198242E0,5.766419684E0
1.353407046E1,1.062083866E0,-2.331774877E0,5.260640520E0,5.851455793E0
1.354404946E1,1.741889051E0,-1.591837803E0,3.899992853E0,4.558296755E0
1.355402746E1,2.013415327E0,-1.328637085E0,2.352859352E0,3.369727721E0
1.356400646E1,1.635155000E0,-1.701188337E0,2.239338584E0,3.253061777E0
1.357398446E1,8.158715748E-1,-1.761308239E0,3.352226275E0,3.873664175E0
1.358396246E1,1.051774311E-1,-1.179006252E0,4.444475634E0,4.599400145E0
1.359394146E1,-1.997511193E-1,-7.338226408E-1,4.930450591E0,4.988761290E0
1.360391946E1,-2.243484369E-1,-8.297853899E-1,4.744471711E0,4.821710052E0
1.361389746E1,2.994163802E-1,-5.026278269E-1,3.484895505E0,3.533664045E0
1.362387646E1,8.287928250E-1,-3.680915809E-1,2.034452440E0,2.227416820E0
1.363385446E1,1.392729878E0,-4.560173321E-1,9.276484841E-1,1.734410571E0
1.364383346E1,1.557102565E0,-5.653006232E-1,7.063953987E-1,1.800868582E0
1.365381146E1,1.124897141E0,-5.456756133E-1,1.345228852E0,1.836517388E0
1.366378946E1,4.881298019E-1,-3.427959412E-1,2.123659901E0,2.205835700E0
1.367376846E1,-1.559219805E-1,-2.007606411E-1,2.559842016E0,2.572432243E0
1.368374646E1,-4.988805657E-1,-1.124226612E-1,2.618434332E0,2.667905363E0
1.369372446E1,-4.431717302E-1,2.840051115E-2,2.375909076E0,2.417054346E0
1.370370346E1,-7.371197395E-2,4.003705502E-2,1.979418446E0,1.981195045E0
1.371368146E1,2.551469643E-1,3.999787867E-2,1.662558415E0,1.682498228E0
1.372366046E1,3.668672470E-1,5.173499465E-2,1.682854977E0,1.723156685E0
1.373363846E1,3.957746752E-1,7.980513811E-2,2.034120903E0,2.073801895E0
1.374361646E1,2.573542151E-1,2.696168679E-1,2.391936294E0,2.420802281E0
1.375359546E1,2.262372703E-2,4.392410856E-1,2.616188417E0,2.652901505E0
1.376357346E1,-4.040197609E-2,4.814164674E-1,2.675807505E0,2.719069682E0
1.377355146E1,6.723756219E-2,4.956690556E-1,2.644762006E0,2.691649080E0
1.378353046E1,1.799886450E-1,4.043951887E-1,2.706069769E0,2.742033001E0
1.379350846E1,2.781434605E-1,3.096574312E-1,2.836484021E0,2.866861195E0
1.380348646E1,2.933253905E-1,2.673709524E-1,3.030474171E0,3.056354153E0
1.381346546E1,3.496707319E-1,2.733643484E-1,3.202386696E0,3.232998336E0
1.382344346E1,4.036101269E-1,2.491843575E-1,3.273325117E0,3.307514368E0
1.383342246E1,4.005023683E-1,1.434216750E-1,3.301702239E0,3.328995284E0
1.384340046E1,4.732607710E-1,1.255169159E-1,3.307597986E0,3.343640934E0
1.385337846E1,6.603616586E-1,1.931750482E-1,3.546930955E0,3.613047650E0
1.386335746E1,7.655141111E-1,1.956571913E-1,4.101011648E0,4.176432704E0
1.387333546E1,7.911060584E-1,1.425288051E-1,4.719806401E0,4.787769389E0
1.388331346E1,8.240669592E-1,7.187339008E-2,5.249602731E0,5.314374937E0
1.389329246E1,6.289111666E-1,-1.269693643E-1,5.807553989E0,5.842887455E0
1.390327046E1,4.675618554E-1,-3.661275011E-1,6.167015664E0,6.195542400E0
1.391324946E1,5.096673995E-1,-7.108506846E-1,6.202709407E0,6.264078028E0
1.392322746E1,3.253332682E-1,-1.252465991E0,6.419797229E0,6.548916647E0
1.393320546E1,5.613692477E-4,-1.707364751E0,7.046066185E0,7.249975406E0
1.394318446E1,-1.392397463E-1,-2.176742971E0,8.089334003E0,8.378241001E0
1.395316246E1,-1.040130129E-1,-2.580698449E0,9.050868271E0,9.412175075E0
1.396314046E1,4.537282568E-1,-3.016881441E0,9.186952860E0,9.680265792E0
1.397311946E1,8.011127640E-1,-3.526333553E0,8.420319153E0,9.163983011E0
1.398309746E1,1.069068511E0,-3.911320664E0,6.979793258E0,8.072103241E0
1.399307646E1,9.454883391E-1,-4.084606993E0,5.591842017E0,6.989038534E0
1.400305446E1,5.792845318E-1,-4.304495630E0,4.560264537E0,6.297639705E0
1.401303246E1,6.137317217E-1,-4.579345756E0,3.701976310E0,5.920447853E0
1.402301146E1,7.113346148E-1,-4.780063713E0,2.799911441E0,5.585204572E0
1.403298946E1,7.793402179E-1,-4.995497357E0,1.974589523E0,5.427832790E0
1.404296746E1,9.040209820E-1,-5.169156738E0,1.386943181E0,5.427803119E0
1.405294646E1,1.235784762E0,-5.215724548E0,7.200524479E-1,5.408273483E0
1.406292446E1,1.512908578E0,-5.229502342E0,-4.076187587E-1,5.459188600E0
1.407290346E1,1.483793098E0,-5.321562075E0,-2.221968260E0,5.954645903E0
1.408288146E1,1.477528830E0,-5.115355337E0,-4.563440745E0,7.012484802E0
1.409285946E1,1.265741802E0,-5.014145297E0,-6.676101156E0,8.444766546E0
1.410283846E1,8.241046006E-1,-5.003115109E0,-8.304128546E0,9.729792398E0
1.411281646E1,4.294650527E-1,-4.810088580E0,-9.467226863E0,1.062778325E1
1.412279446E1,7.848615244E-2,-4.769464465E0,-1.005344882E1,1.112770347E1
1.413277346E1,-1.318580751E-1,-4.717263447E0,-1.030332725E1,1.133263047E1
1.414275146E1,-2.119547700E-1,-4.575591844E0,-1.048504234E1,1.144190012E1
1.415273046E1,-2.288304191E-1,-4.356038252E0,-1.061404945E1,1.147542934E1
1.416270846E1,-4.006800140E-1,-3.978792855E0,-1.066827069E1,1.139312672E1
1.417268646E1,-4.968298010E-1,-3.620885369E0,-1.069358094E1,1.130089926E1
1.418266546E1,-4.332012042E-1,-3.372304444E0,-1.055457859E1,1.108869829E1
1.419264346E1,-2.765939118E-1,-3.241487612E0,-1.028617035E1,1.078837553E1
1.420262146E1,-9.863492668E-2,-3.178585605E0,-1.003152995E1,1.052353213E1
1.421260046E1,1.807725191E-2,-3.198795921E0,-9.708312242E0,1.022173903E1
1.422257846E1,6.966796651E-2,-2.998148716E0,-9.285083756E0,9.757383344E0
1.423255746E1,-7.409737855E-2,-2.897483051E0,-8.437771922E0,8.921709111E0
1.424253546E1,-2.542964320E-1,-2.735443842E0,-7.014843222E0,7.533614347E0
1.425251346E1,-5.252306776E-1,-2.515114909E0,-5.184429665E0,5.786188834E0
1.426249246E1,-7.601251709E-1,-2.299549118E0,-3.537057931E0,4.286781454E0
1.427247046E1,-9.767168561E-1,-2.126786115E0,-2.516391356E0,3.436483733E0
1.428244846E1,-1.040616691E0,-2.000970406E0,-2.183864880E0,3.139431712E0
1.429242746E1,-9.162765267E-1,-1.912399707E0,-2.238907059E0,3.083754227E0
1.430240546E1,-7.263398127E-1,-1.970885312E0,-2.287198629E0,3.105356019E0
1.431238446E1,-5.611713195E-1,-2.149327131E0,-2.308075528E0,3.203393982E0
1.432236246E1,-5.367572938E-1,-2.356181740E0,-2.170719169E0,3.248341500E0
1.433234046E1,-6.202597725E-1,-2.403634234E0,-1.708772176E0,3.013649294E0
1.434231946E1,-6.674662448E-1,-2.498612897E0,-9.314491743E-1,2.748849789E0
1.435229746E1,-6.359643705E-1,-2.622270398E0,-7.984577626E-2,2.699468109E0
1.436227546E1,-5.248647881E-1,-2.613297261E0,5.909848103E-1,2.730214033E0
1.437225446E1,-3.047469395E-1,-2.597602749E0,9.188633350E-1,2.772132856E0
1.438223246E1,-5.712232679E-2,-2.673091473E0,9.422831878E-1,2.834885992E0
1.439221146E1,6.719130524E-2,-2.774216144E0,8.100206316E-1,2.890834362E0
1.440218946E1,1.620792630E-1,-2.930497600E0,5.618661149E-1,2.988273650E0
1.441216746E1,4.968912698E-2,-3.141624770E0,6.182706960E-1,3.202270110E0
1.442214646E1,-2.549852340E-1,-3.318570287E0,1.013730681E0,3.479306843E0
1.443212446E1,-3.448459750E-1,-3.353696265E0,1.480060090E0,3.681952642E0
1.444210246E1,-1.891027549E-1,-3.275618979E0,1.751684307E0,3.719386705E0
1.445208146E1,1.700300145E-1,-3.194666033E0,1.607417125E0,3.580306004E0
1.446205971E1,5.957120283E-1,-3.202674964E0,1.111680241E0,3.442068085E0
1.447203771E1,7.083113851E-1,-3.289315497E0,6.904998891E-1,3.434835011E0
1.448201671E1,4.868297831E-1,-3.235539240E0,9.417426127E-1,3.404790237E0
1.449199471E1,-1.628833283E-2,-2.953470726E0,2.063400397E0,3.602898255E0
1.450197371E1,-5.137790154E-1,-3.028639022E0,3.879452754E0,4.948411550E0
1.451195171E1,-2.336003766E-1,-2.402170676E0,5.139147658E0,5.677660763E0
1.452192971E1,4.297283236E-2,-2.061579720E0,6.001393281E0,6.345760704E0
1.453190871E1,4.763203266E-1,-1.939754151E0,6.242986783E0,6.554724341E0
1.454188671E1,1.241439458E0,-1.410336136E0,5.655160931E0,5.959116134E0
1.455186571E1,1.527218323E0,-1.033861987E0,5.188573587E0,5.506592620E0
1.456184371E1,1.179576501E0,-8.755474538E-1,5.405024647E0,5.601095919E0
1.457182171E1,5.877034990E-1,-5.739276052E-1,5.830034779E0,5.887622085E0
1.458180071E1,1.284795082E-1,-2.912223297E-1,5.972392845E0,5.980868978E0
1.459177871E1,1.132923888E-1,-1.760871452E-1,5.783685654E0,5.787474544E0
1.460175671E1,5.016681892E-1,-8.202883422E-2,5.400428735E0,5.424299975E0
1.461173571E1,9.298657483E-1,-3.486694694E-3,4.962959940E0,5.049320136E0
1.462171371E1,1.228610521E0,2.405427575E-2,4.674019779E0,4.832858710E0
1.463169271E1,1.202438457E0,1.115654594E-1,4.634389690E0,4.789141144E0
1.464167071E1,9.810279351E-1,3.152274889E-1,4.741648968E0,4.852321002E0
1.465164871E1,7.540517411E-1,4.372974712E-1,4.918740372E0,4.995380862E0
1.466162771E1,4.257858384E-1,3.660854012E-1,5.135590796E0,5.166198305E0
1.467160571E1,-1.411946258E-1,2.005016094E-1,5.382452640E0,5.388036121E0
1.468158371E1,-5.047624992E-1,1.495255834E-1,5.613236395E0,5.637868915E0
1.469156271E1,-4.239669158E-1,9.123644471E-2,6.005615555E0,6.021253211E0
1.470154071E1,6.287564895E-2,-1.821290731E-2,6.499100676E0,6.499430333E0
1.471151871E1,8.491220590E-1,-1.787049437E-1,6.805069098E0,6.860168304E0
1.472149771E1,1.563157795E0,-3.177838916E-1,6.702802466E0,6.889993454E0
1.473147571E1,1.963617077E0,-5.685048974E-1,6.390839478E0,6.709830033E0
1.474145471E1,1.792204780E0,-9.237776273E-1,6.381807868E0,6.692744934E0
1.475143271E1,1.041517966E0,-1.358794100E0,7.003501378E0,7.209723478E0
1.476141071E1,4.130114995E-2,-1.998263145E0,8.047526411E0,8.292010776E0
1.477138971E1,-4.924398211E-1,-2.661061411E0,8.623761912E0,9.038418796E0
1.478136771E1,-4.209424435E-1,-3.504414096E0,8.321034601E0,9.038679523E0
1.479134571E1,1.107725769E-2,-4.367611061E0,7.594519810E0,8.760872116E0
1.480132471E1,4.368991296E-1,-4.779691245E0,6.725323602E0,8.262342694E0
1.481130271E1,8.588042441E-1,-5.148718965E0,5.681234250E0,7.715132813E0
1.482128171E1,1.360216143E0,-5.459380948E0,4.512483430E0,7.212318282E0
1.483125971E1,1.494219269E0,-5.540659000E0,3.377976243E0,6.659002694E0
1.484123771E1,1.146492371E0,-5.467937179E0,2.466267854E0,6.106984434E0
1.485121671E1,8.603321216E-1,-5.388874637E0,2.021565469E0,5.819524736E0
1.486119471E1,8.474531174E-1,-5.582632653E0,1.692417514E0,5.894763877E0
1.487117271E1,8.719218877E-1,-5.804319894E0,1.027724165E0,5.958740988E0
1.488115171E1,8.033005728E-1,-5.882439864E0,3.540869147E-2,5.937141092E0
1.489112971E1,9.536880358E-1,-5.868098983E0,-1.290234911E0,6.083486884E0
1.490110871E1,1.032720830E0,-5.866319091E0,-2.873396616E0,6.613366775E0
1.491108671E1,9.785191872E-1,-5.807609537E0,-4.880664473E0,7.648968168E0
1.492106471E1,9.420369469E-1,-5.244277672E0,-7.044099181E0,8.832282558E0
1.493104371E1,8.163430797E-1,-4.299675770E0,-8.773868124E0,9.804814614E0
1.494102171E1,6.168240948E-1,-3.603168306E0,-9.788368810E0,1.044870603E1
1.495100071E1,1.445322805E-1,-3.165793651E0,-1.034232817E1,1.081697236E1
1.496097871E1,-4.446185506E-1,-2.740647864E0,-1.045412928E1,1.081654544E1
1.497095671E1,-8.575747939E-1,-2.559691157E0,-9.889726785E0,1.025154375E1
1.498093571E1,-1.008173999E0,-2.531643818E0,-9.020455733E0,9.423070458E0
1.499091371E1,-1.057301867E0,-2.484300667E0,-8.110379886E0,8.547976307E0
1.500089171E1,-9.682829784E-1,-2.451546904E0,-7.409291128E0,7.864175047E0
1.501087071E1,-8.135673333E-1,-2.441634119E0,-7.018288402E0,7.475282006E0
1.502084871E1,-5.990482669E-1,-2.479153948E0,-6.714548938E0,7.182633957E0
1.503082671E1,-4.521079568E-1,-2.449163579E0,-6.429361519E0,6.894888932E0
1.504080571E1,-2.116792200E-1,-2.447974840E0,-6.221902308E0,6.689503512E0
1.505078371E1,-9.349449322E-2,-2.426544794E0,-6.207071430E0,6.665177912E0
1.506076271E1,-8.526987277E-2,-2.379625567E0,-6.453684767E0,6.878948747E0
1.507074071E1,-1.428393654E-1,-2.301251242E0,-6.785155236E0,7.166204849E0
1.508071871E1,-2.449818175E-1,-2.272102872E0,-7.078557993E0,7.438309674E0
1.509069771E1,-3.692788580E-1,-2.059563600E0,-7.185291898E0,7.483754990E0
1.510067571E1,-5.835717103E-1,-1.906526179E0,-6.806160774E0,7.092194476E0
1.511065471E1,-7.033754580E-1,-1.823142545E0,-6.065586938E0,6.372592147E0
1.512063271E1,-6.990689836E-1,-1.817538573E0,-5.171522521E0,5.526010233E0
1.513061071E1,-6.382911238E-1,-1.904370310E0,-4.221440025E0,4.674890129E0
1.514058971E1,-5.754605989E-1,-2.112119544E0,-3.194214043E0,3.872364552E0
1.515056771E1,-4.658143419E-1,-2.316113110E0,-2.061584982E0,3.135521580E0
1.516054571E1,-3.036254436E-1,-2.455732341E0,-1.038834459E0,2.683651761E0
1.517052471E1,-1.231830729E-1,-2.568882980E0,-3.386254147E-1,2.594031805E0
1.518050271E1,-7.014897309E-2,-2.614811105E0,-6.941639006E-2,2.616672817E0
1.519048071E1,3.518488929E-2,-2.623813478E0,-1.587852341E-1,2.628849158E0
1.520045971E1,2.252519962E-1,-2.700171683E0,-4.956167230E-1,2.754505675E0
1.521043771E1,3.015372567E-1,-2.779165812E0,-9.041268897E-1,2.938049142E0
1.522041671E1,2.393999923E-1,-2.922545972E0,-1.008257907E0,3.100833972E0
1.523039471E1,1.322173134E-1,-3.122054139E0,-4.623957673E-1,3.158878490E0
1.524037271E1,5.786156103E-2,-3.112442486E0,5.262812760E-1,3.157153492E0
1.525035171E1,1.475306230E-1,-3.113663385E0,1.484074934E0,3.452411240E0
1.526032971E1,2.728958403E-1,-3.015129030E0,2.053680131E0,3.658288847E0
1.527030771E1,5.414197905E-1,-2.807790856E0,2.061489673E0,3.525133267E0
1.528028671E1,9.065482217E-1,-2.643977017E0,1.352189670E0,3.104973598E0
1.529026471E1,1.243611991E0,-2.602167086E0,2.917667055E-1,2.898788047E0
1.530024371E1,1.185809779E0,-2.937131851E0,-6.999405842E-2,3.168246757E0
1.531022171E1,5.556785913E-1,-3.096183134E0,7.546768085E-1,3.234913566E0
1.532019971E1,-3.289473226E-1,-2.903484634E0,2.400062316E0,3.781365954E0
1.533017871E1,-8.843137456E-1,-2.528828384E0,3.977813446E0,4.795829814E0
1.534015671E1,-1.007982576E0,-2.404912435E0,5.133467088E0,5.757787512E0
1.535013471E1,-4.144827320E-1,-1.972939439E0,5.062094219E0,5.448769022E0
1.536011371E1,6.161443560E-1,-1.408310661E0,3.600402865E0,3.914827400E0
1.537009171E1,1.549926277E0,-1.372545581E0,1.652131075E0,2.648714769E0
1.538007071E1,1.943339079E0,-1.592532452E0,6.944629857E-1,2.606723082E0
1.539004871E1,1.488534752E0,-1.632827370E0,1.342368101E0,2.585307147E0
1.540002671E1,5.302068408E-1,-1.276574062E0,2.858249111E0,3.174956474E0
1.541000571E1,-2.410142441E-1,-9.068528616E-1,4.222146369E0,4.325157793E0
1.541998371E1,-5.521082814E-1,-7.352973086E-1,4.964710597E0,5.049142204E0
1.542996171E1,-3.464826107E-1,-6.441357082E-1,5.024291970E0,5.077250320E0
1.543994071E1,1.936224333E-1,-5.531302285E-1,4.356822363E0,4.396060031E0
1.544991871E1,8.589819995E-1,-4.305883759E-1,3.090409885E0,3.236338932E0
1.545989733E1,1.418669588E0,-3.308594352E-1,1.746898653E0,2.274587055E0
1.546987533E1,1.796761077E0,-3.051866502E-1,7.766374156E-1,1.981074187E0
1.547985333E1,1.729017283E0,-3.136551726E-1,5.810009819E-1,1.850795092E0
1.548983233E1,1.122790974E0,-2.426413232E-1,1.166065194E0,1.636839155E0
1.549981033E1,3.659372839E-1,-4.194090843E-2,1.856035179E0,1.892230356E0
1.550978833E1,-1.105627350E-1,1.710760814E-1,2.079110842E0,2.089065111E0
1.551976733E1,-3.418928388E-1,2.707728624E-1,1.910175426E0,1.959331216E0
1.552974533E1,-4.086641677E-1,3.380661285E-1,1.705707650E0,1.786262494E0
1.553972433E1,-2.733900396E-1,4.721954083E-1,1.694662260E0,1.780334461E0
1.554970233E1,-9.100492238E-2,6.134927899E-1,1.899478237E0,1.998167379E0
1.555968033E1,5.498438375E-4,7.175814146E-1,2.290393547E0,2.400172075E0
1.556965933E1,-1.513319893E-1,8.718257010E-1,2.669289613E0,2.812132370E0
1.557963733E1,-5.093207692E-1,1.002158384E0,2.866222082E0,3.078791662E0
1.558961633E1,-7.883083849E-1,1.014847426E0,2.923777980E0,3.193716187E0
1.559959433E1,-7.985179889E-1,1.032880824E0,3.003413549E0,3.274899498E0
1.560957233E1,-6.235462732E-1,1.019321131E0,3.323390146E0,3.531677730E0
1.561955133E1,-3.692660672E-1,9.268667114E-1,3.805203055E0,3.933828875E0
1.562952933E1,-4.915702122E-2,7.962311429E-1,4.366949156E0,4.439216753E0
1.563950733E1,1.192648354E-1,7.187151897E-1,5.053768954E0,5.106011777E0
1.564948633E1,2.020728294E-1,6.774747777E-1,5.845846235E0,5.888439836E0
1.565946433E1,2.966051668E-1,5.725231040E-1,6.487199838E0,6.519165519E0
1.566944233E1,4.885085553E-1,3.352167803E-1,6.715727152E0,6.741810000E0
1.567942133E1,7.800087009E-1,5.299916267E-2,6.489159240E0,6.536085229E0
1.568939933E1,8.633384675E-1,-3.232375896E-1,6.240801094E0,6.308520757E0
1.569937833E1,9.011560656E-1,-6.933680946E-1,6.318583680E0,6.420073309E0
1.570935633E1,9.397505394E-1,-1.014446307E0,6.806201704E0,6.945258384E0
1.571933433E1,7.947279699E-1,-1.442861273E0,7.628752919E0,7.804569962E0
1.572931333E1,6.137287981E-1,-1.923978948E0,8.252098267E0,8.495615566E0
1.573929133E1,6.728922417E-1,-2.515240624E0,8.339193129E0,8.736209785E0
1.574926933E1,7.236212960E-1,-3.179191961E0,7.775788173E0,8.431712223E0
1.575924833E1,8.757762992E-1,-3.816211023E0,6.699700518E0,7.759925111E0
1.576922633E1,1.078548163E0,-4.492455547E0,5.502283723E0,7.184744195E0
1.577920533E1,8.293008019E-1,-5.079435892E0,4.690441684E0,6.963379351E0
1.578918333E1,1.380146450E-1,-5.505761647E0,4.912330070E0,7.379935370E0
1.579916133E1,-5.178588735E-1,-6.054505879E0,5.983185636E0,8.527820918E0
1.580914033E1,-7.479493676E-1,-6.713613383E0,7.049652282E0,9.763689375E0
1.581911833E1,-2.448424710E-1,-7.338200680E0,6.823260956E0,1.002327427E1
1.582909733E1,2.376651234E-1,-7.650165423E0,5.307093140E0,9.313793711E0
1.583907533E1,5.856004748E-1,-7.763053522E0,3.346154526E0,8.473764100E0
1.584905333E1,6.300398254E-1,-7.823571619E0,1.806445236E0,8.054096315E0
1.585903233E1,3.731025350E-1,-7.415518997E0,4.626749718E-1,7.439300749E0
1.586901033E1,1.582587654E-1,-7.280861714E0,-8.875418472E-1,7.336465339E0
1.587898833E1,-1.426596366E-1,-7.250451515E0,-2.329690345E0,7.616879679E0
1.588896733E1,-2.447040747E-1,-6.723022723E0,-3.927712748E0,7.790111812E0
1.589894533E1,-8.539609954E-2,-6.169408929E0,-5.597302732E0,8.330588029E0
1.590892433E1,1.334904715E-2,-5.702238618E0,-7.095524858E0,9.102866388E0
1.591890233E1,3.103354159E-1,-5.504803873E0,-8.351875155E0,1.000764669E1
1.592888033E1,4.453504758E-1,-5.483847452E0,-9.539146446E0,1.101209493E1
1.593885933E1,1.329764282E-1,-5.276616282E0,-1.065604767E1,1.189166574E1
1.594883733E1,-3.234692855E-1,-5.043051592E0,-1.155058278E1,1.260765499E1
1.595881533E1,-8.189140273E-1,-4.826751975E0,-1.211444148E1,1.306628667E1
1.596879433E1,-1.149973072E0,-4.412802436E0,-1.212926534E1,1.295817662E1
1.597877233E1,-1.314046674E0,-3.975623079E0,-1.165836568E1,1.238748513E1
1.598875133E1,-1.317862274E0,-3.598364818E0,-1.100966856E1,1.165752084E1
1.599872933E1,-1.179117641E0,-3.239706550E0,-1.050830256E1,1.105940503E1
1.600870733E1,-8.947959761E-1,-2.927004474E0,-1.009973421E1,1.055332394E1
1.601868633E1,-5.924897374E-1,-2.548451055E0,-9.669713017E0,1.001743464E1
1.602866433E1,-2.570115866E-1,-2.130532426E0,-9.222399266E0,9.468784061E0
1.603864233E1,7.495238766E-2,-1.637308676E0,-8.969634658E0,9.118154608E0
1.604862133E1,1.869697637E-1,-1.137688072E0,-8.860824407E0,8.935519068E0
1.605859933E1,6.678792045E-2,-8.698417407E-1,-8.603531715E0,8.647649580E0
1.606857833E1,-1.362814207E-1,-7.523244005E-1,-7.901516173E0,7.938420653E0
1.607855633E1,-3.434824044E-1,-7.771522629E-1,-6.737241982E0,6.790609348E0
1.608853433E1,-4.445915072E-1,-1.084926891E0,-5.324317868E0,5.451888546E0
1.609851333E1,-4.874987411E-1,-1.480412677E0,-3.794071711E0,4.101738273E0
1.610849133E1,-4.250214612E-1,-1.815917725E0,-2.274802532E0,2.941585794E0
1.611846933E1,-2.569056789E-1,-2.107651101E0,-1.047267898E0,2.367480463E0
1.612844833E1,9.648647692E-2,-2.451783716E0,-3.109031805E-1,2.473300188E0
1.613842633E1,5.130304987E-1,-2.656587707E0,1.324715942E-2,2.705703979E0
1.614840533E1,8.689295020E-1,-2.803825275E0,1.306034088E-2,2.935412275E0
1.615838333E1,1.073696436E0,-3.110459111E0,-1.146989822E-1,3.292557634E0
1.616836133E1,1.021641745E0,-3.438323017E0,-2.067293327E-1,3.592847623E0
1.617834033E1,7.223102771E-1,-3.602380101E0,-2.556226536E-1,3.682963137E0
1.618831833E1,4.790773254E-1,-3.674458144E0,-2.616675051E-1,3.714785003E0
1.619829633E1,4.235851292E-1,-3.872453052E0,-3.257612113E-1,3.909147908E0
1.620827533E1,4.966729494E-1,-4.154290600E0,-1.409044486E-1,4.186247541E0
