"Time (s)","Linear Acceleration x (m/s^2)","Linear Acceleration y (m/s^2)","Linear Acceleration z (m/s^2)","Absolute acceleration (m/s^2)"
5.102499999E-3,-4.380126405E-2,-7.060987073E-2,-3.902314782E-2,9.179929544E-2
1.504849998E-2,-5.759713897E-2,-7.424888539E-2,-2.734918177E-2,9.786881599E-2
2.499449998E-2,-5.399089156E-2,-6.749484882E-2,-4.441603482E-2,9.717692698E-2
3.494049999E-2,-6.324940480E-2,-7.406761257E-2,-6.117941737E-2,1.150192138E-1
4.488649999E-2,-7.591895068E-2,-7.838554379E-2,-5.495213270E-3,1.092619692E-1
5.483250000E-2,-7.991523022E-2,-9.075979614E-2,2.998042881E-2,1.245897698E-1
6.477849997E-2,-5.948705500E-2,-9.233065976E-2,-9.391213059E-3,1.102354540E-1
7.472449998E-2,-6.081471100E-2,-8.900395950E-2,-4.008032441E-2,1.150068097E-1
8.467049999E-2,-5.109959417E-2,-8.571145632E-2,-4.217596650E-2,1.083348255E-1
9.461649999E-2,-4.880839469E-2,-8.749928819E-2,-3.663982272E-2,1.066811203E-1
1.045625000E-1,-4.979952059E-2,-8.889381258E-2,-5.221095800E-2,1.144905511E-1
1.145085000E-1,-5.496763239E-2,-8.316989095E-2,-4.891839087E-2,1.110480992E-1
1.244545000E-1,-5.552185250E-2,-7.200324395E-2,-4.936628759E-2,1.034609762E-1
1.344005000E-1,-5.031612209E-2,-7.185584843E-2,-2.214340568E-3,8.774895099E-2
1.443465000E-1,-4.476290261E-2,-6.851190803E-2,9.610483646E-3,8.240121594E-2
1.542925000E-1,-4.228139911E-2,-7.126002629E-2,-2.122422338E-2,8.553464629E-2
1.642385000E-1,-4.855687763E-2,-7.995531105E-2,-4.966449559E-2,1.059112093E-1
1.741845000E-1,-5.113634940E-2,-8.143184264E-2,-4.517675757E-2,1.062403438E-1
1.841305000E-1,-6.458165634E-2,-8.476631787E-2,-3.619894266E-2,1.125454683E-1
1.940765000E-1,-5.970157016E-2,-9.318994464E-2,-4.128952861E-2,1.181248003E-1
2.040225000E-1,-5.846181426E-2,-9.339580318E-2,-3.230995953E-2,1.148237487E-1
2.139685000E-1,-4.761895226E-2,-8.369230312E-2,-1.060451031E-2,9.687322569E-2
2.239145000E-1,-4.182217341E-2,-7.802491676E-2,-1.300128400E-2,8.947633883E-2
2.338605000E-1,-4.323342632E-2,-6.891754948E-2,-1.958934188E-2,8.368094223E-2
2.438065000E-1,-5.367715190E-2,-7.927408302E-2,-2.662646592E-2,9.937094929E-2
2.537525000E-1,-5.685395330E-2,-6.763784979E-2,-3.815191269E-2,9.624354093E-2
2.636985000E-1,-6.106853954E-2,-6.836826752E-2,-4.174853504E-2,1.007299692E-1
2.736445000E-1,-5.187620948E-2,-7.857437231E-2,-3.591242909E-2,1.007709068E-1
2.835905000E-1,-4.857110737E-2,-8.385328428E-2,-3.636324942E-2,1.035027133E-1
2.935365000E-1,-5.937140804E-2,-8.324695542E-2,-1.959811270E-2,1.041110258E-1
3.034825000E-1,-5.181951889E-2,-8.605432243E-2,-5.378268957E-3,1.005958981E-1
3.134285000E-1,-5.437141739E-2,-8.794595151E-2,1.955893636E-3,1.034145393E-1
3.233745000E-1,-5.144174765E-2,-8.378360191E-2,-2.573593497E-2,1.016281639E-1
3.333205000E-1,-4.959721606E-2,-7.718764116E-2,-3.696492791E-2,9.891522474E-2
3.432665000E-1,-4.613269967E-2,-7.040960359E-2,-6.855392575E-2,1.085604854E-1
3.532125000E-1,-4.894122242E-2,-6.830287920E-2,-7.409474730E-2,1.120292736E-1
3.631575000E-1,-5.651204650E-2,-7.131508148E-2,-3.173283935E-2,9.636610057E-2
3.731035000E-1,-5.405285834E-2,-6.723115766E-2,5.847215652E-7,8.626552067E-2
3.830495000E-1,-5.978210642E-2,-6.905052795E-2,2.484715819E-2,9.465335139E-2
3.929955000E-1,-6.283017771E-2,-6.265540078E-2,4.445521116E-2,9.924513226E-2
4.029400000E-1,-6.276753028E-2,-6.759973325E-2,-9.116276979E-2,1.296924724E-1
4.128860000E-1,-5.975661621E-2,-7.100085760E-2,-5.658350587E-2,1.086906992E-1
4.228320000E-1,-5.603728913E-2,-7.289689036E-2,1.855964720E-2,9.380082570E-2
4.327780000E-1,-5.886770239E-2,-6.566388460E-2,1.721186399E-2,8.985210286E-2
4.427240000E-1,-6.954461311E-2,-7.662743222E-2,-1.187066638E-1,1.574785338E-1
4.526700000E-1,-6.873869777E-2,-7.604093822E-2,-1.170600879E-1,1.555965843E-1
4.626160000E-1,-5.867425092E-2,-7.518352627E-2,-3.054176152E-2,1.001400496E-1
4.725620000E-1,-5.121090140E-2,-5.996643076E-2,7.214353144E-2,1.068794572E-1
4.825080000E-1,-5.254557406E-2,-7.172363740E-2,8.974306583E-3,8.936361505E-2
4.924540000E-1,-4.610697649E-2,-6.809258957E-2,-7.305335820E-2,1.099965780E-1
5.024000000E-1,-4.591376713E-2,-7.360586526E-2,-4.670814335E-2,9.852689008E-2
5.123460000E-1,-4.360769837E-2,-8.503656887E-2,1.077115595E-2,9.617103099E-2
5.222920000E-1,-3.951879071E-2,-8.687567350E-2,-5.539067388E-2,1.103505515E-1
5.322380000E-1,-4.722486363E-2,-8.925183577E-2,-1.218524659E-1,1.582532823E-1
5.421840000E-1,-4.950611370E-2,-8.904051374E-2,-7.470168829E-2,1.263305609E-1
5.521300000E-1,-2.818393576E-2,-7.712627281E-2,2.005068719E-2,8.452707406E-2
5.620760000E-1,-3.868935403E-2,-7.512198432E-2,3.861150384E-2,9.290332003E-2
5.720220000E-1,-3.578071599E-2,-8.083624891E-2,4.632164240E-3,8.852240236E-2
5.819680000E-1,-3.206929179E-2,-7.475817787E-2,-4.236892462E-2,9.171886615E-2
5.919140000E-1,-4.569657961E-2,-7.418194391E-2,-2.755149543E-2,9.137955510E-2
6.018600000E-1,-3.777765891E-2,-7.413553163E-2,-1.228383064E-2,8.410779428E-2
6.118060000E-1,-5.115078928E-2,-7.770030493E-2,-6.317858040E-2,1.124512057E-1
6.217520000E-1,-5.304908328E-2,-7.408012927E-2,-9.775667489E-2,1.336354679E-1
6.316980000E-1,-4.939324873E-2,-8.109042920E-2,-4.087554574E-2,1.033738892E-1
6.416440000E-1,-5.950704974E-2,-7.391573114E-2,1.810005605E-2,9.660350050E-2
6.515900000E-1,-6.119833860E-2,-7.436687124E-2,1.420639515E-2,9.735240032E-2
6.615360000E-1,-5.599700730E-2,-7.145652928E-2,-1.857660413E-2,9.266493741E-2
6.714820000E-1,-7.015997774E-2,-7.765549150E-2,-4.552174330E-2,1.141272402E-1
6.814280000E-1,-7.244968800E-2,-7.034596944E-2,-1.902859390E-2,1.027599148E-1
6.913740000E-1,-5.887156247E-2,-6.850781498E-2,-1.873155534E-2,9.224994713E-2
7.013200000E-1,-5.820818215E-2,-5.558789863E-2,-6.603377581E-2,1.041089165E-1
7.112660000E-1,-5.515969972E-2,-6.658131273E-2,-9.163171649E-2,1.259842655E-1
7.212120000E-1,-5.488036727E-2,-7.460233130E-2,-2.966117084E-2,9.724786683E-2
7.311580000E-1,-5.308186423E-2,-7.241116033E-2,2.078275859E-2,9.215738443E-2
7.411040000E-1,-4.681155684E-2,-8.462716327E-2,3.867348433E-3,9.678860987E-2
7.510500000E-1,-3.293278850E-2,-7.670370184E-2,-1.753755391E-2,8.529708220E-2
7.609960000E-1,-3.592810237E-2,-7.118790454E-2,-1.619210958E-2,8.136787269E-2
7.709420000E-1,-3.530690423E-2,-7.440142463E-2,-2.831748068E-2,8.708633180E-2
7.808880000E-1,-3.305596375E-2,-6.952724962E-2,-5.705654562E-2,9.582371615E-2
7.908340000E-1,-3.962501817E-2,-7.388636716E-2,-7.232713401E-2,1.107273753E-1
8.007800000E-1,-5.144520116E-2,-7.547984306E-2,-7.442277610E-2,1.178242973E-1
8.107260000E-1,-5.100095438E-2,-6.702663302E-2,-2.352978051E-2,8.744894198E-2
8.206720000E-1,-6.020640414E-2,-7.363788790E-2,4.460256100E-3,9.522207474E-2
8.306180000E-1,-5.732176253E-2,-7.392361575E-2,-1.227915287E-3,9.355208817E-2
8.405640000E-1,-5.259263501E-2,-7.700900872E-2,-1.305449367E-2,9.416364737E-2
8.505100000E-1,-4.932095796E-2,-8.541205147E-2,-1.230546534E-2,9.939416436E-2
8.604560000E-1,-5.610304290E-2,-7.576835747E-2,-2.723633051E-3,9.431762080E-2
8.704020000E-1,-5.790090183E-2,-8.173576081E-2,-8.370581567E-2,1.305370162E-1
8.803480000E-1,-4.837792999E-2,-7.883122039E-2,-9.642760277E-2,1.336153733E-1
8.902940000E-1,-5.139769253E-2,-6.545372288E-2,-6.095196068E-2,1.031554853E-1
9.002400000E-1,-4.178194639E-2,-5.636213394E-2,-1.305332422E-2,7.136392968E-2
9.101860000E-1,-4.159997008E-2,-5.624819546E-2,1.852748752E-2,7.237185086E-2
9.201320000E-1,-4.067223622E-2,-6.198530073E-2,-3.625858426E-3,7.422637776E-2
9.300780000E-1,-4.590080732E-2,-6.636439931E-2,-2.458110988E-2,8.435252558E-2
9.400240000E-1,-4.005953939E-2,-8.461117479E-2,-1.529631615E-3,9.362775960E-2
9.499700000E-1,-4.342777315E-2,-8.918634695E-2,-2.592889309E-2,1.025304026E-1
9.599160000E-1,-4.001286216E-2,-9.303604410E-2,-8.954952300E-2,1.351882085E-1
9.698620000E-1,-3.454827825E-2,-8.896441771E-2,-8.102018952E-2,1.251899447E-1
9.798080000E-1,-3.794766671E-2,-8.476141169E-2,-5.332777619E-2,1.070904946E-1
9.897540000E-1,-3.063411783E-2,-7.365798770E-2,-1.381229281E-2,8.096127322E-2
9.997000000E-1,-2.282287954E-2,-6.457544368E-2,1.702416837E-2,7.057403252E-2
1.009646000E0,-3.435518537E-2,-6.312351608E-2,1.103778899E-2,7.270962680E-2
1.019592000E0,-2.753661701E-2,-6.644869057E-2,-2.583299875E-3,7.197476776E-2
1.029538000E0,-1.580832096E-2,-6.434414975E-2,-2.952960849E-2,7.254012956E-2
1.039484000E0,-2.787946941E-2,-7.259405027E-2,-5.692439854E-2,9.637192589E-2
1.049430000E0,-3.939706813E-2,-8.146558290E-2,-6.994848669E-2,1.143746518E-1
1.059376000E0,-5.080388037E-2,-7.981526110E-2,-7.234584510E-2,1.191026090E-1
1.069322000E0,-5.087820854E-2,-8.129034002E-2,-7.444207191E-2,1.214015385E-1
1.079268000E0,-6.646295230E-2,-7.405748958E-2,-4.465518594E-2,1.090684254E-1
1.089214000E0,-5.931103554E-2,-7.946082847E-2,1.836435020E-2,1.008418145E-1
1.099160000E0,-6.930270283E-2,-6.687334461E-2,3.438104331E-2,1.022593027E-1
1.109106000E0,-7.030164024E-2,-6.055366480E-2,4.742091894E-3,9.290615898E-2
1.119052000E0,-7.416555800E-2,-5.532550483E-2,-2.893728554E-2,9.694744954E-2
1.128998000E0,-7.119451921E-2,-5.484479061E-2,-7.159915566E-2,1.149045243E-1
1.138944000E0,-8.034549393E-2,-5.750967742E-2,-6.576129556E-2,1.186899717E-1
1.148890000E0,-6.890358925E-2,-6.411874873E-2,-6.067363322E-2,1.119830716E-1
1.158836000E0,-5.871055390E-2,-7.754895341E-2,-6.157410443E-2,1.151179380E-1
1.168782000E0,-6.025848091E-2,-6.681618808E-2,-3.777710617E-2,9.758379610E-2
1.178728000E0,-5.471970588E-2,-7.792171340E-2,1.221775711E-2,9.599642295E-2
1.188674000E0,-4.797947422E-2,-6.962642387E-2,3.781335890E-2,9.262677237E-2
1.198620000E0,-4.196078897E-2,-7.612797950E-2,1.026946485E-2,8.753078877E-2
1.208565000E0,-3.724102613E-2,-7.748351027E-2,-2.819995165E-2,9.047555285E-2
1.218511000E0,-2.613960984E-2,-6.760277563E-2,-6.143084764E-2,9.501138625E-2
1.228457000E0,-2.580647158E-2,-6.196582220E-2,-6.442345262E-2,9.303826279E-2
1.238403000E0,-2.514618846E-2,-5.986497243E-2,-5.903641284E-2,8.775787006E-2
1.248349000E0,-2.808949181E-2,-6.778561989E-2,-6.098470509E-2,9.540987406E-2
1.258295000E0,-2.457329608E-2,-7.180526088E-2,-2.745501637E-2,8.070700276E-2
1.268241000E0,-3.196190174E-2,-6.365228710E-2,9.367239475E-3,7.183955728E-2
1.278187000E0,-3.240164205E-2,-7.192902999E-2,2.373618722E-2,8.238360484E-2
1.288133000E0,-3.361960793E-2,-8.389583191E-2,5.921475291E-3,9.057512086E-2
1.298079000E0,-3.748123705E-2,-8.097399652E-2,-4.242915094E-2,9.880214620E-2
1.308025000E0,-3.573264320E-2,-7.420296648E-2,-5.949424982E-2,1.015995462E-1
1.317971000E0,-4.789641178E-2,-7.423847917E-2,-6.892346978E-2,1.120529461E-1
1.327917000E0,-4.337975289E-2,-6.718377694E-2,-6.578059137E-2,1.035497419E-1
1.337863000E0,-5.463521361E-2,-5.938120670E-2,-3.734207332E-2,8.891324263E-2
1.347809000E0,-6.016974027E-2,-5.629053296E-2,-2.252405941E-2,8.541870403E-2
1.357755000E0,-5.861476463E-2,-6.428862861E-2,-1.504079282E-2,8.828897921E-2
1.367701000E0,-6.499002040E-2,-6.123166773E-2,9.659015536E-3,8.981267430E-2
1.377647000E0,-6.457391792E-2,-6.637320668E-2,2.208200991E-2,9.519878466E-2
1.387593000E0,-5.710271121E-2,-6.889067969E-2,-2.477231383E-2,9.284564022E-2
1.397539000E0,-5.439528134E-2,-7.243119618E-2,-6.548823059E-2,1.117758165E-1
1.407484958E0,-4.842829827E-2,-7.813927551E-2,-7.746274352E-2,1.202144878E-1
1.417430958E0,-4.559440409E-2,-6.866471222E-2,-7.057764709E-2,1.085121959E-1
1.427376958E0,-4.050145185E-2,-6.895249573E-2,-3.884597719E-2,8.890345444E-2
1.437322958E0,-4.682731235E-2,-6.681368474E-2,-1.938644350E-2,8.386119390E-2
1.447268958E0,-4.333462883E-2,-6.207537526E-2,-1.040628970E-2,7.641683803E-2
1.457214958E0,-3.203694253E-2,-6.465958877E-2,8.003668785E-3,7.260362814E-2
1.467160958E0,-3.601152570E-2,-6.758740841E-2,1.548752010E-2,7.813290624E-2
1.477106958E0,-3.199559860E-2,-7.357825544E-2,-3.675384343E-2,8.825147596E-2
1.487052958E0,-3.753411324E-2,-6.972035391E-2,-7.103606880E-2,1.063760334E-1
1.496998958E0,-4.039177087E-2,-7.105095179E-2,-7.972035348E-2,1.141712208E-1
1.506944958E0,-3.972189009E-2,-6.539924327E-2,-6.056195140E-2,9.758401268E-2
1.516890958E0,-4.231462774E-2,-7.175177713E-2,-2.987868726E-2,8.849622136E-2
1.526836958E0,-4.250166555E-2,-6.585635849E-2,-4.280161858E-3,7.849695098E-2
1.536782958E0,-5.013651207E-2,-6.962814149E-2,-4.579539299E-3,8.592275665E-2
1.546728958E0,-4.578729825E-2,-6.851771870E-2,9.940266609E-3,8.300580315E-2
1.556674958E0,-4.199493579E-2,-6.279449143E-2,1.706802249E-3,7.556213310E-2
1.566620958E0,-5.521891192E-2,-5.924877640E-2,-3.421790600E-2,8.792275490E-2
1.576566958E0,-4.723742601E-2,-6.220461700E-2,-8.226798534E-2,1.134407784E-1
1.586512958E0,-4.583520887E-2,-6.121500316E-2,-7.957300365E-2,1.103630640E-1
1.596458958E0,-5.675834675E-2,-5.968303266E-2,-4.873712718E-2,9.570204742E-2
1.606404958E0,-4.842727044E-2,-5.952643692E-2,-1.984954298E-2,7.926286375E-2
1.616350958E0,-4.147429605E-2,-6.324268050E-2,-6.976312995E-3,7.595013373E-2
1.626296958E0,-4.087232064E-2,-6.673680299E-2,-2.484481931E-3,7.829763801E-2
1.636242958E0,-4.223697397E-2,-6.530746026E-2,-1.550623119E-2,7.930617594E-2
1.646188958E0,-4.297996779E-2,-6.937780757E-2,-1.371172071E-2,8.275608195E-2
1.656134958E0,-4.371360606E-2,-7.307125616E-2,-3.197608352E-2,9.095470163E-2
1.666080958E0,-3.748542147E-2,-7.590557517E-2,-7.254172683E-2,1.114859421E-1
1.676026958E0,-2.422681429E-2,-6.501111606E-2,-6.011697829E-2,9.180106111E-2
1.685972958E0,-3.624256380E-2,-7.471368422E-2,-2.074884474E-2,8.559306396E-2
1.695918958E0,-3.715126451E-2,-7.053599481E-2,2.075761557E-4,7.972192990E-2
1.705864958E0,-3.486373325E-2,-7.055289692E-2,-1.042207718E-2,7.938394581E-2
1.715810958E0,-3.452451480E-2,-7.358074050E-2,-4.136320353E-3,8.138290141E-2
1.725756958E0,-3.456559377E-2,-8.185096923E-2,-1.955367386E-2,9.097641232E-2
1.735702958E0,-3.180018511E-2,-8.019686501E-2,-2.778655350E-2,9.063598340E-2
1.745648958E0,-3.814330632E-2,-7.741548157E-2,-4.200815141E-2,9.598308908E-2
1.755594958E0,-4.598197399E-2,-6.393404067E-2,-6.326453447E-2,1.010163591E-1
1.765540958E0,-3.865385047E-2,-5.948850310E-2,-6.296632648E-2,9.485652549E-2
1.775486958E0,-4.604374434E-2,-5.339411468E-2,-4.006336749E-2,8.109273266E-2
1.785432958E0,-5.193818539E-2,-5.493513010E-2,-2.041847706E-3,7.562812151E-2
1.795378958E0,-5.065205833E-2,-5.874722234E-2,6.040173769E-3,7.780328300E-2
1.805324958E0,-4.656236039E-2,-6.135550993E-2,1.711596966E-2,7.890189111E-2
1.815270958E0,-6.326364369E-2,-6.394808312E-2,-6.981575489E-4,8.995628589E-2
1.825216958E0,-6.781050710E-2,-7.173771640E-2,-5.234252036E-2,1.117331834E-1
1.835162958E0,-6.023797911E-2,-7.416655842E-2,-8.647096395E-2,1.288662878E-1
1.845108958E0,-6.731698383E-2,-7.946984597E-2,-7.853863120E-2,1.304428968E-1
1.855054958E0,-6.489225313E-2,-6.725657478E-2,-6.701376915E-2,1.150012897E-1
1.865000958E0,-5.128059747E-2,-6.210071929E-2,-3.468159020E-2,8.768700994E-2
1.874946958E0,-4.916167159E-2,-5.330522787E-2,4.236307740E-3,7.263789352E-2
1.884892958E0,-4.636461030E-2,-4.563485951E-2,3.147848547E-2,7.227110445E-2
1.894838958E0,-3.318902902E-2,-4.898317619E-2,1.396607459E-2,6.079403290E-2
1.904784958E0,-3.243596703E-2,-6.212636481E-2,-2.135870934E-2,7.326644270E-2
1.914729958E0,-3.027892917E-2,-5.866263871E-2,-4.665551841E-2,8.083845700E-2
1.924675958E0,-3.010450856E-2,-7.668973248E-2,-7.913914025E-2,1.142392228E-1
1.934621958E0,-2.826617822E-2,-8.225057160E-2,-8.422855675E-2,1.210726358E-1
1.944567958E0,-3.347004940E-2,-8.952888415E-2,-5.114968836E-2,1.084064386E-1
1.954513958E0,-3.756445481E-2,-8.742288153E-2,-2.375899136E-2,9.807312654E-2
1.964459958E0,-2.858613969E-2,-7.995306353E-2,2.025007725E-2,8.729103836E-2
1.974405958E0,-2.896190552E-2,-6.498367069E-2,2.189665318E-2,7.443878591E-2
1.984351958E0,-3.449490870E-2,-5.886143491E-2,-2.584469318E-4,6.822487846E-2
1.994297958E0,-4.437626461E-2,-5.731394188E-2,-4.127374113E-2,8.341260397E-2
2.004243958E0,-3.971552211E-2,-5.676408433E-2,-7.240841031E-2,1.002120844E-1
2.014189958E0,-3.656621861E-2,-5.373007377E-2,-7.674996793E-2,1.005712024E-1
2.024135958E0,-4.006053067E-2,-5.771559991E-2,-7.181082487E-2,1.004625859E-1
2.034081958E0,-4.172462541E-2,-5.951109711E-2,-4.576498747E-2,8.588916767E-2
2.044027958E0,-5.496389109E-2,-6.774015779E-2,-1.672537565E-2,8.882283767E-2
2.053973958E0,-5.524937226E-2,-8.245819344E-2,1.381229281E-2,1.002129045E-1
2.063919958E0,-5.699885004E-2,-7.414225593E-2,2.608793736E-2,9.709028528E-2
2.073865958E0,-4.983584185E-2,-6.955022735E-2,-5.578243732E-4,8.556375649E-2
2.083811958E0,-4.759082167E-2,-7.531052962E-2,-5.399728239E-2,1.041742227E-1
2.093757958E0,-5.235771398E-2,-6.696890091E-2,-7.959580779E-2,1.164545255E-1
2.103703958E0,-5.084865269E-2,-5.377115046E-2,-7.300950408E-2,1.039582117E-1
2.113649958E0,-4.541671269E-2,-5.483425649E-2,-4.936044037E-2,8.663675057E-2
2.123595958E0,-3.751663327E-2,-5.794526758E-2,-3.723623872E-2,7.843270542E-2
2.133541958E0,-3.957881603E-2,-5.872623632E-2,-1.029402316E-2,7.156270274E-2
2.143487958E0,-4.297492457E-2,-6.073480971E-2,1.485485137E-2,7.586980863E-2
2.153433958E0,-4.350818150E-2,-7.226328973E-2,1.650142729E-2,8.594906632E-2
2.163379958E0,-3.867853669E-2,-7.870958003E-2,-1.403741062E-2,8.881596752E-2
2.173325958E0,-3.225889004E-2,-7.879160550E-2,-6.104025364E-2,1.047600384E-1
2.183271958E0,-3.937121247E-2,-7.956381256E-2,-6.358613133E-2,1.091956443E-1
2.193217958E0,-3.594646628E-2,-7.644437782E-2,-5.865049660E-2,1.028385730E-1
2.203163958E0,-3.329709516E-2,-6.783345742E-2,-4.727532327E-2,8.913490159E-2
2.213109958E0,-2.639893614E-2,-6.535859599E-2,-2.886419535E-2,7.616949305E-2
2.223055958E0,-3.763852944E-2,-5.442003608E-2,-6.860538125E-3,6.652267439E-2
2.233001958E0,-3.147716984E-2,-5.605014844E-2,4.742091894E-4,6.428573898E-2
2.242947958E0,-4.027290337E-2,-5.722567633E-2,-4.467857480E-3,7.011880295E-2
2.252893958E0,-4.652295107E-2,-5.963678484E-2,-3.680003643E-2,8.411405212E-2
2.262839958E0,-4.991433158E-2,-5.434919341E-2,-6.808556378E-2,1.004037814E-1
2.272785958E0,-5.307623629E-2,-5.842433726E-2,-5.970241070E-2,9.896902488E-2
2.282731958E0,-5.216898596E-2,-6.696428709E-2,-3.365657330E-2,9.131584620E-2
2.292677958E0,-5.078200813E-2,-6.542679828E-2,-2.287898540E-2,8.592395624E-2
2.302623958E0,-5.045151254E-2,-6.912887150E-2,-2.662178814E-2,8.962631085E-2
2.312569958E0,-5.075309639E-2,-6.460278855E-2,-4.618130922E-3,8.228441052E-2
2.322515958E0,-5.480748264E-2,-6.227095549E-2,1.259548724E-2,8.390577066E-2
2.332461958E0,-4.020243072E-2,-5.432520155E-2,-4.920431972E-3,6.776188907E-2
2.342407958E0,-4.963111164E-2,-5.170380341E-2,-5.267171860E-2,8.894290567E-2
2.352353958E0,-4.458067505E-2,-5.508123740E-2,-7.512561142E-2,1.032726333E-1
2.362299958E0,-3.273344641E-2,-5.647499434E-2,-5.252436876E-2,8.378372642E-2
2.372245958E0,-3.123534865E-2,-6.247336965E-2,-3.396647573E-2,7.766782084E-2
2.382191958E0,-3.254962000E-2,-5.926924165E-2,-2.004600942E-2,7.052774817E-2
2.392137958E0,-3.366284078E-2,-6.555827840E-2,-1.061562002E-2,7.445647121E-2
2.402083958E0,-3.160328012E-2,-7.101494573E-2,-8.220015764E-3,7.816302509E-2
2.412030958E0,-2.642219938E-2,-7.312215434E-2,-2.232466936E-3,7.778152727E-2
2.421976958E0,-2.120121367E-2,-6.902022293E-2,-2.244102895E-2,7.561006821E-2
2.431922958E0,-3.469370947E-2,-6.630641137E-2,-4.654325187E-2,8.812756641E-2
2.441868958E0,-2.807477555E-2,-7.408020236E-2,-6.525434196E-2,1.026362438E-1
2.451814958E0,-3.687397402E-2,-6.910535473E-2,-2.917994499E-2,8.358653721E-2
2.461760958E0,-3.924420455E-2,-6.309613466E-2,-1.600733757E-2,7.600963529E-2
2.471706958E0,-3.417747113E-2,-5.485304067E-2,-2.468986809E-2,6.918486243E-2
2.481652958E0,-4.325355353E-2,-5.579393076E-2,-5.013636589E-2,8.658803489E-2
2.491598958E0,-5.204465954E-2,-5.471990688E-2,-1.915080070E-2,7.790807380E-2
2.501544958E0,-4.395725223E-2,-5.765963109E-2,8.690716624E-3,7.302329516E-2
2.511490958E0,-5.307113824E-2,-6.623259027E-2,-2.484072626E-2,8.843281863E-2
2.521435958E0,-5.702746485E-2,-5.650931018E-2,-3.951022089E-2,8.947899999E-2
2.531381958E0,-5.157992466E-2,-5.801442004E-2,-4.714609981E-2,9.082354479E-2
2.541327958E0,-5.528424085E-2,-5.998625647E-2,-2.604174435E-2,8.563218262E-2
2.551273958E0,-6.473624211E-2,-6.579934814E-2,-4.595092893E-2,1.031107324E-1
2.561219958E0,-6.584329819E-2,-6.464349979E-2,-5.972112179E-2,1.099123941E-1
2.571165958E0,-6.567369239E-2,-5.820456418E-2,-3.322855711E-2,9.383465336E-2
2.581111958E0,-4.904400551E-2,-5.595605395E-2,1.182599366E-2,7.534088250E-2
2.591057958E0,-4.775568574E-2,-6.225312148E-2,7.333577871E-3,7.880252546E-2
2.601003958E0,-4.300130556E-2,-5.789354713E-2,-1.407190919E-2,7.347648404E-2
2.610949958E0,-4.687937084E-2,-5.803375239E-2,-5.748339236E-2,9.418031761E-2
2.620895958E0,-4.006619059E-2,-6.401564587E-2,-4.236717045E-2,8.659260752E-2
2.630841958E0,-2.792507084E-2,-6.836467696E-2,-4.461250126E-2,8.627753999E-2
2.640787958E0,-3.257676159E-2,-6.844655626E-2,-4.745951056E-2,8.943478966E-2
2.650733958E0,-3.118161365E-2,-8.149982566E-2,-2.261235237E-2,9.014340293E-2
2.660679958E0,-2.527291772E-2,-7.688366817E-2,-7.793169022E-3,8.130530293E-2
2.670625958E0,-2.608635906E-2,-6.877992064E-2,-1.617573738E-2,7.531819230E-2
2.680571958E0,-2.462725720E-2,-6.855938924E-2,-3.443893075E-2,8.057872922E-2
2.690517958E0,-2.024660546E-2,-5.728443171E-2,-1.527994394E-2,6.264908488E-2
2.700463958E0,-2.223914241E-2,-5.726774887E-2,-2.456298351E-2,6.616278920E-2
2.710409958E0,-2.711670470E-2,-6.077806997E-2,-4.132928967E-2,7.834155761E-2
2.720355958E0,-3.899393915E-2,-5.784598368E-2,-4.567143202E-2,8.338204136E-2
2.730301958E0,-2.930190284E-2,-5.660987316E-2,-4.492181897E-2,7.798236383E-2
2.740247958E0,-4.291354707E-2,-6.714920528E-2,-2.995470107E-2,8.513443727E-2
2.750193958E0,-4.001443360E-2,-6.614977908E-2,-1.483789444E-2,7.872173322E-2
2.760139958E0,-4.844271074E-2,-7.022241960E-2,-3.744264543E-2,9.316563817E-2
2.770085958E0,-4.295307973E-2,-7.040996904E-2,-3.534641862E-2,8.973238049E-2
2.780031958E0,-4.102926356E-2,-5.623325765E-2,-3.164513111E-3,6.968209151E-2
2.789977958E0,-4.603616123E-2,-5.225089266E-2,-7.357551455E-3,7.002583443E-2
2.799923958E0,-5.093756234E-2,-4.594707342E-2,-4.642572284E-2,8.283185712E-2
2.809869958E0,-4.199070113E-2,-4.285702094E-2,-3.834194720E-2,7.120427052E-2
2.819815958E0,-4.102019581E-2,-5.539310412E-2,-2.337307513E-2,7.278291757E-2
2.829761958E0,-4.641066626E-2,-5.869135402E-2,-2.576809466E-2,7.913671513E-2
2.839707958E0,-4.558080018E-2,-6.088342035E-2,-3.549903095E-2,8.393200472E-2
2.849653958E0,-4.875891720E-2,-6.869019329E-2,-4.642572284E-2,9.618275522E-2
2.859599958E0,-4.876843720E-2,-7.386396501E-2,-2.891506612E-2,9.311458985E-2
2.869545958E0,-4.761070677E-2,-7.242475511E-2,-8.408880830E-3,8.707946847E-2
2.879491958E0,-3.233204876E-2,-7.344113823E-2,-1.604300559E-2,8.183116882E-2
2.889437958E0,-3.024726970E-2,-7.143610057E-2,-2.771755636E-2,8.237886088E-2
2.899383958E0,-3.659962311E-2,-5.673303927E-2,-3.700001121E-2,7.698812237E-2
2.909329958E0,-3.662723750E-2,-5.070192869E-2,-5.122277856E-2,8.084561301E-2
2.919275958E0,-3.082993560E-2,-5.128889778E-2,-3.670355737E-2,7.020104763E-2
2.929221958E0,-2.505110496E-2,-5.332483431E-2,-3.086628199E-2,6.651182736E-2
2.939167958E0,-3.579629563E-2,-4.730768396E-2,-2.757371485E-2,6.541942749E-2
2.949113958E0,-3.357898120E-2,-6.383899600E-2,-1.275570095E-2,7.325075628E-2
2.959059958E0,-4.089503798E-2,-6.590095265E-2,-1.844445705E-2,7.972162622E-2
2.969005958E0,-5.548535309E-2,-7.851145992E-2,-1.021333158E-2,9.667981117E-2
2.978951958E0,-4.992051227E-2,-7.093218022E-2,-3.790691435E-2,9.465920923E-2
2.988897958E0,-4.639645935E-2,-7.219893381E-2,-5.407212675E-2,1.014352620E-1
2.998843958E0,-5.133258287E-2,-5.851535283E-2,-4.583807766E-2,9.033388038E-2
3.008789958E0,-5.596056270E-2,-5.853833970E-2,-2.173760891E-2,8.385013675E-2
3.018735958E0,-4.678946990E-2,-6.449127118E-2,-2.817656279E-2,8.451211299E-2
3.028681958E0,-4.338960179E-2,-5.848246224E-2,-3.716022491E-2,8.175413292E-2
3.038627958E0,-4.523160263E-2,-6.604596360E-2,-4.000606477E-2,8.948995699E-2
3.048573958E0,-4.198744405E-2,-7.465738649E-2,-5.168236971E-2,1.000386833E-1
3.058519958E0,-4.734755466E-2,-6.617775436E-2,-4.823952913E-2,9.459565674E-2
3.068465958E0,-3.755581418E-2,-4.919837200E-2,3.094463468E-2,6.919891185E-2
3.078411958E0,-2.749686965E-2,-3.371057781E-2,6.447256923E-2,7.777655868E-2
3.088356958E0,-2.028376954E-2,-3.746964312E-2,-1.690430045E-3,4.264109539E-2
3.098303958E0,-2.528294706E-2,-4.801929924E-2,-8.132366002E-2,9.776818598E-2
3.108249958E0,-3.562914977E-2,-4.877400119E-2,-8.297023594E-2,1.026274795E-1
3.118194958E0,-4.919277146E-2,-5.051887429E-2,-5.078833044E-2,8.689959685E-2
3.128140958E0,-5.669868688E-2,-7.316512224E-2,-4.435346961E-2,1.026406668E-1
3.138086958E0,-5.861986724E-2,-6.970858639E-2,-5.618063271E-2,1.070132671E-1
3.148032958E0,-6.637271332E-2,-7.147299285E-2,-2.819118083E-2,1.015306282E-1
3.157978958E0,-6.875610237E-2,-6.748557550E-2,4.919730306E-2,1.081761487E-1
3.167924958E0,-6.254983113E-2,-5.264956313E-2,5.278924763E-2,9.731989796E-2
3.177870958E0,-5.703386481E-2,-5.522245679E-2,-3.043885052E-2,8.502296802E-2
3.187816958E0,-4.972015834E-2,-4.778266973E-2,-9.435476482E-2,1.168678712E-1
3.197762958E0,-4.874982204E-2,-4.458613398E-2,-7.968585491E-2,1.035099221E-1
3.207708958E0,-4.178406144E-2,-4.839742223E-2,-4.286359906E-2,7.697731090E-2
3.217654958E0,-2.377896782E-2,-5.143029076E-2,-4.151757002E-2,7.024402280E-2
3.227600958E0,-1.883738081E-2,-7.058401507E-2,-4.915403366E-2,8.805151404E-2
3.237546958E0,-1.990479916E-2,-6.496137818E-2,-8.140493631E-3,6.842842481E-2
3.247492958E0,-1.937324386E-2,-7.677668240E-2,2.089911819E-2,8.189477809E-2
3.257438958E0,-2.199412580E-2,-7.681716523E-2,3.661526442E-2,8.789366321E-2
3.267384958E0,-8.300339605E-3,-6.852678188E-2,-3.254150927E-2,7.631359838E-2
3.277330958E0,-7.683896895E-3,-6.861790708E-2,-7.415380418E-2,1.013224858E-1
3.287276958E0,-8.902365274E-3,-5.290276584E-2,-7.205816209E-2,8.983503473E-2
3.297222958E0,-9.746901928E-3,-4.456857406E-2,-3.283854783E-2,5.621147671E-2
3.307168958E0,-1.784760252E-2,-5.208884256E-2,-2.790057421E-2,6.172703197E-2
3.317114958E0,-2.407795926E-2,-5.560605241E-2,-3.314084888E-2,6.906588920E-2
3.327060958E0,-4.899501680E-2,-6.769994904E-2,-1.323283374E-2,8.461029879E-2
3.337006958E0,-5.983577290E-2,-6.586612517E-2,1.056708813E-2,8.961210585E-2
3.346952958E0,-6.578953578E-2,-6.706948215E-2,7.421286106E-3,9.424252725E-2
3.356898958E0,-7.041207952E-2,-5.452934247E-2,-2.745560110E-2,9.319399210E-2
3.366844958E0,-7.353518704E-2,-5.098470552E-2,-5.859027028E-2,1.069564570E-1
3.376790958E0,-7.297208190E-2,-4.816515986E-2,-7.056712210E-2,1.123589163E-1
3.386736958E0,-7.826293498E-2,-4.184770930E-2,-5.934280694E-2,1.067608847E-1
3.396682958E0,-7.804830562E-2,-4.428802648E-2,-4.811732233E-2,1.018245747E-1
3.406628208E0,-7.573813467E-2,-4.186832987E-2,-2.910919368E-2,9.130480407E-2
3.416574208E0,-6.602573588E-2,-4.916507028E-2,2.292108536E-4,8.232043776E-2
3.426520208E0,-5.463628713E-2,-5.056376081E-2,8.162128329E-3,7.488950605E-2
3.436466208E0,-4.362083176E-2,-4.314267570E-2,-8.155111670E-3,6.189162525E-2
3.446412208E0,-4.339537135E-2,-5.194583246E-2,-4.213445127E-2,7.972979210E-2
3.456358208E0,-2.880364697E-2,-6.413678373E-2,-5.081522763E-2,8.674885858E-2
3.466304208E0,-2.939863086E-2,-6.731119143E-2,-5.276059628E-2,9.043647775E-2
3.476250208E0,-1.984504108E-2,-7.214978065E-2,-4.303199887E-2,8.632015657E-2
3.486196208E0,-1.691998287E-2,-6.836338875E-2,-3.584694028E-2,7.902431188E-2
3.496142208E0,-8.889734375E-3,-7.377146937E-2,-1.563896298E-2,7.593309050E-2
3.506088208E0,-4.205230703E-3,-5.951583884E-2,9.209364653E-3,6.037078296E-2
3.516034208E0,5.509196338E-4,-6.075461715E-2,-7.250547409E-5,6.075715822E-2
3.525980208E0,-1.351933361E-2,-5.771031914E-2,-2.746554136E-2,6.532694145E-2
3.535926208E0,-2.082774332E-2,-7.382791327E-2,-3.435180724E-2,8.404999899E-2
3.545872208E0,-1.860558211E-2,-6.598756453E-2,-4.318168759E-2,8.102582614E-2
3.555818208E0,-3.549783410E-2,-6.377971072E-2,-4.946802914E-2,8.817615115E-2
3.565764208E0,-3.842201751E-2,-5.998389018E-2,-5.964569271E-2,9.290816524E-2
3.575710208E0,-4.307242689E-2,-6.002866706E-2,-3.809168637E-2,8.312431291E-2
3.585656208E0,-4.673905137E-2,-5.845421288E-2,-6.957601905E-3,7.516543189E-2
3.595602208E0,-6.724555643E-2,-5.433367088E-2,1.250310123E-2,8.735239087E-2
3.605548208E0,-6.484220462E-2,-5.387775251E-2,2.326607108E-3,8.433704296E-2
3.615494208E0,-6.146832464E-2,-4.317679969E-2,-3.554580867E-2,8.310292101E-2
3.625440208E0,-6.628322351E-2,-4.617775521E-2,-6.069292903E-2,1.010419835E-1
3.635386208E0,-6.582027021E-2,-3.941859319E-2,-5.769915462E-2,9.599648901E-2
3.645332208E0,-5.999671751E-2,-3.512792462E-2,-5.455510676E-2,8.837328144E-2
3.655278208E0,-5.673109781E-2,-5.155920359E-2,-4.886693537E-2,9.091065013E-2
3.665224208E0,-5.876868345E-2,-5.889281801E-2,-3.793965876E-2,9.144145599E-2
3.675170208E0,-5.963741067E-2,-6.936482493E-2,-9.647905827E-4,9.148240547E-2
3.685115208E0,-4.983254822E-2,-6.693819389E-2,2.223696113E-2,8.636253298E-2
3.695061208E0,-4.046441796E-2,-6.575339268E-2,-8.000160456E-3,7.762010266E-2
3.705007208E0,-3.007289933E-2,-7.426586059E-2,-4.422424614E-2,9.151820185E-2
3.714953208E0,-1.684857603E-2,-6.656959089E-2,-5.560292780E-2,8.835762857E-2
3.724899208E0,-1.267926687E-2,-6.090869129E-2,-5.350670099E-2,8.205851287E-2
3.734845208E0,-1.480640399E-2,-5.894619212E-2,-5.171102107E-2,7.979920341E-2
3.744791208E0,-2.384517384E-2,-6.362591067E-2,-4.647133112E-2,8.231909524E-2
3.754737208E0,-2.006327241E-2,-5.388808563E-2,-2.207382381E-2,6.159313574E-2
3.764683208E0,-1.713621564E-2,-6.006658260E-2,1.564714909E-2,6.439314797E-2
3.774629208E0,-1.058552741E-2,-6.088232400E-2,1.280189395E-2,6.310783830E-2
3.784575208E0,-1.054898917E-2,-6.682521472E-2,-2.761406064E-2,7.307138181E-2
3.794521208E0,-2.393141570E-2,-6.884073168E-2,-4.886868954E-2,8.774911859E-2
3.804467208E0,-4.002493118E-2,-6.792702201E-2,-5.096667051E-2,9.388118522E-2
3.814413208E0,-4.452291096E-2,-6.545476441E-2,-3.929153502E-2,8.837669664E-2
3.824359208E0,-4.587887113E-2,-5.813625226E-2,-3.944063902E-2,8.390624917E-2
3.834305208E0,-4.188010196E-2,-5.162876719E-2,-2.971145689E-2,7.281650371E-2
3.844251208E0,-4.680734502E-2,-5.422144088E-2,-1.399355650E-2,7.298432587E-2
3.854197208E0,-4.321043031E-2,-4.079399535E-2,-2.618967891E-3,5.948235316E-2
3.864143208E0,-4.690259068E-2,-4.060397912E-2,-1.085360169E-2,6.297885997E-2
3.874089208E0,-6.865818892E-2,-4.674827901E-2,-2.896593690E-2,8.796802826E-2
3.884035208E0,-6.132747527E-2,-4.952784433E-2,-3.854601502E-2,8.774885675E-2
3.893981208E0,-6.356611833E-2,-4.585231198E-2,-4.947796941E-2,9.268848564E-2
3.903927208E0,-5.670395394E-2,-5.533766521E-2,-3.870155096E-2,8.817826053E-2
3.913873208E0,-5.646855326E-2,-5.623107408E-2,-2.777427435E-2,8.439218871E-2
3.923819208E0,-4.301159300E-2,-5.745904419E-2,-2.957170844E-2,7.762747472E-2
3.933765208E0,-4.277177037E-2,-6.395773103E-2,-1.729840279E-2,7.886222440E-2
3.943711208E0,-3.780538750E-2,-5.989854824E-2,-8.915834427E-3,7.139030403E-2
3.953657208E0,-2.909322576E-2,-6.124722680E-2,-1.759778023E-2,7.005226938E-2
3.963603208E0,-1.749633332E-2,-5.613794804E-2,-3.616093576E-2,6.903045824E-2
3.973549208E0,-1.486860603E-2,-5.076285850E-2,-5.427268624E-2,7.578566963E-2
3.983495208E0,-6.784853227E-3,-5.928781570E-2,-5.307751536E-2,7.986427212E-2
3.993441208E0,-9.397115093E-4,-5.530318491E-2,-4.349977612E-2,7.036729242E-2
4.003387208E0,-5.167083973E-3,-6.451546404E-2,-3.556685865E-2,7.385083135E-2
4.013333208E0,-1.255106667E-2,-6.933852159E-2,-1.910226882E-2,7.300860583E-2
4.023279208E0,-1.129919607E-2,-7.314962712E-2,-1.655814528E-2,7.584663443E-2
4.033225208E0,-1.624578748E-2,-7.084235237E-2,-1.012386918E-2,7.338294916E-2
4.043171208E0,-1.672496680E-2,-6.499691829E-2,-1.581379473E-2,6.895215737E-2
4.053117208E0,-3.320245706E-2,-5.058639136E-2,-4.350679278E-2,7.452668760E-2
4.063063208E0,-3.704778707E-2,-4.233703902E-2,-5.233901203E-2,7.683967452E-2
4.073009208E0,-4.061555478E-2,-4.287308251E-2,-6.042103350E-2,8.448920513E-2
4.082955208E0,-5.833577022E-2,-4.305548823E-2,-4.650115192E-2,8.613474493E-2
4.092901208E0,-6.090810200E-2,-3.919988905E-2,-3.317768633E-2,7.966923535E-2
4.102847208E0,-6.243470494E-2,-5.556668420E-2,-1.955718219E-2,8.583840719E-2
4.112793208E0,-6.657758970E-2,-5.845889065E-2,-9.881794453E-5,8.860037874E-2
4.122739208E0,-5.487907905E-2,-5.193057488E-2,-3.541073799E-3,7.563753783E-2
4.132685208E0,-6.115377185E-2,-5.231764228E-2,-2.449632525E-2,8.412484446E-2
4.142631208E0,-5.341516466E-2,-5.264998340E-2,-3.347706378E-2,8.213351549E-2
4.152577208E0,-4.637218427E-2,-5.389976179E-2,-5.114091754E-2,8.758400106E-2
4.162523208E0,-4.688736965E-2,-5.619667601E-2,-4.155966997E-2,8.416470754E-2
4.172469208E0,-3.535870462E-2,-4.441738699E-2,-4.829507768E-2,7.453560752E-2
4.182415208E0,-2.956225011E-2,-4.228753868E-2,-4.500192583E-2,6.846412117E-2
4.192361208E0,-1.489908235E-2,-4.995050666E-2,-2.150372028E-2,5.638657426E-2
4.202307208E0,-1.608820274E-2,-5.162234439E-2,-8.032904863E-3,5.466465282E-2
4.212253208E0,-1.277787925E-2,-5.675128441E-2,-1.057936728E-2,5.912618280E-2
4.222199208E0,-2.097705061E-2,-7.124297800E-2,-2.090964317E-2,7.715446678E-2
4.232144208E0,-1.440622374E-2,-7.035612898E-2,-3.842263877E-2,8.144828628E-2
4.242090208E0,-1.025181814E-2,-6.348960659E-2,-4.800447106E-2,8.025247138E-2
4.252036208E0,-2.151005172E-2,-5.820653762E-2,-3.468217492E-2,7.108823112E-2
4.261982208E0,-1.084861557E-2,-5.338094017E-2,-3.213805139E-2,6.324611910E-2
4.271928208E0,-1.477226858E-2,-4.739846198E-2,-2.600081384E-2,5.604352271E-2
4.281874208E0,-1.916009458E-2,-4.782143494E-2,-1.507412195E-2,5.367707161E-2
4.291820208E0,-2.519680799E-2,-5.123993648E-2,-1.005136371E-3,5.710884802E-2
4.301766208E0,-2.618562012E-2,-5.289088869E-2,-6.993854642E-3,5.943102565E-2
4.311712208E0,-2.911253299E-2,-4.542887307E-2,-2.540673673E-2,5.963911767E-2
4.321658208E0,-4.409166510E-2,-4.564874665E-2,-5.115378141E-2,8.151436901E-2
4.331604208E0,-5.888376396E-2,-4.669166151E-2,-5.190164030E-2,9.133011102E-2
4.341550208E0,-8.136053402E-2,-4.556939811E-2,-4.486685514E-2,1.034849807E-1
4.351496208E0,-8.613921669E-2,-4.985650353E-2,-5.040767670E-2,1.115641944E-1
4.361442208E0,-1.034794453E-1,-4.755682102E-2,-2.840401947E-2,1.173730598E-1
4.371388208E0,-9.155477992E-2,-4.464232206E-2,-1.283873141E-2,1.026647343E-1
4.381334208E0,-7.805504819E-2,-3.214337784E-2,-5.502814651E-3,8.459354737E-2
4.391280208E0,-6.892782778E-2,-2.330869180E-2,-4.153862000E-3,7.288069104E-2
4.401226208E0,-5.502495795E-2,-3.299150733E-2,-1.343456268E-2,6.554901241E-2
4.411171708E0,-5.107060477E-2,-3.613489738E-2,-4.996036470E-2,8.006232273E-2
4.421117708E0,-3.620998613E-2,-4.772526652E-2,-6.178635836E-2,8.606054984E-2
4.431063708E0,-3.116757805E-2,-6.500298478E-2,-6.208632052E-2,9.513946156E-2
4.441009708E0,-2.066575033E-3,-7.402004912E-2,-3.409336030E-2,8.152052270E-2
4.450955708E0,1.455817598E-2,-7.603334597E-2,-1.942445040E-2,7.981428106E-2
4.460901708E0,2.240794650E-2,-8.152199026E-2,3.926990032E-3,8.463670725E-2
4.470847708E0,2.659549851E-2,-6.410904600E-2,-2.212001681E-3,6.944194174E-2
4.480793708E0,1.724890702E-2,-6.046488762E-2,-1.852924168E-2,6.555044031E-2
4.490739708E0,6.671947148E-4,-5.800574058E-2,-1.807900608E-2,6.076151372E-2
4.500685708E0,-1.411121801E-2,-5.397440515E-2,-5.250624239E-2,7.661115047E-2
4.510631708E0,-2.223043783E-2,-5.589736252E-2,-6.178752780E-2,8.623459917E-2
4.520577708E0,-2.397766809E-2,-4.370795527E-2,-5.205834568E-2,7.207902105E-2
4.530523708E0,-1.602505737E-2,-4.871943022E-2,-2.511554539E-2,5.710670683E-2
4.540469708E0,-1.880581270E-2,-4.586374146E-2,-1.748142064E-2,5.256178687E-2
4.550415708E0,-4.972020402E-2,-4.610913265E-2,-4.607605934E-3,6.796602706E-2
4.560361708E0,-6.232374488E-2,-5.339702002E-2,-1.179324925E-2,8.291303668E-2
4.570307708E0,-7.480039660E-2,-5.461364287E-2,-2.616336644E-2,9.624069338E-2
4.580253708E0,-6.521480016E-2,-4.424567071E-2,-3.230060399E-2,8.517029150E-2
4.590199708E0,-6.256115098E-2,-4.373608586E-2,-3.918686986E-2,8.580415833E-2
4.600145708E0,-4.789880548E-2,-3.444933697E-2,-3.334900975E-2,6.777321621E-2
4.610091708E0,-3.937730180E-2,-3.472885215E-2,-3.799169898E-2,6.480767130E-2
4.620037708E0,-4.799080320E-2,-4.096559286E-2,-4.038905740E-2,7.491710717E-2
4.629983708E0,-5.328429210E-2,-4.565028154E-2,-2.437353373E-2,7.427807978E-2
4.639929708E0,-3.955087274E-2,-6.031835091E-2,-2.063306987E-2,7.502198720E-2
4.649875708E0,-2.743340452E-2,-5.846037987E-2,-1.719139874E-2,6.682628142E-2
4.659821708E0,-2.342069339E-2,-5.434791433E-2,-3.260992169E-2,6.756945807E-2
4.669767708E0,-7.905682242E-3,-6.010681875E-2,-3.306015730E-2,6.905290343E-2
4.679713708E0,-1.158571878E-2,-5.704851483E-2,-3.560545027E-2,6.823862552E-2
4.689659708E0,-1.114641701E-2,-6.427969334E-2,-3.650475204E-2,7.475773210E-2
4.699605708E0,-1.700259763E-2,-6.908832472E-2,-4.533638656E-2,8.436630183E-2
4.709551708E0,-1.688532898E-2,-6.958764953E-2,-3.979907334E-2,8.192387649E-2
4.719497708E0,-1.397112009E-2,-6.037054645E-2,-2.034246325E-2,6.521971241E-2
4.729443708E0,-4.735237404E-3,-5.210274797E-2,-1.794978261E-2,5.531106142E-2
4.739389708E0,-6.512199389E-3,-4.289564911E-2,-2.378822744E-2,4.948055394E-2
4.749335708E0,-1.013775403E-2,-4.826711155E-2,-2.244102895E-2,5.418567979E-2
4.759281708E0,-2.843988849E-2,-5.486299921E-2,-2.917526722E-2,6.833719453E-2
4.769227708E0,-4.455080400E-2,-4.852665483E-2,-3.456406116E-2,7.439277311E-2
4.779172708E0,-5.058524019E-2,-4.684803799E-2,-5.073102772E-2,8.559931286E-2
4.789118708E0,-4.420480415E-2,-4.953771151E-2,-4.249873281E-2,7.883014564E-2
4.799064708E0,-3.778797833E-2,-4.959122267E-2,-2.513601065E-2,6.722380310E-2
4.809010708E0,-3.426000138E-2,-3.374477489E-2,-1.585647941E-2,5.063482464E-2
4.818956708E0,-4.277420062E-2,-3.852861956E-2,-2.094706535E-2,6.126064242E-2
4.828902708E0,-5.599075809E-2,-3.864178145E-2,-3.980784416E-2,7.882142299E-2
4.838848708E0,-6.029949821E-2,-3.828452571E-2,-1.855029166E-2,7.379598711E-2
4.848794708E0,-5.176749238E-2,-4.174709151E-2,-1.465838492E-2,6.809964144E-2
4.858740708E0,-3.926982723E-2,-3.968837824E-2,-3.516515493E-2,6.598389818E-2
4.868686708E0,-3.560720901E-2,-4.501942179E-2,-5.177884877E-2,7.730246342E-2
4.878632708E0,-3.569351711E-2,-4.993746920E-2,-5.148181021E-2,8.011338699E-2
4.888578708E0,-2.457004357E-2,-4.149307567E-2,-1.540682852E-2,5.062344056E-2
4.898524708E0,-2.375649716E-2,-5.535653162E-2,-6.375628531E-2,8.771305870E-2
4.908470708E0,-3.360833377E-2,-6.047215096E-2,2.096753061E-2,7.229134443E-2
4.918416708E0,-3.064755958E-2,-6.241455032E-2,-1.375849843E-2,7.088120539E-2
4.928362708E0,-2.058950355E-2,-5.561319698E-2,-4.031070471E-3,5.943908532E-2
4.938308708E0,-1.265566788E-2,-5.197991990E-2,-4.100243032E-2,6.740383738E-2
4.948254708E0,-6.362784756E-3,-4.968683378E-2,-6.375570059E-2,8.108055154E-2
4.958200708E0,-9.344460459E-3,-4.511470400E-2,-4.744021475E-2,6.613039720E-2
4.968146708E0,-2.208208985E-2,-4.635837936E-2,-1.331118643E-2,5.304626013E-2
4.978092708E0,-2.507401189E-2,-5.016548320E-2,-7.737737417E-2,9.556432289E-2
4.988038708E0,-2.102417323E-2,-6.257527566E-2,-4.818807364E-2,8.172986862E-2
4.997984708E0,-2.476185737E-2,-4.586572403E-2,3.294028938E-2,6.165936170E-2
5.007930708E0,-3.055135461E-2,-5.959333272E-2,1.183301032E-2,6.800566672E-2
5.017876708E0,-3.136620979E-2,-6.680092136E-2,-5.627535760E-2,9.280688598E-2
5.027822708E0,-3.675123045E-2,-5.907122204E-2,-3.741399407E-2,7.899284250E-2
5.037768708E0,-3.968297413E-2,-5.675044388E-2,-8.373212814E-3,6.975286380E-2
5.047714708E0,-4.644140982E-2,-6.569049857E-2,-5.080060959E-3,8.060926229E-2
5.057660708E0,-3.740403097E-2,-5.309946983E-2,-5.148356438E-2,8.288047195E-2
5.067606708E0,-4.621484849E-2,-3.400125752E-2,-7.094251335E-2,9.124000183E-2
5.077552708E0,-3.554389234E-2,-3.956839154E-2,-3.397056878E-2,6.311121481E-2
5.087498708E0,-3.240133826E-2,-2.819171073E-2,1.953554749E-3,4.299343730E-2
5.097444708E0,-4.788099431E-2,-3.946311425E-2,-3.022776604E-2,6.901916287E-2
5.107390708E0,-3.964587629E-2,-5.106330489E-2,-6.016434073E-2,8.831197262E-2
5.117336708E0,-4.784028308E-2,-4.962805099E-2,-3.546628654E-2,7.752092370E-2
5.127282708E0,-3.864452690E-2,-5.556415346E-2,-5.678231120E-3,6.791919403E-2
5.137228708E0,-3.521502757E-2,-5.383945324E-2,-3.337122917E-2,7.247360781E-2
5.147174708E0,-2.428362136E-2,-5.417327444E-2,-5.447733879E-2,8.057430342E-2
5.157120708E0,-7.856010601E-3,-5.250380301E-2,-6.106188834E-2,8.091304246E-2
5.167066708E0,-2.088659692E-2,-4.165779356E-2,-3.156970203E-2,5.628736787E-2
5.177012708E0,-1.630837096E-2,-4.598089591E-2,-2.513191760E-2,5.488004222E-2
5.186958708E0,-2.498817202E-2,-5.217381905E-2,-1.719841540E-2,6.035148405E-2
5.196904708E0,-1.494305753E-2,-4.541463875E-2,-2.662997425E-2,5.472604416E-2
5.206850708E0,-1.373828899E-2,-4.456501091E-2,-1.345736682E-2,4.853742374E-2
5.216796708E0,-7.648888975E-3,-5.990868037E-2,-2.393674672E-2,6.496555494E-2
5.226742708E0,8.665653539E-3,-5.767226656E-2,-3.381620228E-2,6.741453418E-2
5.236688708E0,-8.151802055E-3,-5.863538520E-2,-3.860741079E-2,7.067596793E-2
5.246634708E0,-3.571991409E-2,-7.254127001E-2,-2.184168935E-2,8.375683561E-2
5.256580708E0,-3.995257189E-2,-5.956757756E-2,-4.998433828E-2,8.742390045E-2
5.266525708E0,-3.906212774E-2,-5.784098614E-2,-3.157379508E-2,7.660505229E-2
5.276471708E0,-3.454100349E-2,-5.075408768E-2,-3.583758473E-3,6.149716793E-2
5.286417708E0,-1.257701826E-2,-3.210877877E-2,-2.663582146E-2,4.357318037E-2
5.296363708E0,-1.056672724E-2,-3.367740400E-2,-2.079913080E-2,4.096861124E-2
5.306309708E0,-7.519172151E-3,-2.282735632E-2,-1.541267574E-2,2.855129979E-2
5.316255708E0,-3.308774200E-2,-2.843203129E-2,-3.068501830E-2,5.333619242E-2
5.326201708E0,-1.297143854E-1,-3.412519109E-2,-3.508329391E-6,1.341281121E-1
5.336147708E0,-6.107247728E-3,-2.747520754E-2,-4.746477306E-2,5.518233581E-2
5.346093708E0,2.335867453E-1,2.464780103E-1,1.255221784E-2,3.398113231E-1
5.356039708E0,1.994453099E0,1.072943388E0,-3.072711825E-2,2.264949190E0
5.365985708E0,1.196091085E0,1.010365974E0,7.732357979E-2,1.567626302E0
5.375931708E0,-3.900482959E-2,5.054348193E-1,1.861811936E-2,5.072793784E-1
5.385877708E0,-2.832870916E-1,1.231115724E-1,9.462256730E-2,3.230502527E-1
5.395823708E0,-4.477595287E-1,-5.847492299E-1,1.854117000E-1,7.594720244E-1
5.405770083E0,-3.906727968E-1,-1.097468730E0,5.846607542E-1,1.303415147E0
5.415716083E0,3.241487685E-1,-5.193589036E-1,5.935093457E-1,8.526778045E-1
5.425662083E0,1.752846514E-1,-1.347211734E-1,8.482275081E-1,8.765639789E-1
5.435608083E0,4.594413519E-1,7.890875995E-1,2.386225319E-1,9.437617858E-1
5.445554083E0,7.701353118E-1,8.007864162E-1,-7.906254172E-2,1.113830404E0
5.455500083E0,1.007476792E0,4.451246271E-1,-1.865600932E-1,1.117116864E0
5.465446083E0,3.583818773E-1,2.453812006E-1,-1.280516839E-1,4.528208667E-1
5.475392083E0,-3.921473915E-1,8.077725142E-3,-2.531516933E-1,4.668303826E-1
5.485338083E0,-1.077900511E0,-5.376447915E-1,-1.605692196E-1,1.215201180E0
5.495284083E0,-1.167699929E0,-8.669543856E-1,-1.399343956E-1,1.461066277E0
5.505230083E0,-8.046224821E-1,-7.241597515E-1,-2.508946681E-1,1.111203320E0
5.515176083E0,-5.445374893E-1,-6.180532526E-1,6.669041812E-2,8.264130397E-1
5.525122083E0,-4.359216213E-2,-8.917033837E-1,8.807924062E-1,1.254125378E0
5.535068083E0,4.650260641E-1,-8.090738942E-1,1.222220099E0,1.537748932E0
5.545014083E0,6.815077485E-1,-3.426448638E-1,2.896383190E-1,8.159342313E-1
5.554960083E0,1.201568830E-1,-1.567644364E-1,-5.615168899E-1,5.952427931E-1
5.564906083E0,-4.622147959E-1,-2.398231114E-1,-6.374084866E-1,8.230718202E-1
5.574852083E0,-9.083659749E-1,1.833651654E-2,-5.626693761E-1,1.068672915E0
5.584798083E0,-8.768127181E-1,2.515352306E-1,-1.973037672E-1,9.332734280E-1
5.594744083E0,-3.527827663E-1,3.778945475E-1,1.671461678E-1,5.433210935E-1
5.604690083E0,8.629759401E-4,6.266308987E-1,4.384487879E-1,7.647904076E-1
5.614636083E0,-1.304690690E-1,3.295020041E-1,3.042206901E-1,4.670588581E-1
5.624582083E0,-3.081328429E-1,3.108910658E-2,2.170457214E-1,3.781814731E-1
5.634528083E0,-1.689566119E-1,-1.807377282E-1,-6.189043880E-2,2.550350751E-1
5.644474083E0,4.761305114E-1,8.496708202E-1,-1.136114001E-2,9.740481723E-1
5.654420083E0,-6.222776467E-1,8.888712848E-1,4.344949007E-2,1.085914126E0
5.664366083E0,2.314846896E-2,-4.282308151E-1,-2.723521954E-1,5.080287403E-1
5.674312083E0,-9.687760448E-1,-5.978760463E-1,-6.490900540E-1,1.310458199E0
5.684258083E0,-1.208487694E0,-8.960678186E-1,-5.442149788E-1,1.599859364E0
5.694204083E0,1.629686245E-1,4.904600635E-1,1.454886657E-1,5.369141443E-1
5.704150083E0,-3.318429369E-1,-8.767555616E-1,2.595555639E-1,9.727225403E-1
5.714096083E0,1.024633911E-1,-8.189670177E-1,2.640649366E-1,8.665656428E-1
5.724042083E0,2.927255027E-1,5.341153756E-1,3.275750542E-1,6.915727514E-1
5.733988083E0,8.274950355E-2,1.149880686E0,2.540995270E-1,1.180525155E0
5.743933083E0,9.018260103E-1,8.485564870E-1,5.829463506E-1,1.368636077E0
5.753879083E0,1.290291776E0,1.109866143E0,6.372874492E-1,1.817358251E0
5.763825083E0,4.343878967E-1,2.003694989E-1,-8.960273266E-3,4.784569650E-1
5.773771083E0,-2.628098318E-1,8.901422868E-2,-8.186101913E-4,2.774765048E-1
5.783717083E0,-5.012646948E-1,-1.088776771E-1,-1.371329945E-1,5.309671374E-1
5.793663083E0,-3.076793182E-1,6.175634113E-2,-5.676400942E-1,6.486105804E-1
5.803609083E0,-1.805751756E-2,-5.723819302E-2,-7.544598037E-1,7.568433656E-1
5.813555083E0,6.850758657E-2,-3.754468665E-1,-6.405326539E-1,7.456109708E-1
5.823501083E0,-9.968625605E-2,-2.710174405E-1,-2.802506143E-1,4.024030436E-1
5.833447083E0,-7.208038151E-2,5.264920682E-2,2.649695009E-1,2.796003519E-1
5.843393083E0,1.061383662E-1,1.188456540E-1,1.099291161E0,1.110779320E0
5.853339083E0,6.981724593E-1,4.346507290E-1,6.455314386E-1,1.045503169E0
5.863285083E0,5.254122336E-1,7.326479352E-1,-3.342870730E-1,9.615502375E-1
5.873231083E0,-5.454847017E-1,-2.635358002E-1,-5.313125128E-1,8.057900868E-1
5.883177083E0,-1.665925826E0,-1.195942712E0,-2.819486457E-1,2.070044170E0
5.893123083E0,-2.139537430E0,-1.350525260E0,-1.483906388E-2,2.530169775E0
5.903069083E0,-2.235521522E0,-1.209556492E0,2.878198349E-1,2.558011657E0
5.913015083E0,-1.511861634E0,-1.043356842E0,5.634470558E-1,1.921403572E0
5.922961083E0,-3.777122971E-1,-3.739073312E-1,4.437451959E-1,6.923749494E-1
5.932907083E0,-2.202909261E-2,-5.988314448E-2,7.193455195E-1,7.221698196E-1
5.942853083E0,2.356389901E-1,-1.314573033E-1,6.511576295E-1,7.048496398E-1
5.952799083E0,3.216591337E-1,-3.624663401E-1,4.998457217E-1,6.961983852E-1
5.962745083E0,-3.737923238E-1,-9.544061469E-1,-7.427940238E-1,1.265841521E0
5.972691083E0,-5.320559862E-1,-1.071560887E0,-1.650556127E0,2.038544048E0
5.982637083E0,-3.966429502E-2,-8.307762737E-1,-9.123252708E-1,1.234544399E0
5.992583083E0,2.003785256E-1,-6.892050232E-1,7.751589471E-1,1.056421559E0
6.002529083E0,-9.021420524E-2,-5.066789241E-1,2.134450060E0,2.195618180E0
6.012475083E0,2.829760015E-3,-5.525452146E-1,2.377086706E0,2.440462134E0
6.022421083E0,3.278335011E-1,-9.739682262E-1,1.645692998E0,1.940204720E0
6.032367083E0,1.585966614E-1,-9.873794731E-1,1.326968874E0,1.661600890E0
6.042313083E0,-4.420618556E-1,-6.961881336E-1,1.841789315E0,2.017990209E0
6.052259083E0,-8.533944002E-1,-3.955277400E-1,1.609983467E0,1.864610136E0
6.062205083E0,-5.372220743E-1,-3.885895070E-1,1.426179752E0,1.572767639E0
6.072151083E0,-2.774504193E-1,-4.735907002E-1,1.326040921E0,1.435148568E0
6.082097083E0,-1.094378038E-1,-2.562886515E-1,1.468810632E0,1.495013437E0
6.092043083E0,-1.975431376E-1,-1.409295917E-2,1.057257866E0,1.075646828E0
6.101989083E0,-4.836030337E-1,4.236395448E-2,1.180743459E0,1.276644710E0
6.111935083E0,-9.169071490E-1,-2.584391843E-1,1.170689172E0,1.509311985E0
6.121881083E0,-2.889404538E-1,-2.313946424E-1,9.810318089E-1,1.048548271E0
6.131827083E0,6.283993891E-1,2.863384429E-1,1.155599847E0,1.346211909E0
6.141773083E0,2.947289050E-2,6.059454963E-1,1.092444656E0,1.249589501E0
6.151719083E0,6.447923505E-1,6.369683374E-1,9.486978757E-1,1.312064594E0
6.161664083E0,1.067571185E0,4.410355961E-1,6.453840888E-1,1.323155794E0
6.171610083E0,6.255579346E-1,1.765062444E-1,8.064082217E-1,1.035746786E0
6.181556083E0,3.219330758E-1,7.424925998E-2,1.561427019E0,1.595997555E0
6.191502083E0,2.035678893E-1,5.571080893E-3,2.661656073E0,2.669435142E0
6.201448083E0,8.043546796E-2,4.329980135E-2,2.725956734E0,2.727486912E0
6.211394083E0,1.652048922E-1,1.102002076E0,1.582415015E0,1.935391049E0
6.221340083E0,6.813099664E-1,1.664411982E0,9.358989054E-1,2.027401607E0
6.231286083E0,1.021282287E0,1.415286097E0,-2.449129665E-1,1.762394566E0
6.241232083E0,4.669668281E-1,1.126609060E0,-1.068106205E0,1.621159110E0
6.251178083E0,8.929692328E-1,-1.588439986E-1,-5.918943447E-1,1.083034802E0
6.261124083E0,2.047897820E0,-1.661899580E0,-1.632292934E0,3.101640843E0
6.271070083E0,2.799314148E0,-1.771381822E0,-1.427450352E0,3.607155079E0
6.281016083E0,2.955275761E0,-1.025788736E0,-2.075298457E0,3.754032638E0
6.290962083E0,1.151024986E0,-1.819095102E-1,-2.842014610E0,3.071643962E0
6.300908083E0,-2.715563893E0,-4.308908232E-1,-7.435728729E-2,2.750542340E0
6.310854083E0,-1.846603328E0,2.426543333E-1,1.900333393E-1,1.872147870E0
6.320800083E0,-8.573105729E-1,2.542264116E-1,8.425849450E-1,1.228642290E0
6.330746083E0,-4.346393269E-1,1.121205063E-1,9.810242075E-1,1.078837730E0
6.340692083E0,1.928563165E0,6.509542926E-1,-3.711227775E-2,2.035798294E0
6.350638083E0,3.016137967E0,1.069283177E0,-1.228345057E0,3.427723199E0
6.360584083E0,2.981663369E0,1.313266655E0,-2.213072891E0,3.938613636E0
6.370530083E0,2.335633747E0,1.694854487E0,-2.141452686E0,3.593540919E0
6.380476083E0,2.428790710E0,2.364906371E0,-1.559612043E0,3.731513926E0
6.390422083E0,2.402687570E0,2.851423364E0,-1.765562673E0,4.125619264E0
6.400368083E0,1.397849700E0,2.563860222E0,-2.235088243E0,3.677360803E0
6.410314250E0,8.315968573E-2,1.393616315E0,-2.697152181E0,3.037056446E0
6.420260250E0,-1.763529596E0,-2.766212475E-1,-3.021901860E0,3.509764494E0
6.430206250E0,-2.338045139E0,-1.229945879E0,-2.141573723E0,3.400817541E0
6.440152250E0,-1.878921181E0,-9.613806327E-1,-6.800574929E-1,2.217448020E0
6.450098250E0,-1.463395818E0,-3.225229137E-1,5.267581165E-2,1.499440926E0
6.460044250E0,-8.639126641E-1,1.940856059E-1,-1.109322059E-1,8.923677873E-1
6.469990250E0,-2.514147779E-1,8.594476571E-1,-1.651165992E-1,9.105620007E-1
6.479936250E0,4.500657436E-1,1.015818430E0,-5.288338780E-2,1.112314213E0
6.489882250E0,9.354059851E-1,8.764985034E-1,-1.861461103E-1,1.295331756E0
6.499828250E0,1.286019361E0,6.999924052E-1,-5.539494234E-1,1.565469619E0
6.509774250E0,1.794653156E0,3.130331750E-1,-7.437500435E-1,1.967723010E0
6.519720250E0,2.036753319E0,-3.601225934E-1,-9.206394267E-1,2.263985274E0
6.529666250E0,2.330030945E0,-5.542673658E-1,-4.598601222E-1,2.438796394E0
6.539612250E0,2.447528697E0,-1.744515328E-1,5.079324210E-1,2.505758449E0
6.549558250E0,1.801459900E0,3.052432951E-1,2.325582091E0,2.957492739E0
6.559504250E0,-5.234491771E-1,1.975427721E-1,7.884093225E0,7.903919798E0
6.569450250E0,-4.721280777E0,5.322087447E-1,1.165494389E1,1.258616126E1
6.579396250E0,-4.045096479E0,2.838400446E0,3.707965613E0,6.178052412E0
6.589342250E0,-2.228734366E0,4.442855371E0,-2.381722963E-1,4.976238214E0
6.599288250E0,-1.396618861E0,4.013690207E0,-2.874140382E-1,4.259443643E0
6.609234250E0,-4.046308315E-1,1.394794822E0,2.203669399E-1,1.468924876E0
6.619180250E0,1.111757424E-1,-4.783237289E-1,1.224143833E-1,5.061016860E-1
6.629126250E0,2.328326190E-1,-8.561705120E-1,-1.322930787E0,1.592917086E0
6.639072250E0,1.093654445E-1,-6.042976047E-1,-1.904618817E0,2.001176962E0
6.649017250E0,2.728572486E-1,-3.796730147E-1,-2.964801461E-1,5.536272692E-1
6.658963250E0,3.689848892E-1,3.485424386E-1,1.719812304E-1,5.359190457E-1
6.668909250E0,-2.774569243E-1,6.391467176E-1,-3.548844749E-1,7.819423649E-1
6.678855250E0,-2.115290050E0,2.293348145E-1,-1.075883002E0,2.384233774E0
6.688801250E0,-3.589007811E-1,3.071070220E-1,-1.954651102E0,2.010916564E0
6.698747250E0,2.071089485E0,1.045113784E-1,-1.392075866E-1,2.078391935E0
6.708693250E0,1.412871927E0,-5.353320350E-1,1.280897493E0,1.980779104E0
6.718639250E0,1.764176408E-1,-6.200138971E-2,5.999260801E-1,6.283937125E-1
6.728585250E0,3.833490130E-1,1.207558498E0,-1.451325703E-1,1.275232314E0
6.738531250E0,5.878043635E-1,1.787148693E0,-1.142785674E-1,1.884800788E0
6.748477250E0,6.952631772E-1,1.860445734E0,-6.745347977E-3,1.986125553E0
6.758423250E0,4.861289578E-1,1.424305281E0,-8.779044664E-1,1.742321195E0
6.768369250E0,2.261942385E-1,1.051743211E0,-2.116128395E0,2.373884369E0
6.778315250E0,4.917612883E-1,9.374748762E-1,-2.697421737E0,2.897718471E0
6.788261250E0,1.102272656E0,1.250151079E0,-2.603574511E0,3.091356169E0
6.798207250E0,2.049055569E0,1.489175753E0,-2.436006759E0,3.514313884E0
6.808153250E0,2.856989329E0,1.592909890E0,-2.427285052E0,4.073261920E0
6.818099250E0,3.250941975E0,8.827306120E-1,-2.151947853E0,3.997338692E0
6.828045250E0,3.410689661E0,-1.853421181E-3,-1.544548447E0,3.744120364E0
6.837991250E0,2.586587472E0,-6.142039575E-1,-1.679630823E0,3.144652756E0
6.847937250E0,-4.521122691E-1,-2.218736797E0,-9.190343660E-1,2.443731295E0
6.857883250E0,-9.117300242E0,-4.972949324E0,4.058024381E0,1.115002020E1
6.867829250E0,-9.194391103E0,-7.523086131E-1,-3.146094382E-1,9.230480762E0
6.877775250E0,7.535486613E-1,2.131114808E0,-3.477564851E0,4.147643090E0
6.887721250E0,2.807133045E0,-1.273669457E0,3.679880852E-1,3.104455676E0
6.897667250E0,7.696362519E-1,-2.463931014E0,3.868868709E-2,2.581626003E0
6.907613250E0,-2.302706614E-1,-1.767437583E0,-9.095121753E-1,2.001017887E0
6.917559250E0,-7.339417778E-1,-1.500167787E0,-4.096617758E-1,1.719592014E0
6.927505250E0,-9.031832953E-1,-1.469808167E0,-6.066129559E-1,1.828675857E0
6.937451250E0,-6.972104461E-1,-1.461112480E0,-8.725121641E-1,1.839083892E0
6.947397250E0,-2.032842994E-2,-1.545303761E0,-6.512886071E-1,1.677067025E0
6.957343250E0,7.936005536E-1,-1.622823661E0,-3.415843982E-1,1.838488067E0
6.967289250E0,2.578563631E-1,-1.545699471E0,-3.520175850E-1,1.606111185E0
6.977235250E0,-5.074484177E-2,-1.699676393E0,-9.116721368E-1,1.929409486E0
6.987181250E0,-1.099683290E0,-1.955484038E0,-1.204373227E0,2.546318133E0
6.997127250E0,-8.290668402E-1,-1.420354902E0,-1.275944901E0,2.081536755E0
7.007073250E0,2.892303295E-1,-1.248026493E0,-1.493232697E0,1.967477623E0
7.017019250E0,2.341896846E-1,-1.800122641E0,-1.293660795E0,2.229090529E0
7.026965250E0,3.753129653E-1,-2.171785117E0,-9.998785543E-1,2.420179237E0
7.036911250E0,6.559764661E-1,-2.618375568E0,-5.689890468E-1,2.758612744E0
7.046857250E0,-1.381969831E0,-1.762452101E0,-6.125946575E-1,2.321928129E0
7.056803250E0,-2.136951207E0,-9.038606952E-1,-9.975156945E-1,2.525581552E0
7.066749250E0,-1.462100367E0,-5.054857998E-1,-9.331735182E-1,1.806672685E0
7.076695250E0,-7.120763341E-1,-5.429575351E-1,-8.506219429E-1,1.235076224E0
7.086641250E0,-6.091418767E-1,-6.655121054E-1,-9.987746000E-1,1.345923805E0
7.096587250E0,-4.299068829E-1,3.747261241E-2,1.357469121E0,1.424410944E0
7.106533250E0,5.852042529E-1,-4.073593616E-1,9.290377825E-1,1.171117786E0
7.116479250E0,4.231166576E-1,-8.141672576E-1,8.019105434E-2,9.210464888E-1
7.126425250E0,-3.009690535E-1,-7.581628454E-1,1.503125017E0,1.710198260E0
7.136371250E0,-2.815485500E-2,-7.435277031E-1,1.778365737E0,1.927747606E0
7.146317250E0,1.459612669E-1,-9.568404890E-1,1.405320395E0,1.706392049E0
7.156263250E0,2.040210485E-2,-1.013298060E0,1.385963187E0,1.716998300E0
7.166209250E0,2.141506188E-1,-1.099500783E0,1.639256383E0,1.985427901E0
7.176155250E0,3.939696763E-1,-1.479950747E0,1.707626706E0,2.293786234E0
7.186101250E0,7.396647401E-2,-1.110734235E0,1.655987606E0,1.995368771E0
7.196046250E0,8.867302537E-3,-5.848937657E-1,1.827923228E0,1.919240129E0
7.205993250E0,-1.296533825E-1,-4.226385015E-1,1.931311941E0,1.981262001E0
7.215939250E0,-2.833712002E-1,-3.450982824E-1,2.042027215E0,2.090279218E0
7.225885250E0,-1.800613515E-1,-3.579950474E-1,2.046412627E0,2.085278683E0
7.235830250E0,-1.446511251E-1,-6.232447761E-1,1.973456333E0,2.074581378E0
7.245776250E0,-3.516427054E-1,-6.756174096E-1,1.816902981E0,1.970088302E0
7.255722250E0,-5.355080362E-1,-4.188144225E-1,1.623589354E0,1.760175209E0
7.265668250E0,-5.019349319E-1,-4.419138479E-1,1.599955493E0,1.734094606E0
7.275614250E0,-6.222921185E-1,-7.192991804E-1,1.597331262E0,1.859060503E0
7.285560250E0,-3.935794477E-1,-8.161336032E-1,1.947226308E0,2.147712535E0
7.295506250E0,-4.027562141E-3,-8.169517748E-1,2.308201243E0,2.448513713E0
7.305452250E0,8.175518453E-2,-8.650025851E-1,2.578660110E0,2.721102964E0
7.315398250E0,2.896086444E-1,-1.141572962E0,2.722047286E0,2.965906846E0
7.325344250E0,4.306572269E-1,-1.480110084E0,2.649178700E0,3.065018644E0
7.335290250E0,4.469779752E-1,-1.841694590E0,2.557140017E0,3.182859303E0
7.345236250E0,3.509687407E-1,-1.868684753E0,2.508013465E0,3.147267594E0
7.355182250E0,4.340294623E-1,-2.180436072E0,2.901272632E0,3.655142395E0
7.365128250E0,9.079147160E-1,-2.856218081E0,2.962061455E0,4.213798633E0
7.375074250E0,1.299777421E0,-4.651004261E0,3.666535167E0,6.063393613E0
7.385020250E0,1.215359561E0,-4.971176448E0,3.748382737E0,6.343505914E0
7.394966250E0,1.464946207E0,-4.775299401E0,3.257118389E0,5.963084098E0
7.404912250E0,1.389262771E0,-4.627346719E0,3.094300330E0,5.737341130E0
7.414857958E0,1.163920581E0,-4.355667538E0,2.553779038E0,5.181538207E0
7.424803958E0,1.034016646E0,-3.953251047E0,2.222935975E0,4.651755433E0
7.434749958E0,9.865556735E-1,-4.059005544E0,1.827095262E0,4.559286698E0
7.444695958E0,1.127796337E-1,-3.485591909E0,1.033837429E0,3.637429041E0
7.454641958E0,-2.171711442E-1,-2.537879874E0,3.268371356E-1,2.568038176E0
7.464587958E0,-3.587763816E-2,-1.581398769E0,-4.270291758E-1,1.638433150E0
7.474533958E0,-3.949563208E-1,-8.470118719E-1,-1.555642954E0,1.814785003E0
7.484479958E0,-1.554947135E-1,-1.076544322E0,-2.410063832E0,2.644150896E0
7.494425958E0,4.387940660E-2,-3.532080781E-1,-3.430129314E0,3.448545847E0
7.504371958E0,1.956449121E-2,3.771711373E-1,-4.474617446E0,4.490528045E0
7.514317958E0,1.623170985E-1,6.505103427E-1,-4.934588081E0,4.979926714E0
7.524263958E0,6.051493979E-1,5.072792870E-1,-5.246306071E0,5.305399651E0
7.534209958E0,6.498284112E-1,4.387774014E-1,-5.566996028E0,5.621943379E0
7.544155958E0,7.239433314E-1,2.721481276E-1,-5.351675236E0,5.407271621E0
7.554101958E0,9.660724385E-1,-1.418446809E-1,-4.756335711E0,4.855527291E0
7.564047958E0,8.032138878E-1,-5.526109958E-1,-3.976455430E0,4.094231216E0
7.573993958E0,7.040414558E-1,-7.485541159E-1,-3.301127165E0,3.457375912E0
7.583939958E0,7.368674321E-1,-8.223570871E-1,-2.901838058E0,3.104820269E0
7.593885958E0,5.645476480E-1,-7.569536412E-1,-2.629556906E0,2.793968930E0
7.603831958E0,4.717716314E-1,-5.449815488E-1,-2.438824532E0,2.543115896E0
7.613777958E0,6.036723912E-1,-3.590693271E-1,-2.495755363E0,2.592710159E0
7.623723958E0,5.453579633E-1,-3.163916695E-1,-2.303099839E0,2.387841675E0
7.633669958E0,4.905755460E-1,-2.432546961E-1,-2.218012619E0,2.284604384E0
7.643615958E0,5.542495318E-1,-1.565211922E-1,-2.118980082E0,2.195852457E0
7.653561958E0,4.118354782E-1,-7.198448718E-2,-1.941486973E0,1.985991414E0
7.663507958E0,4.766790533E-1,-1.270693517E-1,-1.758239036E0,1.826136371E0
7.673453958E0,4.864810333E-1,-1.635308343E-1,-1.747203001E0,1.821022915E0
7.683399958E0,4.544599262E-1,-1.891825694E-1,-1.714148398E0,1.783431692E0
7.693345958E0,3.975290226E-1,-1.757520998E-1,-1.786777249E0,1.838883101E0
7.703291958E0,2.533270367E-1,-1.827430308E-2,-2.093228359E0,2.108580921E0
7.713237958E0,8.043934174E-2,2.303393662E-1,-2.238067399E0,2.251326808E0
7.723183958E0,-1.038790020E-1,4.446322185E-1,-2.380061184E0,2.423464441E0
7.733129958E0,-3.006459948E-1,4.705997032E-1,-2.568863100E0,2.628860917E0
7.743075958E0,-4.188110603E-1,6.440164250E-1,-2.678721172E0,2.786701810E0
7.753021958E0,-5.677854706E-1,8.451273143E-1,-2.750675839E0,2.933059510E0
7.762967958E0,-5.879313943E-1,7.937297040E-1,-2.811792691E0,2.980242994E0
7.772913958E0,-4.759031278E-1,5.453692192E-1,-2.905228566E0,2.994038141E0
7.782859958E0,-2.345391288E-1,5.288221836E-3,-2.705745249E0,2.715896522E0
7.792805958E0,-5.579888262E-2,-5.355236775E-1,-2.427791421E0,2.486779103E0
7.802751958E0,-8.832555458E-2,-1.007485197E0,-2.066059856E0,2.300311100E0
7.812697958E0,-4.255318500E-2,-1.129241769E0,-1.540083513E0,1.910197626E0
7.822643958E0,1.038016726E-1,-7.924900943E-1,-1.171964450E0,1.418561246E0
7.832589958E0,3.155134908E-1,-6.026467896E-1,-1.096952274E0,1.290750250E0
7.842535958E0,4.583720058E-1,-6.896837640E-1,-9.986933237E-1,1.297365386E0
7.852481958E0,6.582871395E-1,-1.004672686E0,-1.103894674E0,1.631346872E0
7.862427958E0,9.498797442E-1,-1.254540583E0,-1.212024894E0,1.986239650E0
7.872373958E0,8.510881121E-1,-1.493179488E0,-1.117117567E0,2.049850632E0
7.882319958E0,1.089568776E0,-2.155181363E0,-4.965718657E-1,2.465471647E0
7.892265958E0,1.514914173E0,-2.279340556E0,1.250532317E-1,2.739707399E0
7.902211958E0,1.565006977E0,-1.911989817E0,3.806204098E-1,2.499964759E0
7.912157958E0,1.551285901E0,-1.883753028E0,6.467254400E-1,2.524533068E0
7.922103958E0,1.374915458E0,-1.901242342E0,9.750331503E-1,2.540827543E0
7.932049958E0,7.395225066E-1,-1.504446780E0,1.344360833E0,2.148850786E0
7.941995958E0,2.706267551E-1,-1.159035087E0,1.352149324E0,1.801363086E0
7.951941958E0,-2.655931064E-1,-1.160177925E0,1.252224501E0,1.727604908E0
7.961887958E0,-6.589413699E-1,-1.225405077E0,1.224208152E0,1.853242276E0
7.971833958E0,-7.809186738E-1,-1.436735438E0,1.377392923E0,2.138049101E0
7.981779958E0,-6.754959337E-1,-1.568699494E0,1.667992525E0,2.387323170E0
7.991725958E0,-6.804040866E-1,-1.300905495E0,1.623903934E0,2.189147965E0
8.001671958E0,-4.915271804E-1,-1.062903938E0,1.856069385E0,2.194620084E0
8.011617958E0,-1.382797797E-1,-9.967514634E-1,2.124291108E0,2.350584499E0
8.021563958E0,1.458902232E-1,-8.110330769E-1,2.116218442E0,2.270999582E0
8.031509958E0,3.004337409E-1,-6.354376826E-1,2.092626681E0,2.207516230E0
8.041455958E0,5.224351238E-1,-5.939554882E-1,2.238852096E0,2.374485268E0
8.051401958E0,7.308953784E-1,-7.125191876E-1,2.523209209E0,2.721851642E0
8.061347958E0,7.533415237E-1,-8.303119317E-1,2.737740628E0,2.958405838E0
8.071293958E0,7.959031141E-1,-8.306183258E-1,3.213198783E0,3.412921767E0
8.081239958E0,8.211212781E-1,-8.507368407E-1,3.648342724E0,3.835152925E0
8.091185958E0,8.243096186E-1,-1.161649669E0,3.962993678E0,4.211203532E0
8.101131958E0,1.090468443E0,-1.563290527E0,4.299894456E0,4.703412701E0
8.111077958E0,1.344865009E0,-1.886800597E0,4.742560256E0,5.278309973E0
8.121023958E0,1.533658592E0,-2.367240287E0,5.265633457E0,5.973510773E0
8.130969958E0,1.854911929E0,-3.064232486E0,5.164128132E0,6.284778306E0
8.140914958E0,2.096010464E0,-3.628492012E0,5.202506332E0,6.680216036E0
8.150861958E0,2.297699643E0,-3.681568943E0,5.342609128E0,6.883084034E0
8.160807958E0,2.167515041E0,-4.505304219E0,5.358328198E0,7.328544783E0
8.170753958E0,1.526211871E0,-5.309853026E0,5.492962092E0,7.790795490E0
8.180699958E0,1.555939261E0,-5.879117476E0,4.995749956E0,7.870354942E0
8.190644958E0,1.689882746E0,-6.111606279E0,4.240552234E0,7.628218550E0
8.200590958E0,1.409419585E0,-5.755997334E0,3.425882481E0,6.845044898E0
8.210536958E0,1.163132377E0,-4.949479185E0,2.354342791E0,5.602959138E0
8.220482958E0,9.959990729E-1,-3.699377223E0,1.654959666E0,4.173283777E0
8.230428958E0,9.693518494E-1,-2.283658724E0,6.233418399E-1,2.557986557E0
8.240374958E0,3.842444410E-1,-1.103873624E0,-1.723776716E0,2.082687431E0
8.250320958E0,-3.738888759E-1,-3.772155762E-1,-2.968036725E0,3.015182662E0
8.260266958E0,-3.537726268E-1,-2.473524249E-1,-3.384018756E0,3.411439760E0
8.270212958E0,4.107763282E-1,-9.476757824E-1,-4.053087869E0,4.182624517E0
8.280158958E0,4.838712016E-1,-1.314557574E0,-4.741220074E0,4.943820461E0
8.290104958E0,-1.695715197E-1,-8.094189531E-1,-5.746097998E0,5.805304104E0
8.300050958E0,-7.866653173E-1,-9.249301136E-2,-6.775208538E0,6.821352359E0
8.309996958E0,-9.133681217E-1,-5.863587856E-2,-7.060618735E0,7.119692157E0
8.319942958E0,-2.538527745E-1,-9.237752885E-1,-5.946636445E0,6.023311965E0
8.329888958E0,-9.098362572E-2,-5.525952083E-1,-5.437355656E0,5.466120746E0
8.339834958E0,-3.957062993E-2,-2.771562678E-1,-5.500320813E0,5.507441373E0
8.349780958E0,1.736052945E-2,-7.633908409E-1,-5.115574608E0,5.172250045E0
8.359726958E0,-2.216584437E-2,-9.281916904E-1,-4.176744493E0,4.278694392E0
8.369672958E0,9.195795458E-2,-8.975095958E-1,-3.438338220E0,3.554736201E0
8.379618958E0,1.056087729E-1,-8.357858026E-1,-3.080304435E0,3.193425517E0
8.389564958E0,1.361316406E-1,-7.486020631E-1,-2.669635184E0,2.775948286E0
8.399510958E0,9.427442042E-2,-6.968922114E-1,-2.231781204E0,2.339955932E0
8.409457833E0,1.265276802E-1,-6.672941905E-1,-2.031770614E0,2.142284440E0
8.419403833E0,1.501693070E-1,-4.925524896E-1,-1.911843052E0,1.979975412E0
8.429349833E0,1.446345428E-1,-4.275326210E-1,-1.741496849E0,1.799031564E0
8.439295833E0,1.132877659E-1,-4.466506773E-1,-1.589374517E0,1.654823949E0
8.449241833E0,1.869790644E-1,-3.738276994E-1,-1.670886604E0,1.722373468E0
8.459187833E0,1.945400259E-1,-3.704111713E-1,-1.659158551E0,1.711098289E0
8.469133833E0,-4.827982924E-2,-4.375576723E-1,-1.505596342E0,1.568632527E0
8.479079833E0,-1.585583073E-1,-4.637508595E-1,-1.452398374E0,1.532862236E0
8.489025833E0,-2.130033768E-1,-4.043875873E-1,-1.335930609E0,1.411952674E0
8.498971833E0,-2.813967051E-1,-2.120182854E-1,-1.267976023E0,1.316016358E0
8.508917833E0,-2.424962026E-1,-1.067163634E-1,-1.321758713E0,1.348050031E0
8.518863833E0,-2.804194709E-1,1.717911959E-2,-1.281103022E0,1.311546856E0
8.528809833E0,-3.391292985E-1,8.305209696E-2,-1.273831133E0,1.320814933E0
8.538755833E0,-1.433698906E-1,8.145873070E-2,-1.296537625E0,1.306981356E0
8.548701833E0,9.192054153E-2,-2.240308052E-1,-1.346679254E0,1.368277823E0
8.558647833E0,1.436614656E-1,-1.238206387E-1,-1.382252544E0,1.395203305E0
8.568593833E0,4.524379590E-1,-2.415379536E-1,-1.460213470E0,1.547664069E0
8.578539833E0,4.562206690E-1,-8.235774010E-1,-1.412989018E0,1.697926677E0
8.588485833E0,1.804432843E-1,-1.223232837E0,-1.110914841E0,1.662224454E0
8.598431833E0,2.110499499E-2,-1.399971946E0,-1.100630173E0,1.780941787E0
8.608377833E0,3.803496838E-2,-1.959025989E0,-1.154184821E0,2.274065102E0
8.618323833E0,-1.486820494E-1,-3.199029225E-1,-7.674143100E-1,8.446117184E-1
8.628269833E0,3.778510954E-2,4.439211971E-1,-5.839380383E-2,4.493368225E-1
8.638215833E0,1.986921520E-1,-2.026282418E-1,1.802521169E-2,2.843618890E-1
8.648161833E0,1.255868632E-1,-1.190345172E0,-4.810153484E-1,1.289988161E0
8.658107833E0,2.643196194E-1,-1.630252841E0,-4.017382139E-1,1.699700791E0
8.668053833E0,4.850670303E-1,-1.780209948E0,7.754577398E-2,1.846740597E0
8.677999833E0,3.634151240E-1,-7.715839595E-1,3.620537460E-1,9.265502004E-1
8.687945833E0,5.093934940E-1,-1.734658384E-1,9.080024242E-2,5.457259503E-1
8.697891833E0,6.699054839E-1,-7.557795203E-1,-9.540960252E-2,1.014435327E0
8.707837833E0,5.075064513E-1,-1.001560798E0,3.605241144E-1,1.179264376E0
8.717783833E0,5.476918063E-1,-8.347262871E-1,6.953450382E-1,1.216650735E0
8.727729833E0,4.990892382E-1,-6.896232453E-1,7.099888051E-1,1.108491945E0
8.737675833E0,2.249295223E-1,-7.892326105E-1,7.813821387E-1,1.133154645E0
8.747621833E0,4.105637088E-2,-8.922678593E-1,1.145032175E0,1.452214254E0
8.757567833E0,7.752180040E-2,-9.572152224E-1,1.431849212E0,1.724083170E0
8.767513833E0,7.594349071E-2,-1.062301382E0,1.805296842E0,2.096031567E0
8.777459833E0,1.711607198E-1,-9.873427087E-1,2.082948954E0,2.311453647E0
8.787405833E0,2.979773256E-1,-9.273561233E-1,2.069562339E0,2.287327729E0
8.797351833E0,3.660473943E-1,-9.023952368E-1,2.073469448E0,2.290760444E0
8.807297833E0,5.580793118E-1,-8.596845424E-1,1.649282019E0,1.941813897E0
8.817243833E0,6.464058897E-1,-5.225852510E-1,2.269830644E0,2.417243693E0
8.827189833E0,4.332050049E-1,-1.342868623E-1,3.324069008E0,3.354867257E0
8.837135833E0,8.616679180E-1,-3.192342934E-1,2.852672914E0,2.997019334E0
8.847081833E0,1.423610924E0,-9.469133055E-1,2.539534636E0,3.061461911E0
8.857027833E0,1.319598751E0,-1.335518965E0,3.247402655E0,3.751076616E0
8.866973833E0,1.744082634E0,-1.558138838E0,4.020330890E0,4.651094638E0
8.876919833E0,2.367276540E0,-1.973358684E0,4.152913581E0,5.171540769E0
8.886865833E0,2.533787992E0,-2.548895735E0,4.095422003E0,5.448801009E0
8.896811833E0,2.320629353E0,-3.000672959E0,4.655292317E0,6.005089954E0
8.906757833E0,1.883097263E0,-3.504153310E0,5.158130059E0,6.513942848E0
8.916703833E0,1.519796598E0,-3.982422221E0,4.991665092E0,6.564007071E0
8.926649833E0,1.257317134E0,-4.196585850E0,4.822343760E0,6.515149922E0
8.936595833E0,9.374944644E-1,-4.307719200E0,4.119991418E0,6.034042581E0
8.946541833E0,9.667726426E-1,-4.732106604E0,3.413825523E0,5.914531846E0
8.956487833E0,1.015725459E0,-5.130484423E0,3.066510268E0,6.062759590E0
8.966433833E0,8.473472098E-1,-5.095416332E0,2.205219496E0,5.616427505E0
8.976379833E0,2.785754601E-1,-4.498760599E0,1.264106044E0,4.681283511E0
8.986325833E0,1.088237000E-1,-3.268351475E0,1.442402852E-1,3.273342210E0
8.996271833E0,1.457540562E-1,-1.822499351E0,-1.441150378E0,2.328016869E0
9.006217833E0,-4.175841318E-1,-7.571132702E-1,-2.640417817E0,2.778381410E0
9.016163833E0,-7.575176782E-1,2.731433237E-1,-3.574272828E0,3.663859516E0
9.026109833E0,-8.451724110E-1,8.191604143E-1,-4.845024817E0,4.985940800E0
9.036055833E0,-5.202110622E-1,3.308927643E-1,-5.307004262E0,5.342696305E0
9.046001833E0,-4.954741971E-1,4.910099941E-1,-5.255513096E0,5.301603852E0
9.055947833E0,-4.713592931E-1,8.870834255E-1,-5.568935550E0,5.658810807E0
9.065893833E0,-3.555575625E-1,5.000521284E-1,-5.878629234E0,5.910563000E0
9.075839833E0,-3.249641993E-1,7.424092770E-2,-5.611012114E0,5.620904766E0
9.085785833E0,-3.643929977E-1,-7.388717115E-2,-5.314309189E0,5.327299853E0
9.095731833E0,-9.820303671E-2,-2.466718090E-1,-5.177548077E0,5.184350963E0
9.105677833E0,-4.928272722E-2,-2.762329924E-1,-4.896109893E0,4.904143711E0
9.115623833E0,-4.549374975E-2,-2.078153068E-1,-4.574835799E0,4.579779413E0
9.125569833E0,-3.911054542E-2,-1.626362103E-1,-4.410947700E0,4.414118234E0
9.135515833E0,-1.200874473E-1,-1.539688826E-1,-4.157470901E0,4.162053784E0
9.145461833E0,-1.197362489E-1,-2.018681037E-1,-3.752664945E0,3.759997566E0
9.155407833E0,-6.480651833E-2,-1.919377774E-1,-3.394038545E0,3.400079064E0
9.165353833E0,6.259809807E-3,-8.504775167E-2,-3.223477018E0,3.224604843E0
9.175299833E0,1.202843705E-1,3.957746387E-2,-3.102046137E0,3.104629598E0
9.185245833E0,3.940967801E-1,-7.938121498E-2,-2.808866744E0,2.837489389E0
9.195191833E0,7.693466686E-1,-4.800330162E-1,-2.448432384E0,2.610966705E0
9.205137833E0,7.310823432E-1,-7.406077498E-1,-2.138413595E0,2.378191316E0
9.215083833E0,7.124585959E-1,-7.575646752E-1,-1.704493183E0,1.996696898E0
9.225029833E0,5.066516615E-1,-7.216376281E-1,-1.247730624E0,1.527837845E0
9.234975833E0,2.813675969E-1,-7.023763150E-1,-8.710275561E-1,1.153771735E0
9.244921833E0,-2.298869379E-2,-5.228030598E-1,-7.138292563E-1,8.851009697E-1
9.254867833E0,-2.695215400E-1,-4.492304689E-1,-6.896744084E-1,8.660835204E-1
9.264813833E0,-4.671922017E-1,-3.980065209E-1,-7.453124195E-1,9.654886570E-1
9.274759833E0,-6.474718371E-1,-4.540906745E-1,-9.476629186E-1,1.234294587E0
9.284705833E0,-6.175749504E-1,-5.432308924E-1,-1.147692073E0,1.411982902E0
9.294651833E0,-3.172185754E-1,-6.154592085E-1,-1.257621481E0,1.435628591E0
9.304597833E0,6.097593427E-2,-9.453789961E-1,-1.085549034E0,1.440790136E0
9.314543833E0,5.938619328E-1,-1.215051413E0,-4.782320738E-1,1.434478249E0
9.324489833E0,9.712652045E-1,-1.382657756E0,-2.033708382E-1,1.701898430E0
9.334435833E0,1.144752239E0,-1.573360017E0,5.412767529E-3,1.945751456E0
9.344381833E0,1.236220234E0,-1.686974341E0,3.751444924E-1,2.124819118E0
9.354327833E0,1.001550566E0,-1.749257712E0,7.472507715E-1,2.149741797E0
9.364273833E0,6.108605196E-1,-1.657293289E0,8.543647456E-1,1.962067975E0
9.374219833E0,3.393835062E-1,-1.547100171E0,9.102962869E-1,1.826838645E0
9.384165833E0,3.099769816E-1,-1.429119732E0,8.180669850E-1,1.675620043E0
9.394111833E0,3.694952050E-1,-1.511578336E0,7.494247663E-1,1.727145985E0
9.404057833E0,-8.233288944E-2,-1.406109184E0,1.204956779E0,1.853602596E0
9.414003125E0,9.690970570E-2,-9.532335609E-1,1.469210581E0,1.754031198E0
9.423949125E0,5.750251275E-1,-2.024510711E-1,1.511105881E0,1.629442027E0
9.433895125E0,1.179134013E0,2.219427645E-2,1.488535629E0,1.899101873E0
9.443841125E0,1.581210050E0,-1.308723807E-1,1.761174923E0,2.370461961E0
9.453787125E0,1.534833590E0,-2.000317857E-1,1.971762979E0,2.506706227E0
9.463733125E0,1.177817805E0,-2.690742463E-1,2.119224495E0,2.439419643E0
9.473679125E0,5.541550992E-1,-2.900523019E-1,2.362005567E0,2.443417384E0
9.483625125E0,2.268883395E-1,-3.035558617E-1,2.486851223E0,2.515562260E0
9.493571125E0,-3.465922460E-2,-3.911249328E-1,2.595125869E0,2.624663455E0
9.503517125E0,-2.018324357E-1,-5.587450173E-1,2.683698322E0,2.748666770E0
9.513463125E0,-7.884429440E-2,-7.405024999E-1,2.846911653E0,2.942697119E0
9.523409125E0,4.215403944E-3,-6.653242636E-1,2.893126291E0,2.968645126E0
9.533355125E0,2.134958768E-1,-6.651348138E-1,2.974608411E0,3.055532688E0
9.543301125E0,4.795127602E-1,-1.032531161E0,3.351435147E0,3.539515592E0
9.553247125E0,9.478627472E-1,-1.687721907E0,4.199878417E0,4.624481349E0
9.563193125E0,1.528264974E0,-2.110945715E0,4.854413983E0,5.509720570E0
9.573139125E0,1.888465738E0,-2.808971702E0,5.702882397E0,6.631703589E0
9.583085125E0,2.364378659E0,-3.836621899E0,6.295262645E0,7.742111198E0
9.593031125E0,2.809628052E0,-4.793326367E0,6.131797884E0,8.274595624E0
9.602977125E0,2.517095653E0,-5.202105213E0,6.152299392E0,8.440880107E0
9.612923125E0,2.145778894E0,-5.730440909E0,5.913827718E0,8.509740204E0
9.622869125E0,1.816494845E0,-5.962466612E0,5.296363499E0,8.179372099E0
9.632814125E0,1.407896532E0,-5.227320161E0,4.573906676E0,7.087148298E0
9.642761125E0,1.267920182E0,-4.355064105E0,3.632102083E0,5.810883796E0
9.652706125E0,9.145380034E-1,-3.774045582E0,2.741818476E0,4.753668938E0
9.662652125E0,8.213342629E-1,-3.443313616E0,1.915611290E0,4.024992577E0
9.672598125E0,7.543456368E-1,-2.674563802E0,6.249840304E-1,2.848321244E0
9.682544125E0,5.301341161E-1,-1.983376719E0,-3.544617212E-1,2.083379106E0
9.692490125E0,6.452330844E-1,-1.856634226E0,-1.434662892E0,2.433448992E0
9.702436125E0,8.081274493E-1,-1.598465037E0,-2.036360094E0,2.711996107E0
9.712382125E0,2.717710187E-1,-1.231179203E0,-3.537628035E0,3.755592341E0
9.722328125E0,-6.448992084E-1,-4.881401807E-1,-5.841476610E0,5.897204831E0
9.732274125E0,-1.079295803E0,-8.373008162E-1,-7.214492308E0,7.342673311E0
9.742220125E0,-1.155008767E0,-1.018692555E0,-7.197996143E0,7.360905396E0
9.752166125E0,-1.072240845E0,-7.710302281E-1,-7.084126296E0,7.206180224E0
9.762112125E0,-7.940759323E-1,-6.196282732E-1,-7.483778808E0,7.551254269E0
9.772058125E0,-4.990912847E-1,-5.977398062E-1,-7.485258154E0,7.525654431E0
9.782004125E0,-6.011025034E-1,-1.097182070E0,-6.911672026E0,7.023983407E0
9.791950125E0,-4.242332565E-1,-1.566185483E0,-6.108672731E0,6.320505783E0
9.801896125E0,-3.682184472E-2,-1.620489160E0,-5.182788352E0,5.430344010E0
9.811842125E0,2.537886013E-1,-1.544504008E0,-4.442505122E0,4.710175479E0
9.821788125E0,4.063172050E-1,-1.553048544E0,-3.725627713E0,4.056766607E0
9.831734125E0,4.439649415E-1,-1.654919904E0,-2.900196159E0,3.368531212E0
9.841680125E0,2.953603677E-1,-1.460329245E0,-2.246389303E0,2.695563791E0
9.851626125E0,2.750763035E-1,-1.079068565E0,-1.935930072E0,2.233356484E0
9.861572125E0,2.959244961E-1,-7.984858292E-1,-1.706760295E0,1.907401801E0
9.871518125E0,3.298127836E-1,-7.158605790E-1,-1.614504096E0,1.796623588E0
9.881464125E0,4.171403646E-1,-7.233157790E-1,-1.590109659E0,1.796006828E0
9.891410125E0,5.393229789E-1,-7.048017401E-1,-1.535502219E0,1.773522437E0
9.901356125E0,4.888241953E-1,-8.001803523E-1,-1.476585382E0,1.749154676E0
9.911302125E0,3.014362095E-1,-9.236940122E-1,-1.503161854E0,1.789851943E0
9.921248125E0,1.720872112E-1,-6.997415596E-1,-1.525116395E0,1.686781633E0
9.931194125E0,1.040702973E-1,-4.237395322E-1,-1.430321919E0,1.495395135E0
9.941140125E0,8.350632512E-2,-3.176605153E-1,-1.362174375E0,1.401213951E0
9.951086125E0,1.428945942E-1,-2.145489603E-1,-1.364082029E0,1.388225451E0
9.961032125E0,1.743222363E-1,-2.767978334E-1,-1.335609305E0,1.375084542E0
9.970978125E0,-1.421563010E-1,-1.517954725E-1,-1.512083536E0,1.526318086E0
9.980924125E0,-4.019935180E-1,1.441660255E-1,-1.688893982E0,1.742052098E0
9.990870125E0,-6.020440147E-1,1.137453014E-1,-2.035449098E0,2.125664136E0
1.000081612E1,-4.608542220E-1,-3.923703897E-1,-2.110784624E0,2.195849008E0
1.001076212E1,1.134255500E-1,-9.893132204E-1,-2.055261219E0,2.283791733E0
1.002070812E1,4.866468018E-1,-1.535663602E0,-1.573790372E0,2.252088796E0
1.003065412E1,5.934490462E-1,-1.743408158E0,-9.014459413E-1,2.050428872E0
1.004060012E1,8.921466757E-1,-2.048113582E0,1.589273214E-3,2.233986898E0
1.005054612E1,1.206855151E0,-2.609913477E0,8.196252680E-1,2.989972123E0
1.006049212E1,9.923789155E-1,-1.844655620E0,1.452675825E0,2.549085585E0
1.007043812E1,7.662722026E-1,-9.966052830E-1,1.458687932E0,1.925659799E0
1.008038413E1,5.955268543E-1,-4.798552608E-1,1.276906183E0,1.488422892E0
1.009033012E1,2.602734558E-1,-4.219532079E-1,1.265473707E0,1.359121218E0
1.010027612E1,-5.346365087E-3,-1.014077348E0,1.369709682E0,1.704255281E0
1.011022212E1,-2.786530819E-1,-9.790639284E-1,1.373279407E0,1.709418043E0
1.012016812E1,-4.283752048E-1,-6.947407284E-1,1.339893560E0,1.568911963E0
1.013011413E1,-1.882381710E-1,-8.353870225E-1,1.395129867E0,1.636976613E0
1.014006012E1,1.141978028E-1,-8.383731955E-1,1.783804817E0,1.974302504E0
1.015000612E1,4.641177723E-1,-8.121276757E-1,2.169524583E0,2.362581974E0
1.015995212E1,9.155211396E-1,-9.539729413E-1,2.135091500E0,2.511346062E0
1.016989812E1,1.048906581E0,-9.942327753E-1,2.091901041E0,2.542588011E0
1.017984412E1,8.686991948E-1,-7.284525579E-1,2.243856727E0,2.513995711E0
1.018979012E1,6.229857445E-1,-2.991581708E-1,2.371111436E0,2.469772518E0
1.019973612E1,3.564789375E-1,4.805241823E-3,2.294367900E0,2.321901028E0
1.020968212E1,2.571257535E-1,1.262326151E-1,2.188347940E0,2.207014960E0
1.021962812E1,1.638769895E-1,6.071280956E-2,2.390203764E0,2.396584183E0
1.022957412E1,2.931048408E-1,-2.307591963E-1,2.732523158E0,2.757869297E0
1.023952012E1,5.838311805E-1,-6.162588152E-1,3.102282949E0,3.216332270E0
1.024946612E1,5.424135248E-1,-8.967436105E-1,3.458995264E0,3.614278596E0
1.025941212E1,5.769275191E-1,-1.251670770E0,3.931079575E0,4.165682621E0
1.026935812E1,9.940451527E-1,-1.847161152E0,4.643419545E0,5.095240442E0
1.027930412E1,1.269849033E0,-2.738141162E0,4.728366140E0,5.609579302E0
1.028925012E1,1.455331338E0,-3.719332016E0,4.930874514E0,6.345466367E0
1.029919612E1,1.488779750E0,-4.367849627E0,5.768525578E0,7.387182336E0
1.030914212E1,1.128118080E0,-4.592562218E0,6.390322584E0,7.949874266E0
1.031908812E1,1.336960889E0,-5.124716730E0,5.926928989E0,7.948501319E0
1.032903412E1,1.497707571E0,-5.134194481E0,5.332513325E0,7.552402221E0
1.033898013E1,1.276569968E0,-4.860507367E0,4.916813130E0,7.030591305E0
1.034892612E1,1.170344040E0,-4.552429853E0,4.187931971E0,6.295482264E0
1.035887212E1,6.361278002E-1,-4.230322530E0,3.238864551E0,5.365680839E0
1.036881812E1,2.769095153E-1,-4.015787019E0,2.484744471E0,4.730452340E0
1.037876412E1,2.679868834E-1,-3.422071851E0,1.474650538E0,3.735905102E0
1.038871013E1,1.065784788E-1,-2.703806897E0,5.025687701E-1,2.752182057E0
1.039865612E1,2.482077629E-1,-2.055460024E0,-7.303569961E-1,2.195437165E0
1.040860212E1,2.745362035E-1,-1.539021074E0,-1.994449006E0,2.534123681E0
1.041854825E1,2.823447215E-1,-1.356966260E0,-2.987410889E0,3.293281007E0
1.042849425E1,1.614525146E-1,-9.338512105E-1,-3.971788475E0,4.083288955E0
1.043844025E1,3.027500423E-1,-6.527737999E-1,-4.869906766E0,4.922780020E0
1.044838625E1,5.902017219E-1,-9.215252799E-1,-5.555426143E0,5.662182136E0
1.045833225E1,3.446082857E-1,-8.311822897E-1,-5.994684185E0,6.061836137E0
1.046827825E1,1.651516094E-1,-5.607930046E-1,-6.449717431E0,6.476157718E0
1.047822425E1,2.506255500E-1,-7.473109978E-1,-6.734002039E0,6.779975690E0
1.048817025E1,2.928410583E-1,-1.039822639E0,-6.583163756E0,6.671209189E0
1.049811625E1,3.013354547E-1,-1.067259529E0,-6.426270096E0,6.521257034E0
1.050806225E1,3.335468886E-1,-1.187643174E0,-6.082161455E0,6.206000145E0
1.051800825E1,4.841276751E-1,-1.377801644E0,-5.556025482E0,5.744748570E0
1.052795425E1,7.063870664E-1,-1.623683494E0,-4.924041458E0,5.232734950E0
1.053790025E1,6.646264715E-1,-1.858508259E0,-4.181018223E0,4.623493774E0
1.054784625E1,5.855301621E-1,-1.977142417E0,-3.556554303E0,4.111084555E0
1.055779225E1,5.515932879E-1,-2.041558853E0,-3.108996722E0,3.760063607E0
1.056773825E1,5.488782795E-1,-1.784293644E0,-2.809868372E0,3.373474684E0
1.057768425E1,5.936955795E-1,-1.380284956E0,-2.541496376E0,2.952433713E0
1.058763025E1,5.189965224E-1,-1.116680780E0,-2.259685140E0,2.573423845E0
1.059757625E1,2.946810309E-1,-8.083793181E-1,-2.119879822E0,2.287838388E0
1.060752225E1,1.717577206E-1,-3.698650414E-1,-2.150588229E0,2.188910824E0
1.061746825E1,1.520210288E-2,-9.249710441E-2,-2.312325430E0,2.314224646E0
1.062741425E1,-7.497270674E-2,-1.441262645E-1,-2.429450861E0,2.434876747E0
1.063736025E1,-1.670242533E-2,-2.103980219E-1,-2.447123193E0,2.456208098E0
1.064730625E1,-7.036875531E-2,-4.294616175E-1,-2.504934614E0,2.542456777E0
1.065725225E1,-1.919618972E-1,-7.858540893E-1,-2.490850718E0,2.618922167E0
1.066719825E1,-2.734691598E-2,-1.006591743E0,-2.240227653E0,2.456134102E0
1.067714425E1,1.097656133E-1,-1.100773430E0,-1.903443527E0,2.201555789E0
1.068709025E1,1.282063428E-1,-1.139284362E0,-1.540793949E0,1.920534227E0
1.069703625E1,1.346292899E-1,-9.682807857E-1,-1.237565824E0,1.577105543E0
1.070698225E1,1.804897331E-1,-7.538709891E-1,-1.017248878E0,1.278942255E0
1.071692825E1,1.633906473E-1,-7.057583445E-1,-9.001975608E-1,1.155485609E0
1.072687425E1,7.410980389E-2,-9.063102400E-1,-9.447089052E-1,1.311245755E0
1.073682025E1,7.325523332E-2,-1.093498909E0,-9.501731282E-1,1.450494801E0
1.074676625E1,1.159511635E-1,-1.172454447E0,-7.614507347E-1,1.402819063E0
1.075671225E1,9.788867578E-2,-1.316737416E0,-6.136325383E-1,1.455996054E0
1.076665825E1,1.476978900E-1,-1.332630149E0,-3.231147981E-1,1.379174011E0
1.077660425E1,4.432262555E-1,-1.468844545E0,2.399679762E-1,1.552912889E0
1.078655025E1,7.884783196E-1,-1.579329439E0,8.637963045E-1,1.965228637E0
1.079649625E1,1.159601828E0,-1.811807132E0,1.236137642E0,2.480999346E0
1.080644225E1,1.306552444E0,-1.632314569E0,1.630483806E0,2.651416146E0
1.081638825E1,1.444065654E0,-1.280136185E0,1.790996307E0,2.632820168E0
1.082633425E1,1.359509653E0,-1.085223929E0,1.602209594E0,2.364963648E0
1.083628025E1,9.261858031E-1,-1.029775076E0,1.490807857E0,2.034886954E0
1.084622625E1,5.528200337E-1,-1.340159900E0,1.679175324E0,2.218393184E0
1.085617225E1,8.449606687E-2,-1.228825114E0,2.006193139E0,2.354137136E0
1.086611825E1,-1.513782737E-1,-1.084273464E0,2.194569962E0,2.452488868E0
1.087606425E1,8.610375881E-2,-1.006405801E0,2.264241875E0,2.479326071E0
1.088601025E1,3.394413936E-1,-9.323569545E-1,2.289222935E0,2.495005330E0
1.089595525E1,5.363229918E-1,-8.899617174E-1,2.547692086E0,2.751437656E0
1.090590225E1,8.248757753E-1,-7.476273322E-1,2.836174995E0,3.046843494E0
1.091584825E1,9.471963108E-1,-7.384071502E-1,3.108259973E0,3.332222386E0
1.092579325E1,8.846714491E-1,-7.436561957E-1,3.248781429E0,3.448224019E0
1.093573925E1,7.509456271E-1,-6.979420790E-1,3.131541247E0,3.295086199E0
1.094568525E1,9.152365994E-1,-8.549143839E-1,3.084607986E0,3.329165520E0
1.095563125E1,8.124519038E-1,-1.038151212E0,3.283891035E0,3.538612209E0
1.096557725E1,8.747338137E-1,-1.442261057E0,3.616510482E0,3.990541852E0
1.097552325E1,1.342938497E0,-1.926883260E0,4.115965610E0,4.738938258E0
1.098546925E1,1.455252108E0,-2.151727121E0,4.849741473E0,5.501607098E0
1.099541525E1,1.604868908E0,-2.548600451E0,6.120148476E0,6.821083920E0
1.100536125E1,2.247173268E0,-3.799476877E0,7.092817597E0,8.354272781E0
1.101530725E1,3.040638093E0,-5.348766246E0,7.297582412E0,9.545129094E0
1.102525325E1,3.375929133E0,-6.294003739E0,7.034372923E0,1.002465875E1
1.103519925E1,2.958200831E0,-6.740204181E0,6.049648597E0,9.527830430E0
1.104514525E1,2.265966950E0,-6.448110031E0,5.427420067E0,8.727520712E0
1.105509125E1,1.738134846E0,-5.323366526E0,4.736124226E0,7.334181385E0
1.106503725E1,1.697341308E0,-4.161751063E0,3.452249331E0,5.667377248E0
1.107498325E1,4.675389782E-1,-3.215925339E0,2.962783002E0,4.397596116E0
1.108492925E1,-4.752320136E-1,-2.123931504E0,1.892385272E0,2.884103417E0
1.109487525E1,-3.742665330E-1,-1.156845889E0,2.457918030E-1,1.240476303E0
1.110482125E1,-1.375979944E-1,-5.893051976E-1,-1.078578276E0,1.236747720E0
1.111476725E1,-1.872212671E-1,-4.731613684E-1,-2.368298048E0,2.422347854E0
1.112471325E1,-1.546949606E-1,-6.831272811E-1,-3.836185404E0,3.899604066E0
1.113465925E1,1.777906584E-1,-6.471762604E-1,-5.175323796E0,5.218661038E0
1.114460525E1,1.545139161E-1,-8.203807282E-1,-6.318170282E0,6.373082049E0
1.115455125E1,-1.791855117E-1,-7.923275417E-1,-7.084166057E0,7.130588973E0
1.116449725E1,-7.706330560E-2,-1.123993893E0,-7.211957540E0,7.299426867E0
1.117444325E1,-4.317138188E-2,-1.508655898E0,-6.944130505E0,7.106254629E0
1.118438925E1,-1.819373576E-1,-1.192398130E0,-6.646910686E0,6.755467132E0
1.119433525E1,-1.862487289E-1,-1.130007754E0,-6.323113518E0,6.425991805E0
1.120428125E1,-1.385847851E-1,-1.378178789E0,-5.746469296E0,5.911048290E0
1.121422725E1,6.299117714E-2,-1.450686017E0,-5.216903347E0,5.415213600E0
1.122417325E1,1.918803285E-1,-1.434714932E0,-4.752043855E0,4.967609667E0
1.123411925E1,1.978772329E-1,-1.368739044E0,-4.079450333E0,4.307495443E0
1.124406525E1,2.879550518E-1,-1.337159402E0,-3.605695472E0,3.856417148E0
1.125401125E1,4.133943459E-1,-1.400763075E0,-3.304180874E0,3.612567414E0
1.126395725E1,4.837288950E-1,-1.414763648E0,-3.040558571E0,3.388295478E0
1.127390325E1,5.378795207E-1,-1.333549331E0,-2.789866217E0,3.138633732E0
1.128384925E1,6.002755974E-1,-1.315898341E0,-2.516274412E0,2.902336326E0
1.129379525E1,6.618885858E-1,-1.339102432E0,-2.252685438E0,2.702939790E0
1.130374125E1,4.672806774E-1,-1.249190381E0,-2.075434405E0,2.467033808E0
1.131368725E1,3.741479807E-1,-1.068809041E0,-1.796671322E0,2.123762538E0
1.132363325E1,2.332929410E-1,-8.329890794E-1,-1.443553876E0,1.682897559E0
1.133357925E1,1.712686010E-1,-6.395620161E-1,-1.088025038E0,1.273644766E0
1.134352525E1,1.229802476E-1,-4.788735133E-1,-8.719081467E-1,1.002331183E0
1.135347125E1,-1.102931052E-2,-3.590184563E-1,-7.216966850E-1,8.061401880E-1
1.136341725E1,-1.257948048E-1,-1.539794075E-1,-5.655988312E-1,5.995298397E-1
1.137336325E1,-1.886440408E-1,-7.035311401E-2,-6.431416816E-1,6.739193997E-1
1.138330925E1,-3.603665319E-1,6.908017516E-2,-8.453869307E-1,9.215829700E-1
1.139325525E1,-3.255805689E-1,2.505648851E-1,-1.158188702E0,1.228896472E0
1.140320125E1,1.951522842E-2,9.770054162E-2,-1.404423432E0,1.407952917E0
1.141314762E1,3.367712626E-1,-4.550180429E-1,-1.407248806E0,1.516840633E0
1.142309362E1,3.775925754E-1,-7.673792267E-1,-1.265557907E0,1.527443566E0
1.143303963E1,5.310903186E-1,-8.340766615E-1,-9.436523134E-1,1.366828626E0
1.144298562E1,5.562324688E-1,-8.224781245E-1,-4.962023216E-1,1.109991698E0
1.145293162E1,4.902545339E-1,-9.067809409E-1,1.219542074E-1,1.038014456E0
1.146287762E1,5.192662252E-1,-9.545690650E-1,7.021541208E-1,1.293777385E0
1.147282362E1,5.986756530E-1,-9.977092373E-1,8.749907988E-1,1.455831432E0
1.148276962E1,6.503328797E-1,-1.123306845E0,9.695771134E-1,1.620132989E0
1.149271562E1,4.269027297E-1,-2.890658766E-1,1.144855004E0,1.255586716E0
1.150266162E1,3.383976656E-1,3.377117872E-1,1.067315662E0,1.169497736E0
1.151260762E1,4.263248786E-1,-8.741119623E-2,7.007969820E-1,8.249303179E-1
1.152255362E1,1.118065108E-1,-2.203336108E-1,5.345185411E-1,5.888613306E-1
1.153249962E1,-4.834872589E-2,-2.234209406E-1,6.924173373E-1,7.291750716E-1
1.154244562E1,-6.160217106E-2,3.171471298E-2,4.460805738E-1,4.514294284E-1
1.155239162E1,-2.115999171E-1,-7.273234606E-2,2.891208404E-1,3.655890855E-1
1.156233762E1,-3.379750581E-1,-4.395112270E-1,4.991189128E-1,7.460006352E-1
1.157228362E1,-3.568567407E-1,-8.397046065E-1,8.579917735E-1,1.252437800E0
1.158222962E1,-1.833031940E-1,-1.033152135E0,1.368213964E0,1.724242688E0
1.159217562E1,-1.920064822E-2,-9.526809990E-1,1.676891987E0,1.928713687E0
1.160212162E1,5.786799297E-2,-9.652376023E-1,1.881906477E0,2.115798743E0
1.161206762E1,1.547434925E-1,-1.486966236E0,2.042975634E0,2.531553589E0
1.162201362E1,-2.808841601E-2,-7.582037759E-1,2.022177088E0,2.159829183E0
1.163195962E1,-2.032123786E-1,2.739765519E-1,1.886419358E0,1.917012367E0
1.164190563E1,-9.735263228E-2,-3.803242484E-1,1.768509670E0,1.811560245E0
1.165185162E1,-3.216404226E-1,-8.198898545E-1,2.015290237E0,2.199333234E0
1.166179762E1,-2.988810128E-1,-7.931253943E-1,2.564394073E0,2.700832226E0
1.167174362E1,4.683169502E-1,-8.186245170E-1,3.155965067E0,3.293870424E0
1.168168962E1,1.177687705E0,-1.097529102E0,3.623875051E0,3.965348515E0
1.169163563E1,1.668431650E0,-1.525002374E0,4.192950636E0,4.763415943E0
1.170158162E1,2.451724367E0,-2.206437179E0,5.104305854E0,6.077273702E0
1.171152762E1,2.982805622E0,-2.945860282E0,5.699323781E0,7.075133479E0
1.172147362E1,3.620497406E0,-3.867322705E0,5.838800924E0,7.883893873E0
1.173141962E1,3.941058725E0,-4.462577444E0,6.219761642E0,8.609992811E0
1.174136562E1,3.195874360E0,-4.642127311E0,6.774819698E0,8.812555862E0
1.175131162E1,3.085566637E0,-4.765922222E0,6.087569545E0,8.324256066E0
1.176125762E1,3.607229782E0,-5.233703567E0,5.488968444E0,8.398364978E0
1.177120362E1,2.338326975E0,-5.047114822E0,4.870490903E0,7.393431051E0
1.178114962E1,9.030869624E-1,-3.960574100E0,3.447510163E0,5.327948910E0
1.179109562E1,4.966256601E-1,-2.990372504E0,2.178054501E0,3.732678150E0
1.180104162E1,2.662441939E-1,-2.560529063E0,1.163062064E0,2.824873169E0
1.181098762E1,-1.501018265E-1,-1.760807717E0,-3.075185198E-1,1.793750823E0
1.182093362E1,9.007971928E-2,-1.115316625E0,-1.843606630E0,2.156601710E0
1.183087962E1,3.269265980E-1,-9.071358669E-1,-2.903299277E0,3.059235717E0
1.184082562E1,-1.231778835E-1,-6.681671798E-1,-3.948944865E0,4.006967147E0
1.185077162E1,-2.081458206E-1,-4.765562618E-1,-5.095843763E0,5.122309461E0
1.186071762E1,-1.877307057E-2,-4.151300919E-1,-6.069805704E0,6.084014029E0
1.187066362E1,-7.718617022E-3,-5.506094939E-1,-6.512024192E0,6.535265065E0
1.188060962E1,5.312049240E-3,-8.805012149E-1,-6.428634710E0,6.488655858E0
1.189055562E1,5.906060569E-2,-1.089333352E0,-6.397135175E0,6.489489483E0
1.190050163E1,-1.017225489E-1,-1.124914244E0,-6.328746141E0,6.428748498E0
1.191044762E1,-2.283522630E-1,-1.044140807E0,-5.966733910E0,6.061706718E0
1.192039362E1,-1.643992920E-1,-9.273993927E-1,-5.573651329E0,5.652670687E0
1.193033962E1,-1.226731226E-2,-9.126188010E-1,-5.260639350E0,5.339227466E0
1.194028562E1,1.081033230E-1,-9.095794183E-1,-4.957412102E0,5.041324806E0
1.195023163E1,7.242726758E-2,-7.744783312E-1,-4.792327663E0,4.855045501E0
1.196017762E1,1.788566789E-1,-6.967688352E-1,-4.384030042E0,4.442656405E0
1.197012362E1,3.192340010E-1,-7.837379819E-1,-3.977900569E0,4.066921257E0
1.198006962E1,3.690331288E-1,-1.016151940E0,-3.621061370E0,3.778999294E0
1.199001562E1,3.451349737E-1,-1.070584840E0,-3.152244483E0,3.346926251E0
1.199996162E1,3.544747312E-1,-9.537358367E-1,-2.750410375E0,2.932579345E0
1.200990762E1,3.403453732E-1,-9.885998601E-1,-2.425671513E0,2.641410030E0
1.201985362E1,3.633379407E-1,-1.122646694E0,-2.053991496E0,2.368803733E0
1.202979962E1,3.152207646E-1,-1.067764143E0,-1.726945322E0,2.054707897E0
1.203974562E1,2.846670163E-1,-9.809300673E-1,-1.521985211E0,1.832947923E0
1.204969162E1,1.319566007E-1,-7.698485059E-1,-1.381497961E0,1.587014771E0
1.205963762E1,-1.120770907E-1,-4.139290738E-1,-1.343183788E0,1.409979163E0
1.206958362E1,-3.660827699E-1,-7.905786395E-2,-1.541363468E0,1.586211865E0
1.207952962E1,-5.732028428E-1,1.324335873E-1,-1.795851835E0,1.889757648E0
1.208947562E1,-5.956824633E-1,1.166402578E-1,-1.937819892E0,2.030662080E0
1.209942162E1,-3.529019764E-1,-1.409757847E-1,-1.899859768E0,1.937493514E0
1.210936763E1,-9.638257921E-2,-6.345503676E-1,-1.496353356E0,1.628194441E0
1.211931362E1,2.081705251E-1,-9.799962670E-1,-9.351849604E-1,1.370510329E0
1.212925962E1,8.082718755E-1,-1.322479967E0,-4.506618673E-1,1.614110531E0
1.213920562E1,1.333286206E0,-1.749376411E0,3.251987457E-2,2.199778961E0
1.214915162E1,1.301680544E0,-1.881779008E0,4.037385464E-1,2.323460627E0
1.215909763E1,1.018586136E0,-1.707639570E0,5.831971961E-1,2.072117175E0
1.216904362E1,8.026512395E-1,-1.356428901E0,5.780487227E-1,1.678775953E0
1.217898962E1,6.069396691E-1,-1.139670278E0,7.401534212E-1,1.488304804E0
1.218893562E1,3.246327353E-1,-1.146880479E0,1.056091347E0,1.592498094E0
1.219888162E1,4.909906983E-2,-1.275040337E0,1.289583532E0,1.814156626E0
1.220882762E1,-1.149853496E-1,-1.249054726E0,1.428972382E0,1.901399855E0
1.221877362E1,-2.107628882E-3,-1.385518214E0,1.239644802E0,1.859135390E0
1.222871962E1,-6.069746062E-2,-1.730433771E0,1.155384670E0,2.081585682E0
1.223866562E1,-2.625005141E-1,-5.771213543E-1,1.541925970E0,1.667186635E0
1.224861162E1,-4.739665300E-2,-5.283134758E-2,1.487575516E0,1.489267776E0
1.225855762E1,1.894106108E-1,-3.242047191E-1,1.467424842E0,1.514701537E0
1.226850362E1,2.898359549E-1,-8.852558783E-1,1.805896182E0,2.031980283E0
1.227844962E1,2.772284809E-1,-8.443516812E-1,2.297464001E0,2.463356699E0
1.228839562E1,4.694948718E-1,-6.275185061E-1,2.448253752E0,2.570632479E0
1.229834162E1,5.430566454E-1,-5.501379159E-1,2.453244351E0,2.572152812E0
1.230828762E1,5.505448821E-1,-5.793617150E-1,2.672037220E0,2.789003867E0
1.231823362E1,6.716375023E-1,-5.585836342E-1,3.003680182E0,3.128131590E0
1.232817962E1,7.410810819E-1,-5.569434902E-1,3.195027975E0,3.326798910E0
1.233812562E1,7.680844009E-1,-6.916472590E-1,3.219720182E0,3.381556983E0
1.234807162E1,8.558531544E-1,-9.716189611E-1,3.374137546E0,3.614046515E0
1.235801762E1,1.112198012E0,-1.284940258E0,3.912413508E0,4.265563895E0
1.236796363E1,1.593574426E0,-1.912519867E0,4.487747954E0,5.131967789E0
1.237790962E1,2.338452690E0,-2.826270689E0,5.130759242E0,6.307206782E0
1.238785562E1,2.871962002E0,-3.511117344E0,5.825996107E0,7.383653661E0
1.239780162E1,3.074868571E0,-4.373143696E0,6.445796873E0,8.374216372E0
1.240774762E1,3.333449112E0,-5.086153173E0,6.714240205E0,9.058800064E0
1.241769321E1,3.251534298E0,-5.417797304E0,6.909663507E0,9.363143313E0
1.242763921E1,2.591737992E0,-5.111821865E0,6.751483460E0,8.856091548E0
1.243758521E1,8.735294335E-1,-5.202732035E0,6.427227286E0,8.315090191E0
1.244753121E1,2.129908235E-1,-4.547002468E0,4.868434437E0,6.665001905E0
1.245747721E1,4.520089196E-1,-3.494359224E0,3.287837321E0,4.819204571E0
1.246742321E1,4.098136573E-1,-2.261280845E0,1.939716729E0,3.007297671E0
1.247736921E1,-4.477685188E-1,-1.371431102E0,9.397215226E-1,1.721742273E0
1.248731521E1,6.015834734E-2,-1.156847643E0,-2.833718580E-1,1.192566605E0
1.249726021E1,3.894305559E-1,-8.813853139E-1,-1.790108992E0,2.032974774E0
1.250720721E1,-1.638997936E-1,-3.999179757E-1,-3.702789658E0,3.727928215E0
1.251715221E1,-1.787080134E-1,-2.164335179E-1,-5.390610090E0,5.397912297E0
1.252709921E1,2.277064381E-1,-1.648417801E-1,-5.930510409E0,5.937169085E0
1.253704521E1,-9.914144173E-2,-3.292029190E-1,-6.679331158E0,6.688173764E0
1.254699121E1,-4.876867291E-1,-1.260258576E0,-7.526982715E0,7.647323638E0
1.255693721E1,-5.295644876E-1,-1.414435619E0,-7.340262408E0,7.494032218E0
1.256688321E1,-3.268254411E-1,-1.052549688E0,-7.362731504E0,7.444762650E0
1.257682821E1,-2.653190182E-1,-1.026659387E0,-7.341465765E0,7.417650791E0
1.258677421E1,9.799436420E-2,-1.500778529E0,-6.811207505E0,6.975276824E0
1.259672021E1,2.211006193E-1,-1.837953542E0,-6.136516002E0,6.409663591E0
1.260666721E1,1.475226197E-1,-1.740959344E0,-5.523838314E0,5.793573343E0
1.261661221E1,2.954752290E-1,-1.821568474E0,-4.860214421E0,5.198759615E0
1.262655821E1,3.522126628E-1,-1.841139105E0,-4.134231727E0,4.539352260E0
1.263650421E1,4.682728768E-1,-1.825215383E0,-3.574474849E0,4.040737696E0
1.264645021E1,6.351940729E-1,-1.720870650E0,-3.164116670E0,3.657389999E0
1.265639621E1,6.326057298E-1,-1.564161177E0,-2.756827109E0,3.232164276E0
1.266634221E1,4.596833170E-1,-1.389044085E0,-2.298472791E0,2.724652160E0
1.267628821E1,8.661056623E-2,-1.021720244E0,-2.019244124E0,2.264676683E0
1.268623421E1,-1.260349792E-1,-5.774066985E-1,-1.856490093E0,1.948291245E0
1.269618021E1,-3.232838557E-1,-2.371548808E-1,-1.921346824E0,1.962734956E0
1.270612621E1,-6.057132156E-1,-9.128556132E-2,-2.062878971E0,2.151904088E0
1.271607221E1,-4.970538224E-1,-2.633930916E-1,-1.966995159E0,2.045851505E0
1.272601821E1,-3.711786184E-1,-5.448037934E-1,-1.795394583E0,1.912596781E0
1.273596421E1,-4.891172504E-1,-8.063585204E-1,-1.678666617E0,1.925453546E0
1.274591021E1,-5.336709141E-1,-8.610861200E-1,-1.759159387E0,2.030003867E0
1.275585621E1,-4.638303816E-1,-8.976312178E-1,-1.697730294E0,1.975643839E0
1.276580221E1,-4.895948218E-1,-9.067458576E-1,-1.441861399E0,1.772245873E0
1.277574821E1,-5.098994243E-1,-9.503590697E-1,-1.364184648E0,1.739016831E0
1.278569421E1,-5.969581796E-1,-1.116560912E0,-1.333737611E0,1.839000640E0
1.279564021E1,-4.566255887E-1,-1.148069218E0,-1.234947733E0,1.746901761E0
1.280558621E1,-4.115548119E-2,-1.233170764E0,-9.215901840E-1,1.540042978E0
1.281553221E1,2.345362052E-1,-1.232117681E0,-3.812641883E-1,1.310909452E0
1.282547821E1,6.178860953E-1,-1.213326484E0,3.959500551E-2,1.362171850E0
1.283542421E1,1.045047857E0,-1.326454319E0,1.751977837E-1,1.697733886E0
1.284537021E1,1.341531950E0,-1.428598160E0,1.398268068E-1,1.964727007E0
1.285531621E1,1.510858690E0,-1.486348186E0,-5.454224288E-2,2.120117866E0
1.286526221E1,1.662412234E0,-1.632065477E0,-1.572409844E-1,2.334946870E0
1.287520821E1,1.253294249E0,-1.762702800E0,3.933562303E-1,2.198316802E0
1.288515421E1,9.151936224E-1,-1.677664989E0,1.226224857E0,2.270631318E0
1.289510021E1,5.730312270E-1,-1.371521442E0,1.862061612E0,2.382584584E0
1.290504621E1,5.073319119E-1,-8.776957208E-1,2.606967065E0,2.797143673E0
1.291499221E1,8.329864481E-1,-7.894170901E-1,3.377536533E0,3.567183594E0
1.292493821E1,1.082926266E0,-1.216166184E0,3.667402309E0,4.012683538E0
1.293488421E1,9.767294276E-1,-1.526666199E0,3.839406343E0,4.245674402E0
1.294483021E1,8.550672886E-1,-1.346716676E0,4.050402535E0,4.353222550E0
1.295477621E1,7.381656602E-1,-1.066191827E0,3.991763148E0,4.197121226E0
1.296472221E1,6.549553961E-1,-9.323107615E-1,3.921417051E0,4.083586856E0
1.297466821E1,5.792275214E-1,-7.365576759E-1,3.920318359E0,4.030746552E0
1.298461421E1,5.626459873E-1,-5.594294339E-1,3.824039276E0,3.905484372E0
1.299456021E1,6.611984682E-1,-5.606333756E-1,3.705093461E0,3.805155811E0
1.300450621E1,8.791984552E-1,-8.609411091E-1,3.755580075E0,3.952036338E0
1.301445221E1,1.163835943E0,-1.253388390E0,4.098625692E0,4.441196812E0
1.302439821E1,1.711837286E0,-1.733774578E0,4.791860470E0,5.375712785E0
1.303434421E1,2.029819691E0,-2.530613246E0,5.476425582E0,6.365171524E0
1.304429021E1,2.338482218E0,-3.292123330E0,6.117476299E0,7.330081267E0
1.305423621E1,2.781010316E0,-4.068251161E0,6.401809439E0,8.078852021E0
1.306418221E1,2.634150186E0,-4.798190081E0,6.321667501E0,8.362108302E0
1.307412821E1,2.143435915E0,-5.398743567E0,6.250517997E0,8.532861469E0
1.308407421E1,1.612201170E0,-5.590794781E0,6.059145645E0,8.400560984E0
1.309402021E1,1.286730090E0,-5.238886539E0,5.593701432E0,7.771171224E0
1.310396621E1,8.695115192E-1,-4.494725436E0,4.521292845E0,6.434337263E0
1.311391221E1,-1.986522813E-1,-3.163458273E0,3.200978687E0,4.504796947E0
1.312385821E1,-3.816027421E-1,-2.013122090E0,1.568133191E0,2.580178851E0
1.313380421E1,-7.586031407E-2,-1.520175498E0,4.152254015E-1,1.577688329E0
1.314375021E1,-2.027830468E-1,-8.162748134E-1,-6.418941781E-1,1.058042377E0
1.315369621E1,3.987045322E-1,-5.860728568E-1,-2.135367781E0,2.249942723E0
1.316364221E1,5.412960488E-1,-6.632935256E-1,-3.477884694E0,3.581709320E0
1.317358821E1,3.813619830E-1,-8.167601323E-1,-4.506419283E0,4.595688069E0
1.318353421E1,6.337684487E-1,-1.332762296E0,-5.273551172E0,5.476153737E0
1.319348021E1,8.413697474E-1,-1.962485787E0,-5.571811795E0,5.966937254E0
1.320342621E1,6.348785426E-1,-2.284106036E0,-5.465403580E0,5.957419529E0
1.321337221E1,4.753064194E-1,-2.102562270E0,-5.737435933E0,6.129017488E0
1.322331821E1,5.471274769E-1,-1.842694464E0,-5.929990007E0,6.233751105E0
1.323326421E1,3.806439449E-1,-1.773576282E0,-5.933656796E0,6.204735741E0
1.324321021E1,1.864665377E-1,-1.609066039E0,-5.938984194E0,6.155923695E0
1.325315621E1,2.272146142E-1,-1.796311426E0,-5.631685529E0,5.915593218E0
1.326310221E1,2.262870996E-1,-1.616337052E0,-5.507560835E0,5.744299581E0
1.327304821E1,3.263205341E-1,-1.426929950E0,-5.302523541E0,5.500851759E0
1.328299421E1,1.629382190E-1,-1.403639320E0,-4.779219375E0,4.983742573E0
1.329294021E1,1.215028024E-1,-1.275771239E0,-4.426185544E0,4.607979346E0
1.330288621E1,1.838487393E-1,-1.142946473E0,-4.179042449E0,4.336418198E0
1.331283221E1,2.084324804E-1,-1.075839733E0,-3.892867436E0,4.044167665E0
1.332277821E1,3.059786555E-1,-1.047816952E0,-3.616827402E0,3.777960264E0
1.333272421E1,4.359121196E-1,-1.096044202E0,-3.391328945E0,3.590605002E0
1.334267021E1,5.847411534E-1,-1.226335954E0,-2.983607275E0,3.278373753E0
1.335261621E1,6.159709860E-1,-1.202630757E0,-2.561929471E0,2.896415649E0
1.336256221E1,6.376132853E-1,-1.167283754E0,-2.238024715E0,2.603431713E0
1.337250821E1,4.421082678E-1,-1.190523512E0,-1.861682712E0,2.253590130E0
1.338245421E1,2.270142008E-1,-1.104695742E0,-1.441641544E0,1.830360203E0
1.339240021E1,4.369828910E-2,-7.887461221E-1,-1.217690261E0,1.451481849E0
1.340234621E1,-1.536486013E-1,-4.471020824E-1,-1.149456763E0,1.242883347E0
1.341229221E1,-2.933792214E-1,-1.926733571E-1,-1.281941513E0,1.329123182E0
1.342223787E1,-3.882003017E-1,-7.381992817E-2,-1.480408876E0,1.532239961E0
1.343218387E1,-4.687980299E-1,-1.662772715E-2,-1.686960600E0,1.750966630E0
1.344212987E1,-4.311505857E-1,-8.706913412E-2,-1.874705631E0,1.925614984E0
1.345207587E1,-9.692987859E-2,-4.228419846E-1,-1.934613279E0,1.982654606E0
1.346202187E1,1.657216398E-1,-1.067127966E0,-1.671260533E0,1.989808415E0
1.347196787E1,2.110517406E-1,-1.676754577E0,-9.710465187E-1,1.949097250E0
1.348191387E1,4.419655958E-1,-2.139247701E0,-8.427942753E-2,2.186050625E0
1.349185987E1,7.127595082E-1,-1.541457608E0,4.185477895E-1,1.749085454E0
1.350180587E1,9.463971426E-1,-1.209053339E0,9.171954167E-1,1.788497962E0
1.351175187E1,9.706695195E-1,-1.203709568E0,1.263026648E0,1.996585173E0
1.352169787E1,1.086173663E0,-1.630177996E0,1.031823063E0,2.214026278E0
1.353164388E1,1.125294606E0,-1.891705826E0,7.159009248E-1,2.314595648E0
1.354158987E1,1.007780774E0,-1.488285953E0,1.041992540E0,2.077586489E0
1.355153587E1,8.396744934E-1,-1.083614191E0,1.642526731E0,2.139431474E0
1.356148187E1,6.413281676E-1,-1.074985455E0,2.331509414E0,2.646286397E0
1.357142787E1,7.458035856E-1,-1.291939375E0,3.003518799E0,3.353573544E0
1.358137388E1,1.316839450E0,-1.678166680E0,3.298391545E0,3.928065215E0
1.359131987E1,1.619147516E0,-1.987443457E0,3.403903382E0,4.261235550E0
1.360126587E1,1.593075366E0,-2.009746492E0,3.523465494E0,4.357955848E0
1.361121187E1,1.363597003E0,-1.695548113E0,3.632065830E0,4.233932260E0
1.362115787E1,9.925405911E-1,-1.186434262E0,3.743662280E0,4.050650608E0
1.363110387E1,7.098741996E-1,-8.093166268E-1,3.650079347E0,3.805521518E0
1.364104987E1,4.758847091E-1,-5.472034907E-1,3.473233818E0,3.548133463E0
1.365099587E1,2.263351929E-1,-4.132800329E-1,3.277378407E0,3.311077955E0
1.366094187E1,-4.121293008E-2,-3.934220114E-1,3.156053360E0,3.180747112E0
1.367088787E1,-2.136481968E-1,-3.175786543E-1,3.007073906E0,3.031335552E0
1.368083387E1,-2.014710778E-1,-3.737861842E-1,2.852649525E0,2.884079753E0
1.369077987E1,-8.723651066E-2,-6.669193840E-1,2.861764165E0,2.939742474E0
1.370072587E1,1.301742232E-1,-8.999929082E-1,3.108885625E0,3.239151493E0
1.371067187E1,6.696498875E-1,-1.361256362E0,3.453850883E0,3.772338238E0
1.372061787E1,1.567517041E0,-2.203748336E0,4.390090681E0,5.156211069E0
1.373056387E1,2.279934779E0,-2.999219926E0,5.511170906E0,6.675809129E0
1.374050987E1,2.748094001E0,-3.889516397E0,6.134375921E0,7.766010970E0
1.375045587E1,2.941519017E0,-4.820402484E0,6.663517363E0,8.734487843E0
1.376040187E1,2.600508231E0,-5.423076755E0,6.774736667E0,9.059219694E0
1.377034787E1,1.790533354E0,-5.519464012E0,6.106817994E0,8.423996598E0
1.378029387E1,9.175640836E-1,-4.991215441E0,5.306203778E0,7.342339815E0
1.379023988E1,3.815065554E-1,-3.572865111E0,3.784215644E0,5.218352268E0
1.380018587E1,-2.880812055E-1,-1.875384493E0,1.862517110E0,2.658764330E0
1.381013187E1,-4.530381757E-1,-7.370631677E-1,3.562185171E-1,9.356267064E-1
1.382007787E1,-1.335194153E-1,-1.843744040E-1,-9.209200931E-1,9.486385892E-1
1.383002387E1,2.169846180E-1,-2.440750605E-1,-2.205249024E0,2.229299939E0
1.383996987E1,2.624034503E-1,-5.060478634E-1,-3.498886138E0,3.545016815E0
1.384991587E1,2.391869344E-1,-9.339465201E-1,-4.513047686E0,4.614874420E0
1.385986187E1,4.530674118E-1,-1.327982782E0,-5.052856203E0,5.244059893E0
1.386980787E1,5.039140682E-1,-1.591539595E0,-5.245296257E0,5.504549072E0
1.387975387E1,3.776197650E-1,-1.730108666E0,-5.151539662E0,5.447406132E0
1.388969987E1,6.509851366E-2,-1.606515484E0,-5.336506974E0,5.573458217E0
1.389964587E1,-9.731126323E-2,-1.353815196E0,-5.722460044E0,5.881227255E0
1.390959187E1,-5.527431428E-2,-1.035405652E0,-6.034075708E0,6.122514987E0
1.391953787E1,7.349847749E-2,-1.315036461E0,-6.130403908E0,6.270293055E0
1.392948387E1,1.224621843E-1,-1.411593288E0,-5.926226154E0,6.093254387E0
1.393942987E1,2.921716252E-1,-1.034905130E0,-5.953395241E0,6.049736175E0
1.394937587E1,5.709285682E-1,-9.748407769E-1,-5.999330968E0,6.104772398E0
1.395932187E1,6.272507036E-1,-1.323626606E0,-5.480046178E0,5.672418968E0
1.396926787E1,7.691716906E-1,-1.584912361E0,-4.844699419E0,5.155063990E0
1.397921387E1,8.736953482E-1,-1.828143668E0,-4.095236646E0,4.569071680E0
1.398915987E1,7.295898414E-1,-1.981041926E0,-3.284816942E0,3.904721602E0
1.399910588E1,6.657769842E-1,-1.957388184E0,-2.659281227E0,3.368442391E0
1.400905187E1,6.694665773E-1,-1.622559074E0,-2.236212224E0,2.842802940E0
1.401899787E1,5.052533729E-1,-1.174384612E0,-1.959775017E0,2.339909893E0
1.402894387E1,2.778417076E-1,-7.509134674E-1,-1.837856186E0,2.004690103E0
1.403888987E1,1.050908375E-1,-2.071615881E-1,-1.901330928E0,1.915468429E0
1.404883588E1,-1.484220676E-1,1.780366069E-1,-2.018671682E0,2.031935408E0
1.405878187E1,-3.273287402E-1,1.927575570E-1,-2.151228645E0,2.184510074E0
1.406872787E1,-2.690039335E-1,2.356018603E-1,-2.315528681E0,2.342977683E0
1.407867387E1,-7.582040682E-2,1.999379379E-1,-2.298289627E0,2.308215572E0
1.408861987E1,1.941797461E-1,-1.950011337E-1,-2.109013503E0,2.126891904E0
1.409856587E1,4.866868553E-1,-9.240571243E-1,-1.617147476E0,1.925074446E0
1.410851187E1,6.412106386E-1,-1.489701564E0,-9.696934730E-1,1.889620931E0
1.411845787E1,6.856053311E-1,-1.655114617E0,-6.076867971E-1,1.891756408E0
1.412840387E1,5.509021470E-1,-1.679767063E0,-3.685195971E-1,1.805801001E0
1.413834987E1,2.979084747E-1,-1.621580835E0,-1.631162667E-1,1.656768173E0
1.414829587E1,1.658210425E-1,-1.795572923E0,5.034803510E-2,1.803916202E0
1.415824187E1,5.331622794E-2,-1.818877001E0,3.039464557E-1,1.844868454E0
1.416818787E1,3.935410023E-2,-1.618508123E0,4.888073480E-1,1.691168210E0
1.417813387E1,1.165244830E-1,-1.413915217E0,6.555658454E-1,1.562850208E0
1.418807987E1,2.595178494E-1,-1.326311647E0,8.509675133E-1,1.597059112E0
1.419802587E1,4.565998609E-1,-1.182126911E0,1.273028310E0,1.796248464E0
1.420797187E1,5.331605253E-1,-1.091833037E0,1.675969296E0,2.070080339E0
1.421791787E1,8.736763448E-1,-1.124454069E0,2.127597123E0,2.560151720E0
1.422786387E1,1.272589476E0,-1.434506187E0,2.251721233E0,2.957624128E0
1.423780987E1,1.413195717E0,-1.522878081E0,2.072397069E0,2.934469184E0
1.424775587E1,1.498393742E0,-1.254575667E0,1.980593444E0,2.782425974E0
1.425770188E1,1.631289552E0,-1.077696224E0,2.110203411E0,2.876715695E0
1.426764787E1,1.522797974E0,-1.255743940E0,2.190775119E0,2.948779771E0
1.427759387E1,1.044275001E0,-1.132945395E0,2.611809145E0,3.032428491E0
1.428753987E1,5.957479522E-1,-8.598582047E-1,3.009285908E0,3.185917988E0
1.429748587E1,3.859369907E-1,-5.945852333E-1,3.117426068E0,3.197002385E0
1.430743188E1,2.745203429E-1,-4.265532124E-1,3.266780913E0,3.305929006E0
1.431737787E1,1.650689444E-1,-3.485797146E-1,3.247935922E0,3.270755773E0
1.432732387E1,1.734757787E-1,-3.606012976E-1,3.156550373E0,3.181813539E0
1.433726987E1,2.515650514E-1,-3.374708819E-1,3.234602516E0,3.261874462E0
1.434721587E1,3.538889864E-1,-4.464951414E-1,3.295851515E0,3.344732057E0
1.435716187E1,5.650410068E-1,-7.239975643E-1,3.587279667E0,3.702974375E0
1.436710787E1,1.361126115E0,-1.279036909E0,4.232923372E0,4.626687799E0
1.437705387E1,2.093911460E0,-2.266752085E0,4.787724150E0,5.696045361E0
1.438699987E1,1.996472874E0,-2.977479978E0,5.406326237E0,6.486883253E0
1.439694587E1,2.150399656E0,-3.229872703E0,5.886220089E0,7.050098106E0
1.440689187E1,2.207483392E0,-3.425325242E0,5.580035904E0,6.909604665E0
1.441684225E1,1.765696136E0,-3.625326914E0,5.363866096E0,6.710569094E0
1.442678825E1,1.173506361E0,-3.794041890E0,4.829462160E0,6.252645504E0
1.443673425E1,5.954896514E-1,-3.709362513E0,3.686221572E0,5.263288673E0
1.444668025E1,2.134692720E-1,-3.012304240E0,2.855179616E0,4.155911044E0
1.445662625E1,-1.708892629E-2,-2.191550460E0,1.963357607E0,2.942440915E0
1.446657225E1,-3.557216500E-1,-1.517154826E0,8.493449110E-1,1.774734751E0
1.447651825E1,-2.957381344E-1,-1.053630838E0,-2.724323022E-1,1.127749239E0
1.448646425E1,2.919222414E-2,-9.579353070E-1,-1.352749833E0,1.657837250E0
1.449641025E1,-1.298149118E-1,-8.696961451E-1,-2.517574248E0,2.666721468E0
1.450635625E1,1.449717718E-1,-8.832727951E-1,-3.775107436E0,3.879771101E0
1.451630225E1,3.397508575E-1,-7.963913566E-1,-4.622627724E0,4.703015725E0
1.452624825E1,5.415097645E-1,-7.994476962E-1,-5.006956730E0,5.099212208E0
1.453619425E1,4.217125949E-1,-7.991190827E-1,-5.350037431E0,5.425802552E0
1.454614025E1,-7.260604620E-2,-6.700569999E-1,-5.563756671E0,5.604430062E0
1.455608625E1,-2.983215804E-1,-6.104440516E-1,-5.482741744E0,5.524680510E0
1.456603225E1,-3.874033262E-1,-5.033066887E-1,-5.406819157E0,5.443995992E0
1.457597825E1,-4.204729852E-1,-3.523678333E-1,-5.591006450E0,5.617856686E0
1.458592425E1,-4.113421194E-1,-3.593722129E-1,-5.582350232E0,5.609009256E0
1.459587025E1,-2.836789830E-1,-4.355883300E-1,-5.433028716E0,5.457839499E0
1.460581625E1,-8.515884876E-2,-5.521514046E-1,-5.234552583E0,5.264281902E0
1.461576225E1,-1.143136507E-1,-7.227146852E-1,-4.879868375E0,4.934419873E0
1.462570825E1,5.198350132E-2,-9.059962445E-1,-4.395088004E0,4.487797906E0
1.463565425E1,2.293707749E-1,-1.076863580E0,-3.986582515E0,4.135829575E0
1.464560025E1,3.109695464E-1,-1.326299368E0,-3.484775637E0,3.741581660E0
1.465554625E1,3.448005129E-1,-1.366612996E0,-3.052866668E0,3.362515928E0
1.466549225E1,2.739306512E-1,-1.220213919E0,-2.695476953E0,2.971456885E0
1.467543825E1,1.818757425E-1,-1.012027314E0,-2.306657285E0,2.525459543E0
1.468538425E1,9.826318994E-2,-7.953827119E-1,-2.025846800E0,2.178610697E0
1.469533025E1,6.429861456E-2,-6.320009816E-1,-1.891839727E0,1.995649545E0
1.470527625E1,4.405087620E-2,-5.268902636E-1,-1.881632243E0,1.954506006E0
1.471522225E1,7.712404355E-2,-5.015215337E-1,-1.850209891E0,1.918527718E0
1.472516825E1,2.016309991E-2,-3.599855858E-1,-1.808150284E0,1.843747168E0
1.473511425E1,-2.273075849E-2,-3.263886541E-1,-1.657496188E0,1.689479166E0
1.474506025E1,7.765365511E-2,-5.558263797E-1,-1.288441570E0,1.405366406E0
1.475500625E1,3.287911288E-1,-9.534908384E-1,-7.698783267E-1,1.268842395E0
1.476495225E1,6.220469740E-1,-1.486893731E0,-8.437415242E-2,1.613974722E0
1.477489825E1,8.450593404E-1,-1.700351016E0,5.037224257E-1,1.964447797E0
1.478484425E1,8.976800421E-1,-1.717104458E0,9.338517952E-1,2.150896639E0
1.479479025E1,1.001274431E0,-1.802725822E0,1.319192662E0,2.447986960E0
1.480473625E1,1.019747685E0,-1.174115641E0,1.566049243E0,2.207021321E0
1.481468225E1,1.004015021E0,-4.050728810E-1,1.544504008E0,1.886166173E0
1.482462825E1,9.444386177E-1,-3.663374162E-1,1.447456015E0,1.766719084E0
1.483457425E1,6.798467007E-1,-5.435899115E-1,1.389282067E0,1.639446916E0
1.484452025E1,4.356713605E-1,-2.969081622E-1,1.480068861E0,1.571167662E0
1.485446625E1,3.287294407E-1,-2.498842692E-1,1.529483095E0,1.584242321E0
1.486441225E1,2.440453859E-1,-4.588117164E-1,1.827798682E0,1.900240607E0
1.487435825E1,3.150147964E-1,-6.204989237E-1,2.037495623E0,2.153054029E0
1.488430425E1,4.421228859E-1,-7.441494083E-1,2.152007495E0,2.319561865E0
1.489425025E1,4.719489482E-1,-7.491797680E-1,2.347117971E0,2.508579061E0
1.490419625E1,5.084931690E-1,-6.788839567E-1,2.381280329E0,2.527834000E0
1.491414225E1,4.700271146E-1,-4.668177241E-1,2.344441701E0,2.436237091E0
1.492408825E1,3.860558353E-1,-1.222068071E-2,2.324141337E0,2.356018126E0
1.493403425E1,2.274884100E-1,6.096131623E-1,2.261311836E0,2.353064046E0
1.494398025E1,1.265887105E-1,7.133603096E-1,2.272460137E0,2.385158843E0
1.495392625E1,5.690393329E-2,3.482455462E-1,2.442443374E0,2.467801178E0
1.496387225E1,1.294368893E-2,1.759643537E-1,2.628731571E0,2.634646213E0
1.497381825E1,9.378451511E-2,-6.569931507E-3,2.762379625E0,2.763978997E0
1.498376425E1,3.905003040E-1,-5.198209798E-1,3.094172861E0,3.161741614E0
1.499371025E1,7.415835039E-1,-9.801634973E-1,3.457241684E0,3.669221530E0
1.500365625E1,1.149577215E0,-1.298046792E0,4.073493775E0,4.427166676E0
1.501360225E1,1.584706977E0,-1.980449018E0,4.989306909E0,5.597022240E0
1.502354825E1,1.862803624E0,-2.709834207E0,5.834159989E0,6.697063651E0
1.503349425E1,1.697549469E0,-3.290029442E0,6.643412881E0,7.605320680E0
1.504344025E1,1.637731283E0,-3.951080561E0,7.142615409E0,8.325272142E0
1.505338625E1,2.033732209E0,-4.709662651E0,7.308441861E0,8.929183133E0
1.506333225E1,2.142401689E0,-5.400132281E0,7.364482160E0,9.380133855E0
1.507327825E1,1.682063410E0,-6.132386114E0,7.308000981E0,9.687227421E0
1.508322425E1,9.481158585E-1,-6.026072624E0,6.907159145E0,9.215276578E0
1.509317025E1,6.607127108E-1,-5.141760778E0,5.088486797E0,7.264085838E0
1.510311625E1,8.212556179E-1,-4.323176900E0,3.449216380E0,5.591190654E0
1.511306225E1,5.412127259E-1,-3.433796688E0,1.945234746E0,3.983441869E0
1.512300825E1,5.167516302E-1,-2.913603825E0,2.296400392E-1,2.967971368E0
1.513295425E1,2.910680363E-1,-2.596923888E0,-1.595993127E0,3.062013772E0
1.514290025E1,-4.350803532E-2,-1.910194137E0,-3.267757398E0,3.785362995E0
1.515284625E1,1.190007057E-1,-1.608291283E0,-4.787524760E0,5.051846726E0
1.516279225E1,4.766506943E-1,-1.802905331E0,-6.093231404E0,6.372215663E0
1.517273825E1,3.728189085E-1,-1.568124420E0,-6.875902269E0,7.062297087E0
1.518268425E1,5.091648678E-1,-1.684639547E0,-7.539443132E0,7.742122577E0
1.519263025E1,6.593457779E-1,-2.249353110E0,-7.698479211E0,8.047416258E0
1.520257625E1,3.888430569E-1,-2.157200407E0,-7.514162695E0,7.827346519E0
1.521252225E1,2.998960894E-1,-1.592975087E0,-7.273453292E0,7.451887685E0
1.522246825E1,2.635063814E-1,-1.692230403E0,-6.987613324E0,7.194429742E0
1.523241425E1,2.329688591E-1,-1.825989554E0,-6.453720435E0,6.711111666E0
1.524236025E1,4.194301343E-1,-1.920199308E0,-5.658780942E0,5.990399717E0
1.525230625E1,5.569284336E-1,-1.989304041E0,-5.251718838E0,5.643407712E0
1.526225225E1,4.139777519E-1,-1.787595567E0,-5.081982354E0,5.403093571E0
1.527219825E1,2.407726993E-1,-1.628044347E0,-4.504148224E0,4.795398952E0
1.528214425E1,1.757252026E-1,-1.455232812E0,-3.896688591E0,4.163263607E0
1.529209025E1,2.222224076E-1,-1.203048248E0,-3.514832080E0,3.721659903E0
1.530203625E1,3.350897495E-1,-9.021955544E-1,-3.151107200E0,3.294801746E0
1.531198325E1,3.145038959E-1,-6.033566415E-1,-2.676642487E0,2.761768807E0
1.532192825E1,2.333699781E-1,-3.398126918E-1,-2.273640105E0,2.310708450E0
1.533187525E1,2.439937842E-1,-2.175959444E-1,-2.038082099E0,2.064136527E0
1.534182125E1,1.384527111E-1,-6.888020039E-2,-1.784990632E0,1.791676643E0
1.535176725E1,3.579343826E-2,-1.574304342E-2,-1.590684294E0,1.591164836E0
1.536171325E1,9.370323882E-2,-1.826629239E-1,-1.559641280E0,1.573094708E0
1.537165925E1,2.319438422E-1,-3.189065570E-1,-1.639908932E0,1.686653683E0
1.538160525E1,6.145362255E-1,-4.586187583E-1,-1.592312012E0,1.767326648E0
1.539155125E1,5.966384831E-1,-5.437647432E-1,-1.516416030E0,1.717898470E0
1.540149625E1,4.047261411E-1,-7.843227035E-1,-1.473992142E0,1.718027411E0
1.541144325E1,4.529729792E-1,-1.122896370E0,-8.879049593E-1,1.501484597E0
1.542138496E1,2.856614815E-1,-1.000000761E0,-1.272786820E-1,1.047761360E0
1.543133096E1,3.001112670E-1,-8.985515696E-1,2.074466398E-1,9.697916292E-1
1.544127696E1,4.078399296E-1,-1.047023485E0,6.305342075E-1,1.288473893E0
1.545122296E1,5.336527146E-1,-1.129742290E0,1.123684575E0,1.680407655E0
1.546116896E1,7.240019497E-1,-8.283633471E-1,1.218749776E0,1.641863477E0
1.547111496E1,7.340803568E-1,-5.111518979E-2,1.030691627E0,1.266416978E0
1.548106096E1,6.972485992E-1,2.277402788E-1,4.144623399E-1,8.424964539E-1
1.549100696E1,6.771843173E-1,-2.570219654E-1,-3.122027242E-1,7.887391402E-1
1.550095296E1,5.653162645E-1,-5.296086341E-1,-3.145965743E-1,8.360853956E-1
1.551089896E1,7.419395994E-1,-9.213820231E-1,1.073893780E-1,1.187834871E0
1.552084496E1,9.353428352E-1,-1.632367778E0,7.548772949E-1,2.027148370E0
1.553079096E1,9.138573875E-1,-1.888760583E0,1.685397931E0,2.691304155E0
1.554073696E1,8.825301987E-1,-1.674636131E0,2.309572999E0,2.986200456E0
1.555068296E1,8.171040948E-1,-1.510511804E0,2.700382767E0,3.200214384E0
1.556062896E1,5.440362002E-1,-1.420946494E0,3.010206259E0,3.372892831E0
1.557057496E1,4.020048469E-1,-1.335956045E0,3.154234291E0,3.448997015E0
1.558052096E1,4.771061924E-1,-1.131857813E0,3.160486718E0,3.390782907E0
1.559046696E1,5.176078087E-1,-8.305899668E-1,2.978354137E0,3.135026459E0
1.560041296E1,4.587503207E-1,-6.019229043E-1,2.932182768E0,3.028276544E0
1.561035896E1,3.605121276E-1,-4.571306419E-1,2.941237766E0,2.998302355E0
1.562030496E1,3.194730060E-1,-4.598560292E-1,3.127775640E0,3.177500751E0
1.563025096E1,4.066598153E-1,-4.749202108E-1,3.308656332E0,3.367213706E0
1.564019696E1,7.373856416E-1,-5.764249510E-1,3.468865364E0,3.592913890E0
1.565014296E1,1.027519658E0,-1.144013590E0,3.782407100E0,4.083034070E0
1.566008896E1,1.568014931E0,-2.154755686E0,4.684044830E0,5.389055470E0
1.567003496E1,2.203929892E0,-3.002766262E0,5.825893196E0,6.914835047E0
1.567998096E1,2.263934312E0,-3.712560940E0,6.839374713E0,8.104662471E0
1.568992696E1,2.363081016E0,-4.568857021E0,7.295052322E0,8.926163495E0
1.569987296E1,2.315249330E0,-5.566076846E0,7.985330747E0,1.000535347E1
1.570981896E1,2.141461164E0,-5.861934848E0,8.337978662E0,1.041489435E1
1.571976496E1,1.735569381E0,-5.103966131E0,6.867344284E0,8.730583534E0
1.572971096E1,1.195571560E0,-3.888437585E0,5.016486522E0,6.458674418E0
1.573965696E1,1.023276042E0,-2.945988629E0,3.537670135E0,4.716042074E0
1.574960296E1,9.636075447E-1,-2.377909409E0,1.888700649E0,3.185935153E0
1.575954896E1,1.672664742E-1,-1.671621891E0,3.580694532E-1,1.717705316E0
1.576949496E1,6.217315167E-2,-1.282285037E0,-1.223327562E0,1.773316311E0
1.577944096E1,2.128271015E-1,-1.679512709E0,-2.865350847E0,3.328106638E0
1.578938696E1,1.620000333E-1,-2.046722530E0,-4.327410284E0,4.789759586E0
1.579933296E1,1.974946788E-1,-1.788876691E0,-5.710203111E0,5.987111451E0
1.580927896E1,2.545485932E-1,-1.582812626E0,-6.834374759E0,7.019883841E0
1.581922496E1,7.942857742E-2,-1.487867877E0,-7.604582283E0,7.749176177E0
1.582917096E1,7.959171474E-2,-1.267958774E0,-8.061514120E0,8.161008774E0
1.583911696E1,2.611919072E-1,-1.163178424E0,-8.169070144E0,8.255598844E0
1.584906296E1,4.438118541E-1,-1.333118976E0,-7.872596430E0,7.996996293E0
1.585900896E1,4.690668556E-1,-1.101252902E0,-7.246828580E0,7.345019138E0
1.586895496E1,5.045448366E-1,-8.810543615E-1,-6.593742539E0,6.671451337E0
1.587890096E1,5.598916563E-1,-1.195552703E0,-5.750661750E0,5.900248765E0
1.588884696E1,6.856604411E-1,-1.559521996E0,-4.758075843E0,5.053862367E0
1.589879296E1,7.925620151E-1,-1.619760012E0,-4.008018408E0,4.394995859E0
1.590873896E1,8.185271609E-1,-1.663141090E0,-3.287209915E0,3.773827503E0
1.591868496E1,8.341029739E-1,-1.673333956E0,-2.662817915E0,3.253670781E0
1.592863096E1,7.745601922E-1,-1.419722087E0,-2.248826276E0,2.769977241E0
1.593857696E1,7.007048884E-1,-9.734146410E-1,-1.994783467E0,2.327591993E0
1.594852296E1,4.739773473E-1,-5.492985481E-1,-1.750303779E0,1.894715477E0
1.595846896E1,3.205798839E-1,-2.615547270E-1,-1.483140549E0,1.539768887E0
1.596841496E1,2.206718722E-1,-1.023555100E-2,-1.404366129E0,1.421634646E0
1.597836096E1,8.125641704E-2,1.083898365E-1,-1.441712734E0,1.448063040E0
1.598830696E1,-2.370139629E-2,1.043786466E-2,-1.462113816E0,1.462343159E0
