"Time (s)","Linear Acceleration x (m/s^2)","Linear Acceleration y (m/s^2)","Linear Acceleration z (m/s^2)","Absolute acceleration (m/s^2)"
5.372499931E-3,-5.502823787E-2,-1.436276249E-2,-6.768736839E-3,5.727313251E-2
1.531549997E-2,-5.400998181E-2,-2.461300462E-2,-3.790516019E-2,7.042499059E-2
2.525950002E-2,-2.288496966E-2,-1.012589287E-2,-5.542107940E-2,6.080914063E-2
3.520249994E-2,1.959169904E-2,1.699200869E-3,-1.186166167E-2,2.296564766E-2
4.514649999E-2,2.719951132E-2,1.660048735E-2,-2.024364531E-2,3.775175190E-2
5.509049993E-2,3.104123251E-2,2.753522601E-2,-4.299750030E-2,5.975392723E-2
6.503349997E-2,3.258701705E-2,1.199188556E-2,-4.629006743E-2,5.786613295E-2
7.497750001E-2,-3.444183609E-3,-2.130490582E-2,-1.874675810E-2,2.858675134E-2
8.492049994E-2,-4.212378924E-2,-1.686105846E-2,-4.014932156E-2,6.058611172E-2
9.486449999E-2,-5.029317177E-2,-1.799026544E-2,-2.233636379E-2,5.789616503E-2
1.048084999E-1,-4.464322655E-2,-3.106597811E-2,-3.296426296E-2,6.359839075E-2
1.147515000E-1,-1.053307378E-2,-1.680089153E-2,-3.925118923E-2,4.397580534E-2
1.246955000E-1,2.472895307E-2,2.100677091E-2,-2.832449734E-2,4.307067092E-2
1.346384999E-1,3.365187725E-2,2.272928983E-2,-2.338593900E-2,4.686119505E-2
1.445825000E-1,6.132595408E-2,3.986661325E-2,-8.866717815E-3,7.368064997E-2
1.545264999E-1,4.452808209E-2,2.300193453E-2,-5.766524076E-2,7.640104109E-2
1.644695000E-1,1.405639580E-2,3.607092518E-4,-2.473255277E-2,2.845015888E-2
1.744135000E-1,-2.761597926E-2,-8.375423793E-3,-1.485192776E-2,3.245565886E-2
1.843564999E-1,-5.791466106E-2,-2.424438335E-2,-3.760168970E-2,7.318323003E-2
1.943005000E-1,-7.744709308E-2,-5.648983622E-2,-2.413028955E-2,9.885051693E-2
2.042445000E-1,-6.186308479E-2,-4.686674908E-2,-3.999846339E-2,8.731214407E-2
2.141875000E-1,-2.991191589E-2,-1.001569569E-2,-2.622943997E-2,4.102463155E-2
2.241315000E-1,6.619724203E-3,3.688999219E-3,-3.296718657E-2,3.382698411E-2
2.340744999E-1,3.785977118E-2,2.404404312E-2,-3.162057281E-2,5.487566772E-2
2.440185000E-1,5.413859314E-2,2.768127164E-2,-3.431380033E-2,6.981888685E-2
2.539625000E-1,4.154858767E-2,3.681125121E-2,-3.176967680E-2,6.395831234E-2
2.639054999E-1,2.783366927E-2,2.402011065E-2,-2.413555205E-2,4.397958314E-2
2.738495000E-1,1.820174279E-3,-1.110788248E-3,-2.458461821E-2,2.467691913E-2
2.837924999E-1,-2.519755259E-2,-2.466309881E-2,-3.730699003E-2,5.133221800E-2
2.937365000E-1,-4.834629564E-2,-2.493779917E-2,-3.012134671E-2,6.218161832E-2
3.036805000E-1,-6.085042926E-2,-2.995856114E-2,-2.623002470E-2,7.272072829E-2
3.136234999E-1,-5.239363781E-2,-3.065310986E-2,-2.413496733E-2,6.532383237E-2
3.235675000E-1,-3.409209036E-2,-2.124920652E-2,-3.326714873E-2,5.215843736E-2
3.335104999E-1,-5.452236235E-3,-1.368271303E-3,-1.844913483E-2,1.928651400E-2
3.434545000E-1,2.814768302E-2,2.196214656E-2,-3.401734650E-2,4.931336334E-2
3.533985000E-1,4.927242151E-2,4.368563536E-2,-3.027571321E-2,7.247637593E-2
3.633414999E-1,6.135118847E-2,2.976488583E-2,-2.443609893E-2,7.243645274E-2
3.732855000E-1,2.821088777E-2,1.586177845E-2,-3.162174225E-2,4.524803628E-2
3.832285000E-1,-1.749460428E-2,-4.562093583E-3,-2.353855133E-2,2.968058752E-2
3.931725000E-1,-5.248502797E-2,-2.797149911E-2,-3.311804473E-2,6.807266566E-2
4.031155000E-1,-6.350065235E-2,-2.995183684E-2,-2.174053252E-2,7.349895328E-2
4.130594999E-1,-3.468337177E-2,-2.696406953E-2,-3.641061187E-2,5.705900437E-2
4.230035000E-1,-3.731428077E-3,1.524021942E-3,-3.416586578E-2,3.440279905E-2
4.329465000E-1,8.849167032E-3,6.195627479E-4,-1.515539825E-2,1.756068653E-2
4.428905000E-1,1.028347990E-2,-1.371437022E-3,-3.955582917E-2,4.089369657E-2
4.528335000E-1,1.683076258E-2,1.746414851E-2,-2.144407868E-2,3.237467471E-2
4.627774999E-1,1.654497078E-2,1.729742064E-2,-2.294096589E-2,3.315455828E-2
4.727215000E-1,2.612225320E-3,5.274330131E-3,-3.281983674E-2,3.334342458E-2
4.826645000E-1,-1.268035409E-2,-7.711326275E-3,-2.772925079E-2,3.145102990E-2
4.926084999E-1,-3.407675056E-2,-1.908184467E-2,-3.775664091E-2,5.432223907E-2
5.025515000E-1,-3.157139224E-2,-2.095959575E-2,-1.590208769E-2,4.109664043E-2
5.124954999E-1,-3.531405794E-2,-1.290925659E-2,-3.117092192E-2,4.884012661E-2
5.224395000E-1,-1.460127407E-2,-1.215704199E-2,-3.536279082E-2,4.014371494E-2
5.323825000E-1,1.132401019E-2,1.473690206E-3,-2.862679839E-2,3.082042433E-2
5.423264999E-1,2.567505084E-2,2.381313749E-2,-3.147088408E-2,4.708174060E-2
5.522695000E-1,2.224451683E-2,3.415541845E-2,-1.710076690E-2,4.420234571E-2
5.622134999E-1,3.263525658E-2,2.844546162E-2,-3.311687529E-2,5.450625366E-2
5.721575000E-1,3.880862810E-2,2.201180678E-2,-3.655913115E-2,5.768188037E-2
5.821005000E-1,7.928879242E-3,4.834034792E-3,-3.715671659E-2,3.829956404E-2
5.920444999E-1,-2.857170666E-2,-1.825669748E-2,-2.592947781E-2,4.268474252E-2
6.019875000E-1,-6.546758261E-2,-3.829019934E-2,-3.191585720E-2,8.228466247E-2
6.119315000E-1,-7.707061462E-2,-4.649422662E-2,-3.221523464E-2,9.560028290E-2
6.218792499E-1,-6.739352753E-2,-5.393295388E-2,-3.445939600E-2,9.294138497E-2
6.318222500E-1,-5.356727449E-2,-2.619548044E-2,-2.098507226E-2,6.321415466E-2
6.417662500E-1,-3.064660940E-2,1.256306260E-3,-3.281106591E-2,4.491501998E-2
6.517092499E-1,4.512807037E-2,2.055833972E-2,-1.439876854E-2,5.163828621E-2
6.616532500E-1,7.359016914E-2,3.355371712E-2,-2.891857445E-2,8.589324115E-2
6.715972499E-1,6.273431992E-2,3.439437086E-2,-4.717884421E-2,8.569953899E-2
6.815402500E-1,3.144187641E-2,2.042800162E-2,-1.374680400E-3,3.752045561E-2
6.914842500E-1,-8.391256956E-3,4.049820390E-3,-3.984351218E-2,4.091845184E-2
7.014272499E-1,-1.800199642E-2,-2.725501647E-2,-2.292693257E-2,3.990679184E-2
7.113712500E-1,-6.593074604E-2,-5.186620069E-2,-3.759467304E-2,9.192565196E-2
7.213152499E-1,-1.063954518E-1,-5.355382590E-2,-3.969089985E-2,1.255522678E-1
7.312582500E-1,-8.668501773E-2,-3.946552166E-2,-3.466814160E-3,9.530917322E-2
7.412022500E-1,-2.380109131E-2,-1.337942298E-2,-4.014347434E-2,4.854893860E-2
7.511452499E-1,4.644291731E-2,1.954989373E-2,-2.906767845E-2,5.817278439E-2
7.610892500E-1,4.871038531E-2,3.044208705E-2,-4.014581323E-2,7.007930237E-2
7.710332499E-1,5.404087155E-2,5.075205029E-2,-1.619620264E-2,7.588480340E-2
7.809762500E-1,6.967208697E-2,5.230330747E-2,-3.101714015E-2,9.247647624E-2
7.909202500E-1,5.282045715E-2,2.034198360E-2,-4.029842556E-2,6.948208468E-2
8.008632499E-1,-1.461649510E-2,-8.213177263E-3,-3.131651759E-2,3.552214076E-2
8.108072500E-1,-6.136286463E-2,-1.803053814E-2,-1.545009792E-2,6.579670954E-2
8.207512500E-1,-7.510372091E-2,-3.527659921E-2,-3.520959377E-2,9.013724447E-2
8.306942499E-1,-5.097670214E-2,-3.838696619E-2,-2.667733669E-2,6.916548003E-2
8.406382500E-1,-2.801334324E-2,-3.141872966E-2,-3.790457547E-2,5.664486574E-2
8.505812499E-1,-1.203570770E-2,4.260016372E-3,-3.281749785E-2,3.521355086E-2
8.605252500E-1,2.487320571E-2,2.870053041E-2,-2.324034333E-2,4.452539013E-2
8.704682500E-1,4.971532068E-2,3.055602781E-2,-2.638380647E-2,6.404208921E-2
8.804122499E-1,4.626994022E-2,1.731275131E-2,-4.105271637E-2,6.423366911E-2
8.903562500E-1,1.554541667E-2,1.379724080E-2,-3.775897980E-2,4.310179101E-2
9.002992499E-1,-1.723046545E-2,-2.373279766E-3,-1.246158600E-2,2.139655398E-2
9.102432500E-1,-4.237567632E-2,-2.454917175E-2,-3.551364899E-2,6.049445464E-2
9.201862500E-1,-6.332817776E-2,-4.381344727E-2,-3.970434844E-2,8.664012665E-2
9.301302499E-1,-7.763811431E-2,-5.502603603E-2,-2.922555327E-2,9.954734752E-2
9.400742500E-1,-6.286881502E-2,-2.496005514E-2,-1.275979400E-2,6.883534410E-2
9.500172500E-1,-4.694702039E-3,2.938792314E-3,-3.401793122E-2,3.446587257E-2
9.599612500E-1,3.114337605E-2,1.390699030E-2,-2.952668488E-2,4.511251901E-2
9.699042500E-1,4.708872400E-2,2.975839450E-2,-2.952551544E-2,6.304495248E-2
9.798482499E-1,5.572850590E-2,4.289487710E-2,-2.279010773E-2,7.392581322E-2
9.897922500E-1,4.742979940E-2,3.525332912E-2,-3.730815947E-2,6.988763731E-2
9.997352500E-1,1.972275889E-2,3.956102771E-3,-3.027278960E-2,3.634666089E-2
1.009679250E0,-3.767077820E-3,-1.050592077E-2,-3.326422513E-2,3.508666299E-2
1.019622250E0,-4.085106966E-2,-1.759513984E-2,-3.236609280E-2,5.500875205E-2
1.029566250E0,-6.990754704E-2,-3.367200446E-2,-2.068920314E-2,8.030511904E-2
1.039510250E0,-6.266802711E-2,-4.074341237E-2,-2.817305446E-2,7.988133869E-2
1.049453250E0,-4.188442798E-2,-3.466789949E-2,-3.999729395E-2,6.749779319E-2
1.059397250E0,-2.607720223E-2,-1.216337343E-2,-3.580659449E-2,4.593561079E-2
1.069340250E0,-5.431113169E-3,3.533458714E-3,-2.173527002E-2,2.268048244E-2
1.079284250E0,2.153144888E-2,1.356964250E-2,-2.413028955E-2,3.507148931E-2
1.089228250E0,3.917481911E-2,1.866893075E-2,-4.029784083E-2,5.922086966E-2
1.099171250E0,3.161521895E-2,1.703248238E-2,-3.041721582E-2,4.706202868E-2
1.109115250E0,2.037471430E-3,1.340526722E-2,-2.727375269E-2,3.045833326E-2
1.119058250E0,-2.486205946E-2,-1.286021993E-3,-2.023779809E-2,3.208339640E-2
1.129002250E0,-2.012840034E-2,-2.527669100E-2,-2.577686548E-2,4.133413121E-2
1.138946250E0,-3.559585718E-2,-2.444474642E-2,-2.922087550E-2,5.213895129E-2
1.148889250E0,-4.136082809E-2,-1.425339215E-2,-3.415943384E-2,5.550445215E-2
1.158833250E0,-3.699907931E-2,-5.662014233E-3,-2.952083766E-2,4.767043246E-2
1.168776250E0,1.113711856E-3,-6.787434225E-3,-3.326364040E-2,3.396732828E-2
1.178720250E0,1.214204480E-2,6.923025674E-3,-2.054068387E-2,2.484506450E-2
1.188664250E0,1.706448675E-2,2.246425336E-2,-2.323508084E-2,3.654734421E-2
1.198607250E0,1.688336011E-2,2.141610798E-2,-3.805484891E-2,4.681740120E-2
1.208551250E0,2.133527479E-2,5.936751142E-3,-3.401325345E-2,4.058744110E-2
1.218494250E0,1.184828617E-3,-2.618328352E-3,-3.610831082E-2,3.622250091E-2
1.228438250E0,-2.072688114E-2,-8.988042972E-3,-2.622827053E-2,3.461662452E-2
1.238381250E0,-4.023924077E-2,-1.951160132E-2,-2.682702541E-2,5.214967283E-2
1.248325250E0,-2.665177340E-2,-1.541581862E-2,-2.682702541E-2,4.083691689E-2
1.258269250E0,-2.193050307E-2,-1.618382755E-2,-3.266547024E-2,4.254287467E-2
1.268212250E0,-1.689341915E-2,-1.345584107E-2,-2.128912747E-2,3.032613094E-2
1.278156250E0,-1.427963153E-3,4.666859242E-3,-2.338535428E-2,2.388919104E-2
1.288099250E0,6.214585248E-3,1.350982731E-2,-2.802511990E-2,3.172607523E-2
1.298043250E0,2.382898436E-2,9.501433074E-3,-3.835305691E-2,4.614168073E-2
1.307987250E0,8.297683233E-3,1.412999762E-2,-2.248546779E-2,2.782273606E-2
1.317930250E0,6.376854619E-3,3.170684665E-3,-2.592830837E-2,2.688856060E-2
1.327874250E0,-2.145334287E-3,4.972335147E-3,-3.565632105E-2,3.606521602E-2
1.337817250E0,-1.492194816E-2,-8.764163135E-3,-3.490612328E-2,3.896039701E-2
1.347761250E0,-2.117915413E-2,-1.084711037E-2,-3.325896263E-2,4.089468142E-2
1.357705250E0,-2.891593407E-2,-7.572304155E-3,-2.397767723E-2,3.831970823E-2
1.367648250E0,-2.142473719E-2,-4.480218859E-3,-2.502491355E-2,3.324662423E-2
1.377592250E0,-6.446628347E-3,-4.211379415E-3,-1.978522360E-2,2.123086919E-2
1.387535250E0,-4.154684264E-3,-2.844661279E-3,-4.598016500E-2,4.625504376E-2
1.397479250E0,-3.251463035E-3,6.539973663E-3,-2.891565084E-2,2.982378466E-2
1.407423250E0,-3.805925259E-3,7.307594307E-3,-1.858829856E-2,2.033250710E-2
1.417366250E0,8.189144293E-3,5.554055446E-3,-3.176207542E-2,3.326768780E-2
1.427310250E0,1.147021799E-2,-8.444982818E-3,-3.610246360E-2,3.881071391E-2
1.437253250E0,1.070177509E-3,-2.094564009E-3,-2.801927269E-2,2.811782566E-2
1.447197250E0,-1.035081424E-2,-1.009014719E-2,-2.502725244E-2,2.890179562E-2
1.457141250E0,-8.346233396E-3,-9.923620317E-3,-3.595569849E-2,3.822237703E-2
1.467084250E0,-1.537490638E-2,-5.818948019E-3,-2.936881006E-2,3.365672156E-2
1.477028250E0,-5.029372908E-3,-6.672458779E-3,-2.832215846E-2,2.952898504E-2
1.486971250E0,-1.567976559E-3,3.381942739E-3,-3.011959255E-2,3.034939773E-2
1.496915250E0,-6.204672391E-3,2.541515124E-3,-2.682877958E-2,2.765394497E-2
1.506859250E0,-1.305284914E-2,-4.597528623E-3,-2.907527983E-2,3.220071486E-2
1.516802250E0,3.132125018E-3,-1.571699590E-3,-3.700819731E-2,3.717374227E-2
1.526746250E0,5.720257983E-3,-3.470190014E-3,-2.458344877E-2,2.547762790E-2
1.536689250E0,-6.610752381E-3,-7.562825270E-4,-2.458344877E-2,2.546801845E-2
1.546633250E0,-2.140248123E-2,-5.134412656E-3,-3.101947904E-2,3.803467465E-2
1.556576250E0,-1.277582816E-2,-8.883245336E-3,-3.042130888E-2,3.417001414E-2
1.566520250E0,-8.572584596E-3,-1.054545800E-2,-2.413438261E-2,2.769773122E-2
1.576464250E0,-1.615508026E-2,1.284094239E-3,-2.802511990E-2,3.237349011E-2
1.586407250E0,-1.831121363E-2,-7.616135431E-4,-4.119889677E-2,4.509134833E-2
1.596351250E0,-3.677140335E-3,-8.143001539E-3,-3.416411161E-2,3.531311877E-2
1.606294250E0,2.812245777E-3,-2.732294239E-4,-3.416352689E-2,3.428016847E-2
1.616238250E0,-2.917468250E-3,1.741433297E-3,-3.102064848E-2,3.120616675E-2
1.626178375E0,-1.076042083E-2,1.285313931E-3,-2.697963774E-2,2.907472340E-2
1.636121375E0,-7.964181807E-3,-1.168433572E-2,-3.191761136E-2,3.490968072E-2
1.646065375E0,-1.750016827E-3,-6.220464441E-3,-2.997107327E-2,3.065977772E-2
1.656008375E0,-1.352735982E-2,2.905326141E-3,-3.430970728E-2,3.699441036E-2
1.665952375E0,-9.793236544E-3,-1.768280240E-3,-3.341157496E-2,3.486212326E-2
1.675896375E0,-2.616263554E-3,1.341602518E-3,-3.939736962E-2,3.950692934E-2
1.685839375E0,-1.241056904E-2,-6.138603422E-3,-2.667558253E-2,3.005480626E-2
1.695783375E0,-9.068876160E-3,4.575318340E-3,-2.772340357E-2,2.952566948E-2
1.705726375E0,-3.748805271E-3,6.666739471E-4,-3.550663233E-2,3.571020771E-2
1.715670375E0,5.606493093E-3,2.801930923E-3,-3.026694238E-2,3.090908253E-2
1.725614375E0,-9.732352411E-3,-1.041663196E-3,-2.966935694E-2,3.124219082E-2
1.735557375E0,-8.519603340E-3,-1.351579330E-3,-2.503076077E-2,2.647544886E-2
1.745501375E0,-4.214298455E-3,1.081255241E-3,-2.158792019E-2,2.202198271E-2
1.755444375E0,-1.049504860E-2,2.111233142E-3,-3.715671659E-2,3.866813854E-2
1.765388375E0,-1.401991465E-2,-1.031918446E-2,-3.640885770E-2,4.035651737E-2
1.775332375E0,-1.413430081E-2,-7.946754363E-3,-1.964430571E-2,2.547210456E-2
1.785275375E0,-6.695993822E-3,-6.745448476E-3,-4.134917021E-2,4.242748267E-2
1.795219375E0,-7.821418382E-3,-7.720649843E-3,-3.431438506E-2,3.603137579E-2
1.805162375E0,-4.379591933E-3,4.549133778E-4,-2.653057158E-2,2.689347505E-2
1.815106375E0,-5.333117489E-3,-3.814348904E-3,-3.491313994E-2,3.552349561E-2
1.825049375E0,-6.065590885E-3,2.119483198E-3,-2.727901518E-2,2.802549324E-2
1.834993375E0,-2.710476816E-3,7.589914324E-4,-1.695166290E-2,1.718376058E-2
1.844937375E0,-1.835806444E-3,-1.301444024E-3,-2.847769439E-2,2.856646670E-2
1.854880375E0,-1.150214927E-2,-2.867378625E-3,-3.566392243E-2,3.758239829E-2
1.864824375E0,-1.331331518E-2,-6.910714544E-3,-3.296952546E-2,3.622142937E-2
1.874767375E0,-1.625832930E-2,-8.523687255E-3,-3.117326081E-2,3.617677025E-2
1.884711375E0,-6.036848165E-3,-2.376536848E-3,-2.563419342E-2,2.644245328E-2
1.894655375E0,-1.007855326E-2,5.731089036E-3,-3.596271515E-2,3.778544029E-2
1.904598375E0,-2.247258564E-3,-2.470192797E-3,-3.880621612E-2,3.894963970E-2
1.914542375E0,-9.868583400E-3,1.914478904E-3,-1.964547515E-2,2.206805070E-2
1.924485375E0,-8.690689215E-3,3.905643127E-3,-3.087154448E-2,3.230842593E-2
1.934429375E0,4.672455210E-3,3.364003664E-3,-2.308773100E-2,2.379478265E-2
1.944373375E0,-6.946199834E-3,-2.049010545E-3,-2.323683500E-2,2.433924069E-2
1.954316375E0,-1.009533660E-2,1.892949273E-3,-2.533306181E-2,2.733611345E-2
1.964260375E0,-1.037924632E-2,-3.591880621E-4,-2.967403471E-2,3.143892661E-2
1.974203375E0,-6.394131314E-3,-7.596661462E-3,-2.847652495E-2,3.015802802E-2
1.984147375E0,-1.391071790E-2,-2.124773101E-3,-2.503426909E-2,2.871824093E-2
1.994091375E0,-8.482025843E-3,2.133119088E-3,-3.476345122E-2,3.584679205E-2
2.004034375E0,-1.685993470E-2,1.311014271E-3,-3.281866729E-2,3.691938623E-2
2.013978375E0,-9.655900067E-3,3.750819820E-3,-2.443551421E-2,2.654052392E-2
2.023921375E0,-3.355159750E-3,-3.247703458E-3,-2.518395782E-2,2.561320765E-2
2.033865375E0,3.490933925E-3,-2.139601274E-3,-2.638205230E-2,2.669788750E-2
2.043809375E0,-1.154002827E-3,4.597190581E-4,-2.488341093E-2,2.491439752E-2
2.053752375E0,-1.888522748E-3,-9.573458894E-3,-2.832625151E-2,2.995987580E-2
2.063696375E0,-8.557308745E-4,-1.224154796E-2,-3.491080105E-2,3.700475378E-2
2.073639375E0,-3.563119629E-3,-2.769501717E-3,-2.922204494E-2,2.956846076E-2
2.083583375E0,-5.843615960E-3,-9.058278082E-3,-3.430970728E-2,3.596326269E-2
2.093527375E0,-5.625779768E-3,-3.993972628E-3,-3.056631982E-2,3.133530154E-2
2.103470375E0,-3.927775752E-3,1.984819081E-3,-2.547631860E-2,2.585362138E-2
2.113414375E0,-6.465924159E-4,-4.714692207E-3,-1.679320335E-2,1.745445740E-2
2.123357375E0,-5.841094349E-4,3.647260149E-3,-2.787075341E-2,2.811445511E-2
2.133301375E0,-3.986677313E-3,8.243240174E-3,-2.098448753E-2,2.289526854E-2
2.143244375E0,-5.596552826E-3,4.480543197E-3,-2.951674461E-2,3.037490549E-2
2.153188375E0,-4.725975506E-3,-2.785467356E-3,-2.457526267E-2,2.518009547E-2
2.163132375E0,-1.287006883E-2,7.076318655E-4,-1.933732688E-2,2.323944116E-2
2.173075375E0,-1.049327617E-2,-1.403815979E-3,-2.562425315E-2,2.772511305E-2
2.183019375E0,-3.644176656E-3,-3.487073849E-3,-3.370802879E-2,3.408329375E-2
2.192962375E0,-5.718120094E-3,-2.415315765E-3,-2.951499045E-2,3.016065830E-2
2.202906375E0,-1.299591187E-2,-3.200418670E-3,-2.337716818E-2,2.693749055E-2
2.212850375E0,-1.248572404E-2,-3.371468000E-4,-3.101304710E-2,3.343375634E-2
2.222793375E0,-6.638846425E-3,-8.152928101E-3,-3.475526512E-2,3.631078313E-2
2.232737375E0,-1.370697898E-2,-7.211234020E-3,-2.382798851E-2,2.841929283E-2
2.242680375E0,-1.146551281E-2,-4.263862744E-3,-2.921678245E-2,3.167426221E-2
2.252624375E0,-1.133440727E-2,-4.827351607E-3,-2.831865013E-2,3.088232596E-2
2.262568375E0,-6.765575688E-3,-1.342753689E-3,-3.056339622E-2,3.133204733E-2
2.272511375E0,6.343479808E-3,1.458231630E-3,-2.771931052E-2,2.847325678E-2
2.282455375E0,-1.982790828E-3,2.703172364E-3,-3.131300926E-2,3.149195372E-2
2.292398375E0,-1.358509194E-3,1.280640727E-3,-1.709258080E-2,1.719424049E-2
2.302342375E0,-1.194783501E-2,1.445861114E-4,-3.221289575E-2,3.435756568E-2
2.312286375E0,-1.814692514E-3,-3.167971191E-3,-3.251285791E-2,3.271719854E-2
2.322229375E0,3.263641689E-3,-1.994636008E-3,-2.607565820E-2,2.635469371E-2
2.332173375E0,-3.886370156E-3,-1.492296229E-3,-2.742227197E-2,2.773647095E-2
2.342116375E0,-1.195761083E-2,-4.410230429E-3,-2.592538476E-2,2.888875498E-2
2.352060375E0,-1.794477593E-2,-2.851435826E-3,-2.817071557E-2,3.352215514E-2
2.362004375E0,-7.928687381E-3,4.499624306E-3,-1.993783593E-2,2.192322978E-2
2.371947375E0,-1.042395012E-2,-7.220205842E-3,-2.697262108E-2,2.980457006E-2
2.381891375E0,-1.079790697E-2,-5.210376210E-3,-2.248195946E-2,2.547903680E-2
2.391834375E0,3.295874465E-3,-4.269819595E-3,-2.921795189E-2,2.971166203E-2
2.401778375E0,5.337575991E-3,4.459959171E-3,-3.236199975E-2,3.310105710E-2
2.411721375E0,-1.302193198E-3,3.696321943E-3,-3.460733056E-2,3.482852038E-2
2.421665375E0,-6.971297180E-3,-1.288630399E-3,-3.685266137E-2,3.752836531E-2
2.431609375E0,-7.981586410E-3,-6.607901864E-4,-2.278192163E-2,2.414867115E-2
2.441552375E0,-9.174920898E-3,-1.271038502E-4,-2.802102685E-2,2.948513650E-2
2.451496375E0,-1.373877321E-2,-5.326754074E-3,-3.176441431E-2,3.501579950E-2
2.461439375E0,-2.713664462E-2,-7.049362077E-3,-3.730406642E-2,4.666566573E-2
2.471383375E0,-6.171964528E-3,-1.392726826E-3,-2.428114772E-2,2.509197020E-2
2.481327375E0,-3.446202725E-4,2.667661950E-3,-2.562834620E-2,2.576911548E-2
2.491270375E0,-4.748633467E-3,-3.895467601E-3,-3.460850000E-2,3.514928819E-2
2.501214375E0,-2.462682780E-3,-1.519812404E-3,-2.907118678E-2,2.921486842E-2
2.511157375E0,4.315546649E-3,-5.812178040E-3,-2.502900660E-2,2.605487532E-2
2.521101375E0,3.167062132E-3,2.825822281E-3,-2.802219629E-2,2.834182491E-2
2.531045375E0,-1.487915386E-3,5.288920761E-3,-2.383091211E-2,2.445606156E-2
2.540988375E0,-1.331146052E-3,2.470996790E-4,-3.475994289E-2,3.478629957E-2
2.550932375E0,-2.336318968E-3,1.638896889E-3,-3.775313258E-2,3.786084242E-2
2.560875375E0,-2.134981060E-2,-4.572458686E-3,-4.089601099E-2,4.635952444E-2
2.570819375E0,-1.386460712E-2,-9.922542237E-4,-3.984818995E-2,4.220296366E-2
2.580763375E0,-6.079998789E-3,-4.189689900E-3,-3.026811182E-2,3.115571344E-2
2.590706375E0,-9.679352883E-3,-4.061434879E-3,-3.430970728E-2,3.587953650E-2
2.600650375E0,-8.169811936E-3,-7.369117979E-3,-2.742402613E-2,2.954872140E-2
2.610593375E0,1.087710019E-3,-4.815552109E-3,-3.191351831E-2,3.229311546E-2
2.620537083E0,-6.321169026E-3,4.021349475E-3,-2.203289330E-2,2.327180304E-2
2.630481083E0,-3.987289444E-3,-2.418682482E-3,-2.323040307E-2,2.369388378E-2
2.640424083E0,-3.665756537E-3,-2.439298485E-3,-3.535518944E-2,3.562832256E-2
2.650368083E0,2.714716047E-3,4.533821382E-3,-2.367829978E-2,2.426081409E-2
2.660311083E0,-5.717334375E-3,-5.842903331E-3,-2.787016869E-2,2.904434083E-2
2.670255083E0,-7.318521291E-3,-5.135892732E-3,-4.418565452E-2,4.508115142E-2
2.680199083E0,-4.877738161E-3,-2.971920446E-3,-3.400623679E-2,3.448258664E-2
2.690142083E0,-1.200683707E-2,-7.378866384E-3,-2.921678245E-2,3.243812853E-2
2.700086083E0,-1.006610965E-2,-6.476074560E-3,-3.535402000E-2,3.732523055E-2
2.710029083E0,-1.634857742E-2,4.940495230E-3,-2.307954490E-2,2.871149369E-2
2.719973083E0,-4.895526487E-3,-2.244595340E-3,-2.382681906E-2,2.442788764E-2
2.729917083E0,-6.715380996E-3,-4.593024440E-3,-2.966409445E-2,3.075956298E-2
2.739860083E0,-3.836248554E-3,-4.268969921E-3,-3.684856832E-2,3.729286654E-2
2.749804083E0,6.587345246E-4,-3.440889982E-3,-3.295607686E-2,3.314176605E-2
2.759747083E0,2.758095078E-3,6.718405103E-4,-4.478031635E-2,4.487020382E-2
2.769691083E0,7.403890640E-3,5.479297880E-4,-3.430035174E-2,3.509461430E-2
2.779635083E0,-1.287136618E-3,-5.745620281E-4,-2.906124651E-2,2.909541014E-2
2.789578083E0,-8.071807120E-3,5.568824233E-3,-3.699533343E-2,3.827297440E-2
2.799522083E0,-1.077684785E-2,2.402826478E-3,-2.576692522E-2,2.803298878E-2
2.809465083E0,-1.014388676E-2,-8.886904414E-3,-3.414773941E-2,3.671435163E-2
2.819409083E0,-1.941023435E-2,-7.904357482E-3,-2.561372817E-2,3.309530383E-2
2.829353083E0,-1.125533282E-2,-7.213714519E-3,-4.447392225E-2,4.643974542E-2
2.839296083E0,-4.991219826E-3,-8.965152036E-3,-3.623987317E-2,3.766450098E-2
2.849240083E0,-6.388430279E-3,-4.615865126E-3,-1.992497206E-2,2.142715016E-2
2.859183083E0,7.460279725E-3,3.252742114E-4,-3.624045789E-2,3.700178867E-2
2.869127083E0,1.196206933E-2,-1.731547848E-3,-2.621131361E-2,2.886385840E-2
2.879071083E0,3.583603157E-3,-1.148274383E-3,-2.681240737E-2,2.707519039E-2
2.889014083E0,3.177504893E-3,4.078675029E-3,-3.429625869E-2,3.468379286E-2
2.898958083E0,-3.988531977E-3,-5.493824556E-4,-3.145275772E-2,3.170940202E-2
2.908901083E0,-1.239599668E-2,-1.191887074E-2,-2.845898330E-2,3.325107433E-2
2.918845083E0,-2.199609239E-2,-1.437189419E-2,-3.699124038E-2,4.537324419E-2
2.928789083E0,-1.674353857E-2,-1.126173506E-2,-2.800991714E-2,3.452141681E-2
2.938732083E0,-7.927015442E-3,-6.275099362E-3,-2.501438856E-2,2.698025354E-2
2.948676083E0,-1.671385481E-2,-8.092311204E-3,-2.411801040E-2,3.043873961E-2
2.958619083E0,1.246324880E-3,4.045715919E-3,-3.235089004E-2,3.262669504E-2
2.968563083E0,9.140422326E-3,-3.237004881E-4,-3.639307022E-2,3.752476066E-2
2.978507083E0,7.618775815E-3,4.097783547E-3,-3.624338150E-2,3.726151201E-2
2.988450083E0,1.356893901E-2,-1.811017448E-3,-2.890863419E-2,3.198601289E-2
2.998394083E0,3.381737173E-3,-5.093134968E-3,-2.905832291E-2,2.969448266E-2
3.008337083E0,-5.536819864E-3,-1.263210086E-2,-2.307018936E-2,2.687861572E-2
3.018281083E0,-7.616583109E-3,4.231122904E-3,-3.070489883E-2,3.191716704E-2
3.028225083E0,-5.123101948E-3,-5.701978581E-3,-3.459797502E-2,3.543696669E-2
3.038168083E0,-1.438597776E-2,-7.513475684E-3,-3.908805192E-2,4.232356879E-2
3.048112083E0,-1.931413902E-2,-1.275963411E-2,-3.848929703E-2,4.491403138E-2
3.058055083E0,-9.158402514E-3,6.986280670E-5,-3.654392838E-2,3.767412798E-2
3.067999083E0,-5.753559703E-3,4.089665967E-3,-2.636392593E-2,2.729258888E-2
3.077943083E0,3.024024619E-3,-5.039728875E-4,-2.187209487E-2,2.208590608E-2
3.087886083E0,4.418686051E-3,-7.533529806E-3,-2.232057631E-2,2.396845812E-2
3.097830083E0,1.221017400E-3,2.877026531E-3,-2.711178482E-2,2.729133637E-2
3.107773083E0,-2.040586900E-3,-6.048261656E-3,-2.636334121E-2,2.712510320E-2
3.117717083E0,-3.117324254E-3,-1.187795850E-2,-4.013470352E-2,4.197139544E-2
3.127661083E0,-6.916790167E-3,-4.152557796E-3,-3.878808975E-2,3.961819821E-2
3.137604083E0,-1.044069691E-2,-7.877135952E-3,-3.220003188E-2,3.475484823E-2
3.147548083E0,-1.269607762E-2,2.766235499E-4,-3.144924939E-2,3.391640008E-2
3.157491083E0,-6.098728152E-3,-9.698063973E-4,-3.549084485E-2,3.602409024E-2
3.167435083E0,3.302187631E-3,-3.874173230E-3,-3.369399548E-2,3.407637000E-2
3.177379083E0,1.340985820E-3,-1.683276342E-3,-2.905189097E-2,2.913149552E-2
3.187322083E0,6.375657767E-4,3.686943557E-4,-2.381278574E-2,2.382417240E-2
3.197266083E0,6.617659405E-3,5.305539644E-3,-2.695624888E-2,2.825918471E-2
3.207209083E0,1.104438538E-3,-3.706860635E-3,-3.743445933E-2,3.763375274E-2
3.217153083E0,-3.645949094E-3,-4.437917909E-3,-3.189363778E-2,3.240666892E-2
3.227097083E0,-9.312695917E-3,-3.605411444E-3,-4.222040534E-2,4.338534227E-2
3.237040083E0,-1.477588654E-2,-2.412081524E-3,-2.949627936E-2,3.307832306E-2
3.246984083E0,-7.191472258E-3,-8.608992649E-3,-2.739946783E-2,2.960680437E-2
3.256927083E0,-8.413796145E-3,-1.417802245E-2,-3.578086674E-2,3.939643018E-2
3.266871083E0,-2.001883814E-2,-7.865418680E-3,-2.859639287E-2,3.578229138E-2
3.276815083E0,-1.247120650E-2,-3.044654327E-3,-2.650192022E-2,2.944745637E-2
3.286758083E0,-8.553900914E-3,-1.928621856E-4,-3.383608282E-2,3.490110195E-2
3.296702083E0,2.539774664E-3,8.616557484E-4,-2.680246711E-2,2.693631655E-2
3.306645083E0,2.200380340E-3,2.010176810E-3,-3.743036628E-2,3.754883226E-2
3.316589083E0,-1.535241287E-3,1.072783174E-2,-2.904896736E-2,3.100461005E-2
3.326533083E0,-1.898746239E-3,3.617019081E-3,-2.994709969E-2,3.022444117E-2
3.336476083E0,-1.334537437E-2,-8.385766055E-3,-2.440803230E-2,2.905464042E-2
3.346420083E0,-1.834050452E-2,-3.554558940E-4,-3.383725226E-2,3.848974013E-2
3.356364083E0,-9.748907341E-3,-6.425409350E-3,-3.713040411E-2,3.892292370E-2
3.366307083E0,-8.481989298E-3,-3.149447395E-3,-2.949510992E-2,3.085165588E-2
3.376251083E0,-9.732690454E-3,-3.271818655E-3,-3.413604498E-2,3.564687402E-2
3.386194083E0,-8.573406860E-3,-9.919390222E-4,-3.413662970E-2,3.521074744E-2
3.396138083E0,-4.413112924E-3,-2.481197440E-3,-2.949394047E-2,2.992531422E-2
3.406082083E0,-6.959027164E-3,-5.115107708E-3,-2.575172246E-2,2.716143581E-2
3.416025083E0,2.996734567E-3,3.632537043E-3,-3.997039676E-2,4.024684286E-2
3.425969083E0,4.404570507E-3,-5.968942805E-3,-3.458101809E-2,3.536771595E-2
3.435912083E0,-4.823030150E-3,-3.495100066E-3,-2.739595950E-2,2.803597584E-2
3.445856083E0,-7.698572036E-3,-3.512075264E-4,-2.500093997E-2,2.616177282E-2
3.455800083E0,-2.899442380E-3,-4.365266254E-4,-2.904312015E-2,2.919075452E-2
3.465743083E0,-3.127200566E-3,-4.328300888E-3,-3.009035647E-2,3.056048305E-2
3.475687083E0,-5.085396543E-3,-1.933815829E-3,-3.757479250E-2,3.796664238E-2
3.485630083E0,-3.162265588E-3,3.699336913E-3,-3.353319705E-2,3.388451448E-2
3.495574083E0,-1.987980232E-3,7.064532861E-4,-2.889284670E-2,2.896977273E-2
3.505518083E0,1.102430385E-2,-5.773211829E-4,-2.679603517E-2,2.898096058E-2
3.515461083E0,-6.668100776E-3,-3.892870615E-3,-3.847175539E-2,3.923893439E-2
3.525405083E0,-8.413924053E-3,-1.499838224E-3,-2.694513917E-2,2.826807665E-2
3.535348083E0,-5.080161458E-3,-4.351392821E-3,-3.308179200E-2,3.375126104E-2
3.545292083E0,-4.680202771E-3,-4.736066521E-3,-3.368171632E-2,3.433354975E-2
3.555236083E0,1.442160923E-3,-5.723323203E-3,-3.742218018E-2,3.788477037E-2
3.565179083E0,-5.510964207E-3,-1.190273836E-3,-2.574529052E-2,2.635540670E-2
3.575123083E0,-2.854336593E-3,-2.081426047E-4,-2.275210083E-2,2.293139012E-2
3.585066083E0,-7.742417017E-3,-4.512328296E-3,-3.547681153E-2,3.659112302E-2
3.595010083E0,-1.600795884E-2,-8.680716972E-3,-3.682284057E-2,4.107957133E-2
3.604954083E0,-1.543920748E-2,-6.726495274E-3,-2.664400756E-2,3.152012064E-2
3.614897083E0,-8.997311722E-3,-2.107482702E-3,-2.335085571E-2,2.511285655E-2
3.624841500E0,-9.543140167E-3,-7.233919390E-3,-2.005828857E-2,2.336099430E-2
3.634785500E0,2.301637670E-3,-5.373929227E-3,-2.424957275E-2,2.494430657E-2
3.644728500E0,8.583511580E-3,-2.313304693E-3,-3.233393312E-2,3.353373347E-2
3.654672500E0,5.853784634E-3,1.806669495E-2,-3.443074465E-2,3.932109406E-2
3.664615500E0,1.081858235E-2,1.298236735E-2,-2.664751589E-2,3.155429748E-2
3.674559500E0,1.393705778E-2,8.455969188E-3,-3.413136721E-2,3.782453201E-2
3.684503500E0,5.509612039E-3,-5.574456747E-3,-2.844378054E-2,2.950388185E-2
3.694446500E0,-1.702436023E-2,-2.148883729E-3,-3.487981081E-2,3.887219758E-2
3.704390500E0,-1.315464551E-2,-1.592114596E-3,-3.008918703E-2,3.287763226E-2
3.714333500E0,-1.836928379E-2,-9.978118194E-3,-3.338233888E-2,3.938748505E-2
3.724277500E0,-8.911814466E-3,-1.336344592E-3,-2.425132692E-2,2.587147292E-2
3.734221500E0,1.369077123E-2,1.841931403E-2,-2.155692995E-2,3.148665709E-2
3.744164500E0,3.042733882E-2,1.942312564E-2,-3.308296144E-2,4.896491698E-2
3.754108500E0,2.882268925E-2,5.200435943E-3,-3.712455690E-2,4.728662258E-2
3.764051500E0,-5.351938214E-3,4.874051674E-3,-3.697486818E-2,3.767678993E-2
3.773995500E0,-2.580705173E-2,-8.810858633E-3,7.461047173E-4,2.727987942E-2
3.783939500E0,-3.861642829E-2,-1.463492753E-2,-4.206428468E-2,5.894755028E-2
3.793882500E0,-3.416582010E-2,-2.274462735E-2,-3.323206544E-2,5.281090332E-2
3.803826500E0,-3.290952754E-2,-2.009962565E-2,-4.056622803E-2,5.597008854E-2
3.813769500E0,-1.147813001E-2,-5.806408483E-3,-1.811233521E-2,2.221527705E-2
3.823713500E0,8.037938951E-3,8.013019762E-3,-3.487747192E-2,3.667771798E-2
3.833657500E0,2.953911021E-2,1.493641089E-2,-3.352968872E-2,4.711576623E-2
3.843600500E0,3.345438754E-2,2.801750938E-2,-3.352910399E-2,5.503069773E-2
3.853544500E0,2.340181785E-2,1.722123781E-2,-2.230303466E-2,3.662842428E-2
3.863488500E0,7.359999977E-4,6.014103410E-3,-3.188369751E-2,3.245429560E-2
3.873431500E0,-9.590548296E-3,-7.925005462E-3,-2.709131956E-2,2.981147302E-2
3.883375500E0,-1.580247489E-2,-2.045081490E-2,-3.098264158E-2,4.034697166E-2
3.893318500E0,-4.173405404E-2,-1.059796873E-2,-2.724042356E-2,5.095182905E-2
3.903262500E0,-3.191234887E-2,-2.237324236E-2,-2.065470457E-2,4.410869308E-2
3.913206500E0,-1.997247155E-2,-1.606567268E-2,-3.068501830E-2,3.998219362E-2
3.923149500E0,-1.083955924E-2,3.737311838E-3,-3.412902832E-2,3.600352925E-2
3.933093500E0,8.150232900E-3,1.281997464E-3,-3.727307618E-2,3.817528024E-2
3.943036500E0,1.224007702E-2,4.464472490E-3,-2.694396973E-2,2.992872374E-2
3.952980500E0,1.413151424E-2,2.945180854E-2,-4.370793700E-2,5.456640430E-2
3.962924500E0,2.463947240E-2,2.079458093E-2,-1.511680663E-2,3.560949366E-2
3.972867500E0,2.515569932E-2,6.755959759E-3,-2.394961059E-2,3.538412141E-2
3.982811500E0,-3.817446101E-3,-2.048142599E-3,-3.427696288E-2,3.454964496E-2
3.992754500E0,-2.108966433E-2,-3.919448038E-3,-2.335027099E-2,3.170758851E-2
4.002698500E0,-2.917660112E-2,-8.549323641E-3,-2.484891236E-2,3.926618689E-2
4.012642500E0,-2.660177057E-2,-2.275193180E-2,-3.173459351E-2,4.724816423E-2
4.022585500E0,-2.416783051E-2,-1.491532893E-2,-3.996630371E-2,4.902913930E-2
4.032529500E0,-1.124102541E-2,-4.879611097E-3,-3.038564086E-2,3.276367542E-2
4.042472500E0,8.657972217E-3,6.851653098E-3,-1.870992064E-2,2.172479605E-2
4.052416500E0,2.638307557E-2,1.443349096E-2,-2.978747070E-2,4.232830906E-2
4.062360500E0,3.348652896E-2,2.385881430E-2,-3.592470825E-2,5.460014014E-2
4.072303500E0,1.736028277E-2,2.191673471E-2,-1.347081542E-2,3.103523073E-2
4.082247500E0,1.112147726E-2,5.491357762E-3,-6.391532958E-2,6.510769249E-2
4.092191500E0,-6.939393310E-3,-4.162847525E-3,8.532841802E-3,1.175984134E-2
4.102134500E0,-4.510244312E-2,-2.683944161E-2,-7.409474730E-2,9.079987654E-2
4.112078500E0,-2.686075654E-2,-2.244467889E-2,-1.212303221E-2,3.704364672E-2
4.122021500E0,-3.721947365E-2,-2.744872605E-2,-1.317085326E-2,4.808526964E-2
4.131965500E0,-5.107695448E-2,-3.730106972E-2,-9.849400878E-2,1.170525303E-1
4.141909500E0,-1.062088251E-2,-2.318206304E-3,4.041595459E-2,4.185243853E-2
4.151852500E0,-7.520195413E-3,3.122219013E-2,-6.915735841E-2,7.625036864E-2
4.161796500E0,5.959683191E-2,3.449092529E-2,-9.880040288E-3,6.956307567E-2
4.171739500E0,7.655186609E-2,3.067453899E-2,-3.667373657E-2,9.025562863E-2
4.181683500E0,4.178784843E-2,2.124351005E-2,-6.331891358E-2,7.878322037E-2
4.191627500E0,1.287730476E-2,2.019867657E-2,-1.017941773E-2,2.602752501E-2
4.201570500E0,-6.135254064E-2,1.241143242E-2,-1.571790040E-2,6.453859535E-2
4.211514500E0,-3.522603907E-2,-3.228736552E-2,-7.185058594E-2,8.628936493E-2
4.221457500E0,-4.070615921E-2,-7.424973506E-2,5.762957275E-2,1.024264722E-1
4.231401500E0,-4.177695799E-2,-1.802113691E-2,-2.213896179E-1,2.260164563E-1
4.241345500E0,-3.987731639E-2,1.943551899E-2,1.683980566E-1,1.741431745E-1
4.251288500E0,-2.672065177E-2,-3.562000436E-3,-1.513364661E-1,1.537185969E-1
4.261232500E0,4.175754340E-2,-1.617564602E-2,1.826085448E-2,4.836116998E-2
4.271176500E0,5.845152682E-2,2.397084329E-2,-1.034343213E-1,1.212016548E-1
4.281119500E0,4.591312302E-2,8.093609012E-2,4.281155884E-2,1.024279997E-1
4.291063500E0,3.421431544E-2,5.741950696E-2,-3.711987913E-2,7.645589962E-2
4.301006500E0,2.587646001E-2,-2.571356480E-2,-6.496081173E-2,7.450292383E-2
4.310950500E0,1.120819878E-3,-2.253759481E-2,-5.942174435E-2,6.356212015E-2
4.320894500E0,-8.246573087E-2,-7.355893222E-3,1.542495489E-2,8.421778414E-2
4.330837500E0,-1.230930806E-1,-4.504996436E-2,-4.100652337E-2,1.373424215E-1
4.340781500E0,-9.575009320E-2,-7.144377048E-2,-1.735804439E-2,1.207211431E-1
4.350724500E0,1.767829821E-2,-1.697585118E-2,-7.738439083E-2,8.117293696E-2
4.360668500E0,8.672358194E-2,9.659536304E-2,1.153070927E-2,1.303249826E-1
4.370612500E0,8.023296244E-2,6.420499059E-2,-2.888641477E-2,1.067428407E-1
4.380555500E0,6.920397168E-2,-3.765807878E-3,-6.630917966E-2,9.591808126E-2
4.390499500E0,5.888407459E-2,4.166538580E-2,-4.535334349E-2,8.520718503E-2
4.400442500E0,-2.321937558E-2,2.696217375E-2,-5.958312750E-4,3.558726220E-2
4.410386500E0,-1.102528325E-1,-6.661395664E-2,-7.929409146E-3,1.290580561E-1
4.420330500E0,-1.036751900E-1,-8.988890818E-2,-6.570984006E-2,1.521392255E-1
4.430273500E0,-6.350799792E-2,-4.604078419E-2,-4.131057858E-2,8.865429212E-2
4.440217500E0,-3.374232637E-2,-9.388266611E-3,2.499918580E-2,4.303072657E-2
4.450161500E0,-3.504082851E-2,-2.271483396E-3,-4.161346436E-2,5.444905615E-2
4.460104500E0,3.214604563E-2,3.013024544E-3,-5.658233643E-2,6.514604640E-2
4.470048500E0,1.001646497E-1,4.105391323E-2,-4.341557622E-3,1.083384971E-1
4.479991500E0,9.654136766E-2,7.365358859E-2,-2.020680785E-2,1.230991546E-1
4.489935500E0,4.951096963E-2,4.595750704E-2,-3.517392576E-2,7.616189087E-2
4.499879500E0,2.824826427E-3,-1.120931797E-2,-3.083119869E-2,3.292705979E-2
4.509822500E0,-1.429933847E-2,-1.343875166E-2,-2.260065794E-2,2.993093494E-2
4.519766500E0,-4.525385859E-2,-1.041750904E-2,-5.358622313E-2,7.090782412E-2
4.529709500E0,-8.942677715E-2,-4.755615408E-2,1.182774782E-2,1.019736823E-1
4.539653500E0,-7.673170452E-2,-5.757271771E-2,-4.056388915E-2,1.041527792E-1
4.549597500E0,-3.156182656E-2,-1.937078392E-2,-3.008567870E-2,4.771293565E-2
4.559540500E0,2.716617306E-2,2.362930651E-2,-5.119178832E-2,6.258549573E-2
4.569484500E0,2.977678126E-2,2.938176073E-2,1.152778566E-2,4.339163984E-2
4.579427500E0,4.223924434E-2,2.769694492E-2,-4.879618406E-2,7.023063505E-2
4.589371500E0,7.014809601E-2,4.450232693E-2,-4.819567502E-2,9.604184279E-2
4.599315500E0,5.595893187E-2,3.597574348E-2,-3.531542838E-2,7.531822924E-2
4.609258500E0,-5.247053783E-4,-5.376921357E-3,-4.458384991E-2,4.490997964E-2
4.619202500E0,-7.999445999E-2,-2.199873277E-2,4.941423476E-2,9.656513071E-2
4.629144833E0,-6.983513293E-2,-4.971528414E-2,-7.019757807E-2,1.107982637E-1
4.639088833E0,-6.816619140E-2,-5.034542669E-2,-8.052785397E-2,1.169017831E-1
4.649032833E0,-6.490917351E-2,-4.026817078E-2,-1.781003416E-2,7.843419982E-2
4.658975833E0,-4.304594996E-2,-2.285809531E-2,-1.631548584E-2,5.139690076E-2
4.668919833E0,2.452235450E-2,1.406997687E-2,9.274853468E-3,2.975454631E-2
4.678863833E0,8.457879583E-2,5.586711688E-2,-2.590959728E-2,1.046232034E-1
4.688806833E0,9.959322137E-2,7.191068435E-2,-3.295256853E-2,1.271842287E-1
4.698750833E0,9.251787116E-2,5.144143245E-2,-3.864892602E-2,1.126921334E-1
4.708693833E0,7.891618774E-2,3.855659940E-2,-2.398820221E-2,9.104839312E-2
4.718637833E0,2.508385166E-2,-1.227613790E-2,1.985615033E-1,2.005157694E-1
4.728581833E0,-1.275647936E-1,1.329611615E-2,6.163731283E-1,6.295755686E-1
4.738524833E0,-1.161980622E-1,-6.073915401E-2,-2.366543591E-2,1.332339571E-1
4.748468833E0,6.569761938E-1,-3.705712388E-1,1.206724977E-1,7.638734280E-1
4.758411833E0,1.491968822E0,-2.643820385E-2,1.326217507E0,1.996377424E0
4.768355833E0,2.844074547E-1,2.168439194E-1,3.777792478E-1,5.202173062E-1
4.778299833E0,3.119547657E-1,4.001488128E-2,-9.426588714E-2,3.283337084E-1
4.788242833E0,4.581688151E-1,-4.102223776E-3,-2.155921036E-1,5.063748083E-1
4.798186833E0,-2.722019219E-1,-4.493344762E-1,1.227149302E-1,5.394944966E-1
4.808130833E0,-8.221624479E-1,-1.246352143E0,8.354782391E-1,1.710955476E0
4.818073833E0,-6.154695142E-1,-1.460760916E0,1.284370739E0,2.040155232E0
4.828017833E0,-3.198927264E-1,-1.159453163E0,1.691675502E0,2.075675552E0
4.837960833E0,-3.263437767E-1,-1.034591427E0,2.059336143E0,2.327604999E0
4.847904833E0,-4.591427419E-1,-1.437343841E0,2.283949331E0,2.737369891E0
4.857848833E0,-4.613909964E-1,-1.737906805E0,2.367251689E0,2.972723040E0
4.867791833E0,-2.875597252E-1,-1.760979333E0,2.121414278E0,2.772027659E0
4.877735833E0,-3.773344208E-1,-2.039345975E0,1.795488723E0,2.743190300E0
4.887678833E0,-6.386245613E-1,-2.208295716E0,1.355986851E0,2.668915818E0
4.897622833E0,-9.574004330E-1,-2.210752131E0,8.219904667E-1,2.545527235E0
4.907566833E0,-1.129226127E0,-2.031664634E0,5.653772217E-1,2.392167267E0
4.917509833E0,-9.170926519E-1,-1.574198654E0,3.979381084E-1,1.864809661E0
4.927453833E0,-7.020107909E-1,-1.481331275E0,1.582607388E-2,1.639332779E0
4.937397833E0,-7.385717493E-1,-1.682470815E0,-3.459557766E-1,1.869727700E0
4.947340833E0,-9.073462205E-1,-1.768079315E0,-5.153279793E-1,2.053033013E0
4.957284833E0,-1.064494088E0,-1.921999081E0,-6.797879362E-1,2.299856467E0
4.967227833E0,-1.091643880E0,-1.811234690E0,-1.015765439E0,2.346068390E0
4.977171833E0,-8.501394014E-1,-1.760798070E0,-1.315070375E0,2.356386415E0
4.987115833E0,-7.336896166E-1,-1.469127843E0,-1.618161383E0,2.305446450E0
4.997058833E0,-7.836580212E-1,-6.724148896E-1,-1.603670229E0,1.907359400E0
5.007002833E0,-6.711673131E-1,-4.028041613E-1,-1.754235447E0,1.920952565E0
5.016945833E0,-6.054875862E-1,-4.332345334E-1,-2.013851822E0,2.147069291E0
5.026889833E0,-5.440223131E-1,-1.945795494E-1,-2.249972915E0,2.322972147E0
5.036833833E0,-3.365413208E-1,8.609498799E-2,-2.378089503E0,2.403327296E0
5.046776833E0,-4.923465215E-1,1.500278592E-1,-2.062117079E0,2.125380037E0
5.056720833E0,-6.615502513E-1,9.179543853E-2,-1.826449145E0,1.944734331E0
5.066664833E0,-6.860424835E-1,7.731580299E-1,-1.938668908E0,2.197012691E0
5.076607833E0,-5.265991453E-1,1.761496519E0,-1.836450807E0,2.598601204E0
5.086551833E0,-3.332074577E-1,2.005403180E0,-1.485914907E0,2.518057234E0
5.096494833E0,-6.175741464E-2,1.884406747E0,-1.287936956E0,2.283327477E0
5.106438833E0,2.383020314E-1,1.885359258E0,-9.429348600E-1,2.121436669E0
5.116382833E0,4.415922511E-1,2.044093037E0,-5.632961977E-1,2.165784538E0
5.126325833E0,4.935693204E-1,2.572507669E0,-1.067853606E-1,2.621604374E0
5.136269833E0,3.956366444E-1,3.053600786E0,9.979676843E-2,3.080741065E0
5.146212833E0,2.536744344E-1,2.947778462E0,2.241331315E-1,2.967150862E0
5.156156833E0,1.970780647E-1,2.366546515E0,3.747147220E-1,2.404120066E0
5.166100833E0,3.393890610E-1,2.147876437E0,4.386183572E-1,2.218320127E0
5.176043833E0,2.017681164E-1,2.221563048E0,1.068578076E0,2.473441298E0
5.185987833E0,3.354901376E-1,2.373031662E0,1.511567227E0,2.833490494E0
5.195930833E0,3.934549751E-1,2.383461340E0,2.031078889E0,3.156101429E0
5.205874833E0,2.854177257E-1,2.153702018E0,2.603389154E0,3.390800900E0
5.215818833E0,2.634539026E-1,1.741193233E0,2.998391376E0,3.477285245E0
5.225761833E0,3.934231809E-1,1.302770172E0,3.112495696E0,3.397001822E0
5.235705833E0,9.541945508E-1,1.552265017E0,2.847642555E0,3.380692539E0
5.245649833E0,1.189957648E0,2.020011864E0,3.434977241E0,4.158787777E0
5.255592833E0,1.175264838E0,2.085421742E0,3.973939081E0,4.639226562E0
5.265536833E0,1.012952051E0,1.537962728E0,3.913431509E0,4.325083512E0
5.275479833E0,9.601668969E-1,1.018806576E0,3.086694857E0,3.389332154E0
5.285423833E0,6.593652930E-1,7.587896669E-1,2.853647645E0,3.025529579E0
5.295367833E0,2.781087061E-1,7.696257269E-1,3.286469073E0,3.386819626E0
5.305310833E0,2.714046541E-1,4.013166296E-1,3.508618244E0,3.541908738E0
5.315254833E0,1.855233087E-1,-2.289822274E-1,3.570672989E0,3.582814167E0
5.325197833E0,1.776004046E-2,-5.526519263E-1,3.666670822E0,3.708128165E0
5.335141833E0,-2.122451574E-2,-5.804414034E-1,3.875357949E0,3.918642869E0
5.345085833E0,1.790674710E-1,-8.112520552E-1,3.966832375E0,4.052894539E0
5.355028833E0,3.766242765E-1,-1.107799444E0,3.957813630E0,4.127148432E0
5.364972833E0,3.749844249E-1,-1.259991358E0,3.767310466E0,3.990090186E0
5.374916833E0,1.636777456E-1,-1.415953556E0,3.493059095E0,3.772688262E0
5.384859833E0,-4.962663487E-2,-1.549013965E0,3.329902483E0,3.672894991E0
5.394803833E0,1.392645970E-2,-1.864511595E0,3.212010921E0,3.713975174E0
5.404746833E0,8.969263360E-2,-2.260970943E0,3.027825674E0,3.779915699E0
5.414690833E0,-1.596669942E-2,-2.393624386E0,2.973649467E0,3.817366080E0
5.424634833E0,-6.640419692E-2,-2.450040661E0,2.926090554E0,3.816950968E0
5.434577833E0,-1.227359802E-1,-2.611363002E0,2.815665886E0,3.842168038E0
5.444521833E0,-1.448695917E-1,-2.879364869E0,2.946018742E0,4.121984434E0
5.454464833E0,1.046745157E-1,-3.110040450E0,2.620310411E0,4.068087389E0
5.464408833E0,2.122033498E-1,-3.507952831E0,2.166644537E0,4.128572620E0
5.474352833E0,6.015717790E-2,-3.760191774E0,1.595985672E0,4.085318999E0
5.484295833E0,-2.265278587E-1,-3.548932457E0,1.425675137E0,3.831290390E0
5.494239833E0,-4.507755956E-1,-3.592308272E0,1.554007633E0,3.939900644E0
5.504183833E0,-6.805740944E-1,-4.017117260E0,1.564144220E0,4.364282223E0
5.514126833E0,-5.622246954E-1,-4.306859660E0,1.313449527E0,4.537652080E0
5.524070833E0,-3.895874074E-1,-4.545022016E0,6.623679113E-1,4.609526518E0
5.534013833E0,-6.405646674E-1,-4.736190299E0,9.149138331E-2,4.780187477E0
5.543957833E0,-1.023191403E0,-4.612414684E0,-2.593918053E-1,4.731656578E0
5.553901833E0,-1.204289027E0,-4.412924058E0,-4.426142713E-1,4.595662977E0
5.563844833E0,-1.045779782E0,-4.371643885E0,-6.729326606E-1,4.545081295E0
5.573788833E0,-8.444361734E-1,-4.491122966E0,-7.603285079E-1,4.632640434E0
5.583731833E0,-6.984564878E-1,-4.531338946E0,-1.106904528E0,4.716578394E0
5.593675833E0,-7.502714431E-1,-4.341889744E0,-1.627488277E0,4.697194043E0
5.603619833E0,-7.986529134E-1,-4.012628937E0,-1.835304022E0,4.484125145E0
5.613562833E0,-7.391903847E-1,-3.910576313E0,-2.149395543E0,4.523152742E0
5.623511333E0,-6.142510276E-1,-3.898477839E0,-2.366344640E0,4.601632400E0
5.633455333E0,-6.502062875E-1,-3.874852749E0,-2.472476428E0,4.642239947E0
5.643398333E0,-6.671483025E-1,-3.817423736E0,-2.441516298E0,4.580263384E0
5.653342333E0,-5.336955455E-1,-3.961748221E0,-2.698304959E0,4.822979323E0
5.663285333E0,-3.889705262E-1,-3.867680554E0,-3.162024536E0,5.010853232E0
5.673229333E0,-2.793485351E-1,-3.402076712E0,-3.565938499E0,4.936403442E0
5.683173333E0,-3.195108667E-2,-3.066025534E0,-4.151393305E0,5.160968884E0
5.693116333E0,8.181745738E-2,-3.010090485E0,-4.594506125E0,5.493343731E0
5.703060333E0,4.690314800E-2,-2.852218001E0,-4.723345428E0,5.517910788E0
5.713004333E0,-7.826235026E-2,-2.509239042E0,-4.727043500E0,5.352321535E0
5.722947333E0,-1.596393661E-1,-2.296276431E0,-4.646260707E0,5.185181649E0
5.732891333E0,-6.702137053E-2,-2.369393524E0,-4.501160882E0,5.087137389E0
5.742834333E0,5.786682352E-2,-2.612506133E0,-4.471096838E0,5.178729940E0
5.752778333E0,8.656086490E-2,-2.706579062E0,-4.657332995E0,5.387375393E0
5.762722333E0,1.086968154E-1,-2.681185774E0,-4.901648376E0,5.588088130E0
5.772665333E0,9.224698976E-2,-2.704917283E0,-4.900675399E0,5.598366403E0
5.782609333E0,1.153015378E-1,-2.816028998E0,-4.839709990E0,5.600545201E0
5.792552333E0,6.727806330E-2,-2.818425772E0,-4.699704258E0,5.480444351E0
5.802496333E0,-8.904958606E-2,-2.657179445E0,-4.502643735E0,5.228989677E0
5.812440333E0,-1.569454077E-1,-2.280426968E0,-4.423295850E0,4.979008455E0
5.822383333E0,-1.517747149E-1,-1.926063480E0,-4.462579783E0,4.862856611E0
5.832327333E0,-1.299723481E-1,-1.607527052E0,-4.418184214E0,4.703337940E0
5.842271333E0,-2.163162813E-2,-1.200445653E0,-4.226748712E0,4.393966587E0
5.852214333E0,5.544461444E-2,-8.948216307E-1,-3.742105751E0,3.848004068E0
5.862158333E0,4.972691461E-2,-7.815616482E-1,-3.051466552E0,3.150358629E0
5.872101333E0,9.329524934E-3,-6.193096000E-1,-2.105441439E0,2.194656026E0
5.882045333E0,9.913764104E-2,-2.651004785E-1,-1.798879523E0,1.821009081E0
5.891989333E0,9.083941877E-2,2.415402925E-1,-1.838057038E0,1.856083831E0
5.901932333E0,3.076541752E-2,5.940642464E-1,-1.517992147E0,1.630386150E0
5.911876333E0,-7.059314221E-2,6.625754875E-1,-7.970363045E-1,1.038872725E0
5.921819333E0,-1.835343052E-1,8.315395546E-1,-9.943526432E-2,8.573390484E-1
5.931763333E0,-2.106672862E-1,1.400332135E0,1.211730194E-1,1.421264822E0
5.941707333E0,-4.677206804E-1,1.874692183E0,8.078982385E-1,2.094261917E0
5.951650333E0,-6.494720234E-1,2.809252076E0,1.435129939E0,3.220762188E0
5.961594333E0,-5.234826525E-1,3.949223485E0,1.733490257E0,4.344581532E0
5.971538333E0,-1.808776228E-1,4.323813077E0,2.111939303E0,4.815429769E0
5.981481333E0,9.695560634E-2,4.354710349E0,2.406245016E0,4.976235293E0
5.991425333E0,2.296616008E-1,4.441031039E0,2.284101797E0,4.999262162E0
6.001368333E0,2.233392989E-1,4.240586148E0,2.088871453E0,4.732423826E0
6.011312333E0,-5.654988438E-3,3.779474722E0,2.245016961E0,4.395971145E0
6.021256333E0,-1.989606488E-1,3.728133245E0,2.677927413E0,4.594546556E0
6.031199333E0,-2.497366270E-1,3.973297641E0,2.689621552E0,4.804531884E0
6.041143333E0,-3.065507325E-1,3.909388744E0,2.592272135E0,4.700762547E0
6.051087333E0,-1.314991292E-1,3.823935780E0,2.368621984E0,4.500016330E0
6.061030333E0,1.233092996E-1,3.513803555E0,1.965193048E0,4.027903216E0
6.070974333E0,2.533996153E-1,2.940800979E0,1.369546545E0,3.253948294E0
6.080917333E0,4.004866174E-1,2.322876585E0,7.964404732E-1,2.488064023E0
6.090861333E0,3.729730558E-1,1.762016337E0,4.951933846E-1,1.867893723E0
6.100805333E0,2.369250486E-1,1.227989547E0,4.496845052E-1,1.329025191E0
6.110748333E0,2.929998467E-1,7.044187474E-1,5.782834885E-1,9.573225553E-1
6.120692333E0,4.717182390E-1,5.432069188E-1,5.790822181E-1,9.235410489E-1
6.130635333E0,5.112825101E-1,6.872296876E-1,4.701822120E-1,9.771211599E-1
6.140579333E0,5.252030129E-1,6.569042730E-1,4.958786783E-1,9.763488579E-1
6.150523333E0,5.228510070E-1,2.670610499E-1,7.208915234E-1,9.297200484E-1
6.160466333E0,5.029272409E-1,3.210940003E-2,1.326664527E0,1.419156647E0
6.170410333E0,6.840569884E-1,3.785814857E-1,1.764285934E0,1.929757177E0
6.180354333E0,6.194943720E-1,5.992074573E-1,2.209793480E0,2.371921179E0
6.190297333E0,4.098003548E-1,7.926748663E-1,2.955887673E0,3.087643391E0
6.200241333E0,8.468784641E-2,1.224870642E0,3.848660439E0,4.039760797E0
6.210184333E0,-1.532347738E-1,1.733469061E0,4.454752993E0,4.782595541E0
6.220128333E0,-2.317193091E-1,1.975887020E0,4.808257817E0,5.203572483E0
6.230072333E0,-2.446784931E-1,2.208357697E0,5.075291385E0,5.540333377E0
6.240015333E0,-4.940274498E-1,2.205830530E0,5.693124563E0,6.125472940E0
6.249959333E0,-4.918028766E-1,2.361519079E0,5.736300403E0,6.222843783E0
6.259902333E0,-5.813143927E-1,2.456936283E0,5.850769590E0,6.372281155E0
6.269846333E0,-6.547215074E-1,2.216064327E0,5.840038195E0,6.280577002E0
6.279790333E0,-5.647427988E-1,1.790144953E0,5.393902073E0,5.711193654E0
6.289733333E0,-5.749078909E-1,1.278231162E0,5.058510461E0,5.249087737E0
6.299677333E0,-6.785530043E-1,7.331391013E-1,4.898736463E0,4.999554585E0
6.309621333E0,-7.937317505E-1,4.318192148E-1,4.793207961E0,4.877634722E0
6.319564333E0,-8.181453377E-1,1.436403608E-1,4.727226225E0,4.799652293E0
6.329508333E0,-8.368011716E-1,-3.511633068E-1,4.792451624E0,4.877616676E0
6.339451333E0,-7.882745442E-1,-5.753601730E-1,4.902586269E0,4.998776672E0
6.349395333E0,-6.717760813E-1,-5.829118520E-1,4.745152327E0,4.827788307E0
6.359339333E0,-6.101765415E-1,-7.947149599E-1,4.530568868E0,4.640036804E0
6.369282333E0,-4.580796085E-1,-1.278505982E0,4.114845868E0,4.333171009E0
6.379226333E0,-3.829736218E-1,-1.827225655E0,3.749400153E0,4.188487065E0
6.389170333E0,-5.272925520E-1,-2.073482897E0,3.469927218E0,4.076489134E0
6.399113333E0,-5.523888016E-1,-2.376455791E0,3.273228053E0,4.082486669E0
6.409057333E0,-4.192798974E-1,-2.838341389E0,2.998984283E0,4.150407715E0
6.419000333E0,-4.326279578E-1,-3.299010181E0,2.864653859E0,4.390544027E0
6.428944333E0,-3.855162835E-1,-3.337837447E0,2.923449951E0,4.453800764E0
6.438888333E0,-3.235869607E-1,-2.945379349E0,2.979248761E0,4.201891385E0
6.448831333E0,-1.613630157E-1,-2.878815231E0,2.699561234E0,3.949841264E0
6.458775333E0,-5.960242331E-2,-3.243369831E0,2.352195693E0,4.006972035E0
6.468718333E0,3.371329860E-1,-3.923244306E0,1.940891873E0,4.390053052E0
6.478662333E0,5.308548950E-1,-4.505270889E0,1.439625570E0,4.759390138E0
6.488606333E0,-7.589685917E-4,-4.388003225E0,1.258713741E0,4.564968035E0
6.498549333E0,-5.569928992E-1,-3.790457547E0,1.147157053E0,3.999222275E0
6.508493333E0,-9.146828681E-1,-3.967772607E0,9.671201134E-1,4.185114757E0
6.518437333E0,-9.814680111E-1,-4.639545180E0,8.785920990E-1,4.822922663E0
6.528380333E0,-7.777796692E-1,-4.733078996E0,3.191316748E-1,4.807163719E0
6.538324333E0,-6.952697553E-1,-4.612416438E0,-4.906606230E-1,4.690259404E0
6.548267333E0,-9.318212034E-1,-4.523581445E0,-1.065898589E0,4.739959878E0
6.558211333E0,-9.272622755E-1,-4.650615714E0,-1.715623066E0,5.042955914E0
6.568155333E0,-8.167230025E-1,-4.967944107E0,-2.266138712E0,5.521131204E0
6.578098333E0,-7.429595000E-1,-5.016143290E0,-2.717719762E0,5.753232399E0
6.588042333E0,-5.331212027E-1,-5.060237728E0,-3.258828115E0,6.042365825E0
6.597986333E0,-1.885213955E-1,-5.290930266E0,-3.636842421E0,6.423091638E0
6.607929333E0,1.151354769E-1,-5.163446347E0,-3.849399819E0,6.441452734E0
6.617873333E0,3.424358989E-1,-4.776277056E0,-4.286814235E0,6.427041399E0
6.627812333E0,5.167975308E-1,-4.577022657E0,-4.641590536E0,6.539157346E0
6.637756333E0,6.123319714E-1,-4.397751119E0,-4.826644679E0,6.558327851E0
6.647700333E0,8.414603792E-1,-4.228592924E0,-5.014537645E0,6.613217181E0
6.657643333E0,8.954944991E-1,-4.019957837E0,-5.155759597E0,6.598774768E0
6.667587333E0,7.054412793E-1,-3.578751503E0,-5.219783685E0,6.367986451E0
6.677530333E0,5.126901542E-1,-3.357588757E0,-5.383985195E0,6.365811027E0
6.687474333E0,3.758463044E-1,-3.358226688E0,-5.472565835E0,6.431790089E0
6.697418333E0,4.099477047E-1,-3.304322376E0,-5.635049433E0,6.545256725E0
6.707361333E0,3.502457325E-1,-3.051510991E0,-5.742136509E0,6.512029107E0
6.717305333E0,3.121122386E-1,-2.689400527E0,-5.578020369E0,6.200370995E0
6.727249333E0,3.869507517E-1,-2.445396802E0,-5.141383048E0,5.706445133E0
6.737192333E0,4.265536509E-1,-2.170533228E0,-4.739102505E0,5.229938342E0
6.747136333E0,4.780299063E-1,-1.751097246E0,-4.302183349E0,4.669436339E0
6.757079333E0,4.389595422E-1,-1.273638175E0,-3.636893291E0,3.878380138E0
6.767023333E0,4.013417727E-1,-9.352358311E-1,-2.984307772E0,3.153067420E0
6.776967333E0,5.506945708E-1,-8.004335368E-1,-2.553146954E0,2.731760920E0
6.786910333E0,6.080415769E-1,-7.683861172E-1,-2.308221416E0,2.507592050E0
6.796854333E0,5.971470447E-1,-7.519168496E-1,-2.267612357E0,2.462524993E0
6.806798333E0,4.267405426E-1,-5.043597722E-1,-2.210001787E0,2.306641318E0
6.816741333E0,2.273051729E-1,-1.503605658E-1,-2.111080932E0,2.128600160E0
6.826685333E0,1.520680258E-1,3.524584651E-2,-1.861247972E0,1.867782366E0
6.836628333E0,1.367263207E-1,3.955021584E-1,-1.429209194E0,1.489212868E0
6.846572333E0,-8.421452343E-3,8.511616409E-1,-1.079349232E0,1.374606061E0
6.856516333E0,-1.933849633E-1,1.125449849E0,-7.068161058E-1,1.342990735E0
6.866459333E0,-1.583885005E-1,1.545450672E0,-2.282226741E-1,1.570219821E0
6.876403333E0,-1.356063596E-1,2.091592893E0,2.885963452E-1,2.115759383E0
6.886347333E0,-2.120368138E-1,2.984135864E0,1.144290748E0,3.203034152E0
6.896290333E0,-3.338251430E-1,3.881312753E0,1.598509476E0,4.210850325E0
6.906234333E0,-4.230796739E-1,4.345870528E0,1.682035782E0,4.679191322E0
6.916177333E0,-1.182225144E-1,4.137062949E0,1.355286940E0,4.355005063E0
6.926121333E0,2.909495571E-1,3.557122652E0,1.112996449E0,3.738520336E0
6.936065333E0,2.256706569E-1,3.778434502E0,1.703081081E0,4.150660152E0
6.946008333E0,1.558420198E-1,4.262095131E0,2.443028826E0,4.915092215E0
6.955952333E0,-1.978928742E-1,4.005783602E0,3.011257589E0,5.015290233E0
6.965895333E0,-3.442975062E-1,3.565209351E0,3.147451521E0,4.768197727E0
6.975839333E0,-3.760502626E-1,3.036643860E0,2.627453370E0,4.033129176E0
6.985783333E0,-5.062423198E-1,2.272567141E0,2.154108545E0,3.171912092E0
6.995726333E0,-6.659730121E-1,2.057011875E0,1.803014674E0,2.815258393E0
7.005670333E0,-7.371058524E-1,2.429858412E0,1.657718382E0,3.032419359E0
7.015614333E0,-7.520259002E-1,2.331232256E0,1.852980886E0,3.071436952E0
7.025557333E0,-6.764453754E-1,1.648693789E0,2.325415153E0,2.929731249E0
7.035501333E0,-3.099421906E-1,1.065398360E0,2.835244703E0,3.044626472E0
7.045444333E0,5.333746064E-2,1.077048937E0,3.075910252E0,3.259463633E0
7.055388333E0,1.540811856E-1,1.335143282E0,3.111660129E0,3.389509899E0
7.065332333E0,-7.738581609E-2,1.584405407E0,3.359023663E0,3.714750198E0
7.075275333E0,-3.558521891E-1,1.795633149E0,3.476404763E0,3.928908152E0
7.085219333E0,-5.450040606E-1,1.622021130E0,3.404092247E0,3.809964042E0
7.095163333E0,-5.492444248E-1,1.335609305E0,3.454237677E0,3.743965756E0
7.105106333E0,-5.731072408E-1,1.164014575E0,3.675882525E0,3.898139836E0
7.115050333E0,-6.366644284E-1,1.070629279E0,3.989782112E0,4.179706921E0
7.124993333E0,-6.992348984E-1,1.187789939E0,4.229507428E0,4.448427528E0
7.134937333E0,-6.881994483E-1,1.176253383E0,4.383956367E0,4.590889231E0
7.144881333E0,-6.727113435E-1,1.061021719E0,4.557840866E0,4.727813554E0
7.154824333E0,-5.770283836E-1,1.135031682E0,4.526796244E0,4.702461367E0
7.164768333E0,-5.315420160E-1,1.182421610E0,4.444907159E0,4.630103393E0
7.174711333E0,-4.517953500E-1,1.061696488E0,4.438250688E0,4.585781029E0
7.184655333E0,-4.209857860E-1,7.430168027E-1,4.527748171E0,4.607581416E0
7.194599333E0,-4.549940693E-1,3.471456850E-1,4.543166109E0,4.579070651E0
7.204542333E0,-4.640110971E-1,1.722005010E-3,4.476097376E0,4.500084109E0
7.214486333E0,-6.156957284E-1,-2.312509471E-1,4.311188938E0,4.361067334E0
7.224430333E0,-7.612998766E-1,-6.977061439E-1,4.098673055E0,4.226759063E0
7.234373333E0,-7.147572094E-1,-1.080503472E0,3.972135800E0,4.178065154E0
7.244317333E0,-5.862476885E-1,-1.091201538E0,3.663203423E0,3.866971227E0
7.254260333E0,-4.563351282E-1,-1.128877487E0,3.269499868E0,3.488873101E0
7.264204333E0,-4.091273403E-1,-1.482885464E0,3.035739881E0,3.403241265E0
7.274148333E0,-4.357359722E-1,-1.834798384E0,3.185518649E0,3.701875202E0
7.284091333E0,-3.744945744E-1,-1.626704750E0,3.350089703E0,3.742928739E0
7.294035333E0,-4.141158924E-1,-1.500594342E0,3.311493402E0,3.659134310E0
7.303979333E0,-4.781440732E-1,-1.762121587E0,3.166121095E0,3.654862109E0
7.313922333E0,-3.255627349E-1,-2.214914179E0,2.876210296E0,3.644780046E0
7.323866333E0,-4.781996217E-1,-2.485026891E0,2.947757996E0,3.885011034E0
7.333809333E0,-6.570372972E-1,-2.221109304E0,3.129440342E0,3.893381744E0
7.343753333E0,-7.002517292E-1,-2.088709631E0,3.309671409E0,3.975799950E0
7.353697333E0,-5.907114530E-1,-2.215029370E0,3.328473716E0,4.041538371E0
7.363640333E0,-3.054491901E-1,-2.632256273E0,3.109392579E0,4.085387926E0
7.373584333E0,-1.502898327E-1,-2.893464260E0,2.611602738E0,3.900665497E0
7.383528333E0,-1.818712109E-1,-2.724581469E0,2.160637400E0,3.482064803E0
7.393471333E0,-3.497114432E-1,-2.712073106E0,1.713720675E0,3.227146909E0
7.403415333E0,-6.402180737E-1,-2.983682120E0,1.550115288E0,3.422732181E0
7.413358333E0,-6.069672972E-1,-3.006674541E0,1.326005838E0,3.341675116E0
7.423302333E0,-4.410004397E-1,-3.229633552E0,9.900081620E-1,3.406630363E0
7.433246333E0,-3.544298539E-1,-3.488361735E0,6.652798247E-1,3.568877325E0
7.443189333E0,-2.324473605E-1,-3.521784419E0,-4.986125439E-2,3.529799345E0
7.453133333E0,-1.218226451E-1,-3.734811934E0,-9.396031165E-1,3.853117563E0
7.463077333E0,5.972967334E-2,-3.977073188E0,-1.637684944E0,4.301475416E0
7.473020333E0,3.593066510E-1,-4.022412499E0,-2.341430677E0,4.668104668E0
7.482964333E0,7.042697896E-1,-3.994548177E0,-2.977729070E0,5.031826854E0
7.492907333E0,9.888242470E-1,-3.774504004E0,-3.545355423E0,5.272020385E0
7.502851333E0,1.083806857E0,-3.490936264E0,-3.898976022E0,5.344463240E0
7.512795333E0,1.019253376E0,-3.427839544E0,-4.131243215E0,5.464076490E0
7.522738333E0,1.016934298E0,-3.617982227E0,-4.377576470E0,5.769499676E0
7.532682333E0,1.174465523E0,-3.679473301E0,-4.752107882E0,6.123758842E0
7.542625333E0,1.106984927E0,-3.602738535E0,-5.167321297E0,6.395807218E0
7.552569333E0,9.101369503E-1,-3.328240997E0,-5.507982420E0,6.499492883E0
7.562513333E0,8.435453501E-1,-3.216549822E0,-5.882160952E0,6.757039217E0
7.572456333E0,8.155711010E-1,-3.194940267E0,-6.129254930E0,6.959925684E0
7.582400333E0,8.381783371E-1,-3.042720287E0,-6.353916650E0,7.094571619E0
7.592344333E0,7.735747902E-1,-2.717047917E0,-6.507974410E0,7.094680984E0
7.602287333E0,7.309658374E-1,-2.510646467E0,-6.576428348E0,7.077221669E0
7.612231333E0,6.896627140E-1,-2.644875149E0,-6.452018895E0,7.007106895E0
7.622173958E0,7.564039298E-1,-2.955257635E0,-6.202382548E0,6.911963821E0
7.632117958E0,8.015929665E-1,-3.150091538E0,-5.809847267E0,6.657323279E0
7.642061958E0,8.614375377E-1,-3.278222744E0,-5.345207630E0,6.329301984E0
7.652004958E0,9.208165973E-1,-3.344240148E0,-4.907413731E0,6.009538659E0
7.661948958E0,8.504772974E-1,-3.485756800E0,-4.229536957E0,5.546421817E0
7.671892958E0,7.580484592E-1,-3.700174198E0,-3.378015712E0,5.067239556E0
7.681835958E0,5.412543873E-1,-3.781812438E0,-2.666940202E0,4.659144951E0
7.691779958E0,1.468638577E-1,-3.694184895E0,-2.215315591E0,4.310010928E0
7.701722958E0,-1.923108298E-1,-3.480110144E0,-2.046317317E0,4.041727927E0
7.711666958E0,-5.741710686E-1,-3.110614647E0,-1.814674315E0,3.646729873E0
7.721610958E0,-7.283321053E-1,-2.632069162E0,-1.731790910E0,3.233783463E0
7.731553958E0,-6.432977291E-1,-2.077330949E0,-1.768647372E0,2.803078552E0
7.741497958E0,-4.735520355E-1,-1.509123675E0,-1.735020766E0,2.347765502E0
7.751441958E0,-3.246252070E-1,-8.029642117E-1,-1.312005119E0,1.572097478E0
7.761384958E0,-1.052932973E-1,-1.182804018E-1,-8.596070668E-1,8.740716454E-1
7.771328958E0,1.297269112E-1,5.566859204E-1,-2.810358953E-1,6.369532635E-1
7.781271958E0,4.416214871E-1,1.074605970E0,-9.761341810E-3,1.161853181E0
7.791215958E0,4.412627239E-1,1.379858109E0,3.430187932E-1,1.488752191E0
7.801159958E0,2.607296483E-1,1.881884258E0,8.677618861E-1,2.088654830E0
7.811102958E0,-8.104825616E-3,2.512150955E0,1.192697507E0,2.780916297E0
7.821046958E0,-2.340053146E-1,3.146658638E0,1.799772393E0,3.632547280E0
7.830990958E0,-1.496150458E-1,3.662383643E0,2.113862014E0,4.231294273E0
7.840933958E0,-8.688103650E-3,3.619327086E0,1.799135047E0,4.041842520E0
7.850877958E0,1.297105390E-1,3.320874090E0,1.483882999E0,3.639634363E0
7.860820958E0,2.386713561E-1,3.329624448E0,1.390087813E0,3.616034722E0
7.870764958E0,1.615176380E-2,3.421408192E0,1.299990406E0,3.660091522E0
7.880708958E0,-1.774483770E-1,3.170124684E0,1.386330539E0,3.464547705E0
7.890651958E0,-1.477556312E-1,2.927052421E0,1.494854569E0,3.289993584E0
7.900595958E0,-1.780064937E-1,2.568374273E0,1.475267273E0,2.967262416E0
7.910539958E0,-2.131850973E-1,2.101798623E0,1.317335440E0,2.489654193E0
7.920482958E0,-3.442673931E-1,1.682676637E0,1.182330979E0,2.085144418E0
7.930426958E0,-4.841672900E-1,1.674758922E0,1.127566249E0,2.076208337E0
7.940369958E0,-4.127754182E-1,1.710573703E0,9.527827406E-1,2.001059942E0
7.950313958E0,-2.887065652E-1,1.572244368E0,1.073105867E0,1.925320762E0
7.960257958E0,-1.858856168E-1,1.519448689E0,1.360643428E0,2.048079178E0
7.970200958E0,-9.840892266E-2,1.539090655E0,1.667052585E0,2.271023708E0
7.980144958E0,1.160266017E-1,1.373540778E0,1.731123450E0,2.212886088E0
7.990088958E0,2.007705814E-1,1.002900395E0,2.098179489E0,2.334196906E0
8.000031958E0,2.467519158E-1,1.200612298E0,2.758613726E0,3.018659651E0
8.009975958E0,-1.105152994E-2,1.685406117E0,3.472055604E0,3.859518887E0
8.019918958E0,-3.080827761E-1,1.866097945E0,4.041648961E0,4.462304658E0
8.029862958E0,-3.051968828E-1,1.885004332E0,4.508862834E0,4.896552923E0
8.039806958E0,-2.581922856E-1,1.883125622E0,4.782904875E0,5.146746973E0
8.049749958E0,-2.905583784E-1,1.967824879E0,4.906154240E0,5.294063501E0
8.059693958E0,-4.596662870E-1,2.047850457E0,5.049123341E0,5.467964073E0
8.069637958E0,-6.661914057E-1,2.038217170E0,5.396095948E0,5.806547313E0
8.079580958E0,-5.995211604E-1,2.035433310E0,5.646666681E0,6.032185258E0
8.089524958E0,-5.070772657E-1,1.906097578E0,5.742989033E0,6.072253154E0
8.099467958E0,-4.703725389E-1,1.686635202E0,5.453525546E0,5.727733366E0
8.109411958E0,-5.325690794E-1,1.390404148E0,4.906719666E0,5.127645795E0
8.119355958E0,-6.077481928E-1,1.018323011E0,4.476252912E0,4.630678110E0
8.129298958E0,-5.145912302E-1,6.076964450E-1,4.181153879E0,4.256306716E0
8.139242958E0,-4.057008719E-1,4.154856026E-2,4.006351951E0,4.027055430E0
8.149185958E0,-3.967110702E-1,-4.516710967E-1,3.996268428E0,4.041230976E0
8.159129958E0,-3.703477290E-1,-6.611481822E-1,4.082758688E0,4.152492367E0
8.169073958E0,-3.415893683E-1,-7.275807381E-1,4.196399324E0,4.272683503E0
8.179016958E0,-1.895024121E-1,-9.008664823E-1,4.169845948E0,4.270256060E0
8.188960958E0,-1.315673406E-1,-1.123655339E0,4.007080514E0,4.163724959E0
8.198904958E0,-1.487955585E-1,-1.173458998E0,3.791642777E0,3.971863680E0
8.208847958E0,-2.082158593E-1,-1.191366096E0,3.639464897E0,3.835154724E0
8.218791958E0,-2.616526678E-1,-1.357175590E0,3.662212320E0,3.914356496E0
8.228734958E0,-1.318395102E-1,-1.570582005E0,3.550224692E0,3.884353852E0
8.238678958E0,-1.531046641E-1,-1.967862886E0,3.494503065E0,4.013412146E0
8.248622958E0,-2.970490984E-1,-2.164850904E0,3.544225448E0,4.163694469E0
8.258565958E0,-2.984670482E-1,-2.159629340E0,3.368836461E0,4.012747259E0
8.268509958E0,-3.179075602E-1,-2.342577024E0,3.078320475E0,3.881338593E0
8.278453958E0,-3.467431407E-1,-2.671969392E0,2.852145495E0,3.923567913E0
8.288396958E0,-3.203783011E-1,-2.961987780E0,2.650777913E0,3.987811105E0
8.298340958E0,-3.291038452E-1,-3.045514671E0,2.748156273E0,4.115316738E0
8.308283958E0,-3.257922381E-1,-3.052039579E0,2.793921261E0,4.150552034E0
8.318227958E0,-3.043315314E-1,-3.246806824E0,2.614746201E0,4.179864822E0
8.328171958E0,-2.333705993E-1,-3.641338930E0,2.300736687E0,4.313606419E0
8.338114958E0,-3.735570099E-1,-3.694467900E0,2.122003823E0,4.276860780E0
8.348058958E0,-3.477559150E-1,-3.717414129E0,1.435490419E0,4.000091840E0
8.358002958E0,-5.311995884E-1,-3.995700079E0,7.944364862E-1,4.108396457E0
8.367945958E0,-6.929728959E-1,-4.202849388E0,4.381320150E-1,4.282068901E0
8.377889958E0,-6.114109618E-1,-4.219893436E0,7.297822148E-2,4.264580847E0
8.387832958E0,-5.045878867E-1,-4.582168792E0,-3.407451765E-1,4.622443839E0
8.397776958E0,-4.698521367E-1,-4.624548241E0,-6.743079257E-1,4.697009543E0
8.407720958E0,-2.725656188E-1,-3.956781596E0,-1.381932117E0,4.200017737E0
8.417663958E0,-7.405710585E-2,-3.424311334E0,-2.086233627E0,4.010456747E0
8.427607958E0,6.894093834E-2,-3.449886471E0,-2.646936000E0,4.348877982E0
8.437551958E0,4.327992082E-1,-3.627637734E0,-3.146171565E0,4.821355224E0
8.447494958E0,7.463591442E-1,-3.778438010E0,-3.694881591E0,5.337208609E0
8.457438958E0,1.007841731E0,-3.767965647E0,-4.324940127E0,5.823952024E0
8.467381958E0,1.310115445E0,-3.741383035E0,-4.931146410E0,6.326970397E0
8.477325958E0,1.268614978E0,-3.696355966E0,-5.149621775E0,6.464598659E0
8.487269958E0,1.073034239E0,-3.611135137E0,-5.377190731E0,6.565506805E0
8.497212958E0,8.731117961E-1,-3.617306288E0,-5.637897027E0,6.755228484E0
8.507156958E0,5.768744557E-1,-3.651304339E0,-5.742358704E0,6.829311166E0
8.517100958E0,3.506605925E-1,-3.685271984E0,-5.990097045E0,7.041694047E0
8.527043958E0,1.918491921E-1,-3.493014364E0,-6.307931807E0,7.213040908E0
8.536987958E0,1.390238379E-1,-3.005327927E0,-6.773463728E0,7.411554119E0
8.546930958E0,1.520629826E-1,-2.647331564E0,-7.140625017E0,7.617086924E0
8.556874958E0,3.278351091E-1,-2.543513081E0,-7.282772584E0,7.721121108E0
8.566818958E0,5.076338475E-1,-2.517745571E0,-7.076665249E0,7.528341512E0
8.576761958E0,6.454207800E-1,-2.293258098E0,-6.304476103E0,6.739586012E0
8.586705958E0,7.615606624E-1,-1.805237786E0,-5.391172593E0,5.736165969E0
8.596649958E0,8.131344932E-1,-1.446870709E0,-4.447897425E0,4.747463960E0
8.606592958E0,8.264255067E-1,-1.310404297E0,-3.358542145E0,3.698640815E0
8.616536958E0,7.833932155E-1,-1.203009657E0,-2.445644578E0,2.835862226E0
8.626480125E0,7.905333236E-1,-1.221868681E0,-2.056306701E0,2.519187023E0
8.636424125E0,5.693187567E-1,-1.205619269E0,-1.839339771E0,2.271742164E0
8.646368125E0,2.637769613E-1,-1.063769910E0,-1.676889063E0,2.003282715E0
8.656311125E0,-1.110851837E-1,-6.156609374E-1,-1.563281171E0,1.683813033E0
8.666255125E0,-4.338649363E-1,-1.063257694E-1,-1.371373215E0,1.442292774E0
8.676199125E0,-7.338503420E-1,1.758117414E-1,-1.185952232E0,1.405677342E0
8.686142125E0,-7.493850783E-1,2.736514467E-1,-1.108386505E0,1.365644080E0
8.696086125E0,-4.744922677E-1,3.207864368E-1,-8.270629263E-1,1.006021836E0
8.706029125E0,-2.838656554E-1,7.543194705E-1,-3.902314782E-1,8.954653430E-1
8.715973125E0,-2.592947781E-2,1.240275716E0,8.924254417E-2,1.243752556E0
8.725917125E0,-3.947605122E-2,1.807272032E0,7.744683909E-1,1.966619395E0
8.735860125E0,-1.683358203E-1,2.545580657E0,1.027423545E0,2.750257618E0
8.745804125E0,-2.025340651E-1,2.698813375E0,9.638293735E-1,2.872904582E0
8.755748125E0,-3.198543541E-1,2.489407040E0,8.125643165E-1,2.638127175E0
8.765691125E0,-2.792419879E-1,2.185693304E0,3.637938043E-1,2.233288436E0
8.775635125E0,-2.447299486E-1,1.897531407E0,1.594085473E-1,1.919877411E0
8.785578125E0,-2.457947266E-1,1.670610323E0,1.819079022E-1,1.698365209E0
8.795522125E0,-5.656862471E-1,1.563538449E0,8.744166023E-1,1.878631897E0
8.805466125E0,-1.072559153E0,1.899988992E0,2.195126471E0,3.094983284E0
8.815409125E0,-1.378442206E0,2.587382986E0,3.267407734E0,4.389829944E0
8.825353125E0,-1.354463359E0,2.867654650E0,3.419245014E0,4.663609188E0
8.835296125E0,-9.939933318E-1,2.721026362E0,2.865333598E0,4.074572841E0
8.845240125E0,-4.063782719E-1,2.422820118E0,2.059089244E0,3.205471750E0
8.855184125E0,7.982209504E-2,2.039056245E0,1.294615061E0,2.416640249E0
8.865127125E0,1.031603792E-1,1.838027802E0,1.051429362E0,2.120021690E0
8.875071125E0,-1.338032976E-1,1.961433288E0,1.500816536E0,2.473373029E0
8.885015125E0,-2.423147197E-1,1.845211691E0,2.064625827E0,2.779604722E0
8.894958125E0,-2.917202567E-1,1.375500180E0,2.561235115E0,2.921819085E0
8.904902125E0,-2.102624031E-1,1.189826524E0,2.738782310E0,2.993463876E0
8.914846125E0,4.079660833E-2,1.336986909E0,2.547981523E0,2.877743595E0
8.924789125E0,1.261829138E-1,1.323010309E0,2.411553703E0,2.753519506E0
8.934733125E0,1.522878081E-2,1.247452004E0,2.598648816E0,2.882593292E0
8.944676125E0,-2.175947750E-1,1.365176336E0,3.111877645E0,3.405119145E0
8.954620125E0,-3.217418718E-1,1.571853774E0,3.737699582E0,4.067510330E0
8.964564125E0,-3.157385355E-1,1.720047947E0,4.542309785E0,4.867323077E0
8.974507125E0,-3.535176882E-1,1.913085585E0,5.154402459E0,5.509331712E0
8.984451125E0,-3.771901408E-1,2.098958631E0,5.402371765E0,5.808056510E0
8.994394125E0,-3.515077078E-1,2.250508520E0,5.441264520E0,5.898788506E0
9.004338125E0,-4.207817182E-1,2.315359404E0,5.446638111E0,5.933280133E0
9.014282125E0,-3.901893783E-1,2.178139871E0,5.302245213E0,5.745463023E0
9.024225125E0,-2.111947051E-1,1.834404867E0,4.955046319E0,5.287922885E0
9.034169125E0,-1.036585620E-1,1.436776661E0,4.555546419E0,4.777873528E0
9.044113125E0,-4.692682922E-2,1.031441824E0,4.213618205E0,4.338277624E0
9.054056125E0,-1.397107304E-1,5.713489830E-1,4.128567822E0,4.170255509E0
9.064000125E0,-2.354717597E-1,2.689625645E-1,4.052435320E0,4.068171559E0
9.073944125E0,-1.889931196E-1,9.550842047E-2,4.066999272E0,4.072508237E0
9.083887125E0,-4.372197032E-2,-3.683336556E-2,3.974875220E0,3.975286320E0
9.093831125E0,4.956451277E-2,-1.736506104E-1,3.889920439E0,3.894109937E0
9.103774125E0,1.224155527E-1,-2.628908157E-1,3.661754483E0,3.673219711E0
9.113718125E0,1.762350798E-1,-4.721498001E-1,3.498445258E0,3.534558454E0
9.123662125E0,2.067467281E-1,-6.831717199E-1,3.401276813E0,3.475363545E0
9.133605125E0,1.658635810E-1,-7.571875298E-1,3.318034097E0,3.407373468E0
9.143549125E0,7.799571723E-2,-9.319005793E-1,3.237937768E0,3.370276399E0
9.153493125E0,-9.994325032E-2,-1.141785800E0,3.215514865E0,3.413678267E0
9.163436125E0,-2.593082267E-1,-1.234263609E0,3.077645706E0,3.326041266E0
9.173380125E0,-4.396486366E-1,-1.469183099E0,3.050891186E0,3.414634231E0
9.183323125E0,-4.081292206E-1,-1.739139106E0,3.078250308E0,3.559044710E0
9.193267125E0,-3.755017573E-1,-1.934550714E0,3.189797641E0,3.749439561E0
9.203211125E0,-3.715428634E-1,-2.173372636E0,3.259874182E0,3.935526953E0
9.213154125E0,-2.849409583E-1,-2.513285315E0,3.262946309E0,4.128512206E0
9.223098125E0,-4.231387674E-1,-2.568037473E0,3.297834306E0,4.201139606E0
9.233041125E0,-5.762711692E-1,-2.338628399E0,3.361903417E0,4.135657848E0
9.242985125E0,-6.663694534E-1,-2.451919371E0,3.306083558E0,4.169669692E0
9.252929125E0,-7.253833544E-1,-2.600870174E0,3.484774468E0,4.408441875E0
9.262872125E0,-3.183444203E-1,-2.708232070E0,3.153096423E0,4.168678587E0
9.272816125E0,-9.616009265E-2,-3.050559064E0,2.817207212E0,4.153530287E0
9.282760125E0,-1.388109992E-1,-3.232793387E0,2.725181978E0,4.230465505E0
9.292703125E0,-1.611734562E-1,-3.136435366E0,2.411179774E0,3.959418087E0
9.302647125E0,-3.393969548E-1,-3.329877048E0,2.053818126E0,3.927014176E0
9.312591125E0,-4.906468821E-1,-4.041176798E0,1.589462664E0,4.370152839E0
9.322534125E0,-6.507071015E-1,-4.393083286E0,9.864556861E-1,4.549252171E0
9.332478125E0,-6.956716783E-1,-4.459276106E0,3.912985951E-2,4.513383833E0
9.342421125E0,-7.194639987E-1,-4.543097112E0,-7.939779183E-1,4.667736148E0
9.352365125E0,-5.500019681E-1,-4.708953384E0,-1.862515941E0,5.093693136E0
9.362309125E0,-4.460805738E-1,-5.016983535E0,-2.777359607E0,5.751768255E0
9.372252125E0,-5.125907515E-1,-5.215180757E0,-3.645764102E0,6.383764994E0
9.382196125E0,-4.993386219E-1,-5.180381638E0,-4.554750028E0,6.916027819E0
9.392140125E0,-3.826698589E-1,-5.119377637E0,-5.034094827E0,7.190032986E0
9.402083125E0,-2.194177906E-1,-5.191988361E0,-5.192970108E0,7.346551970E0
9.412027125E0,9.852295250E-2,-5.133193438E0,-5.333735393E0,7.403250292E0
9.421970125E0,4.118443953E-1,-4.994905618E0,-5.526888222E0,7.460910894E0
9.431914125E0,5.568321007E-1,-4.734173595E0,-5.611731906E0,7.363015455E0
9.441858125E0,6.349359915E-1,-4.589509386E0,-5.976934962E0,7.562439531E0
9.451801125E0,4.912137696E-1,-4.399601762E0,-6.498614187E0,7.863191018E0
9.461745125E0,3.223396035E-1,-3.979652395E0,-7.258988450E0,8.284591077E0
9.471689125E0,2.170470370E-1,-3.495413477E0,-7.822853581E0,8.571001280E0
9.481632125E0,2.755235790E-1,-3.428125473E0,-8.004167553E0,8.711753883E0
9.491576125E0,4.657792586E-1,-3.565194733E0,-7.793449688E0,8.582856275E0
9.501519125E0,7.454887131E-1,-3.584518027E0,-7.199073200E0,8.076582065E0
9.511463125E0,9.763825415E-1,-3.383825798E0,-6.140949946E0,7.079185415E0
9.521407125E0,1.004287647E0,-3.108242431E0,-4.712561116E0,5.733933812E0
9.531350125E0,8.160915032E-1,-2.943280199E0,-3.268450878E0,4.473441048E0
9.541294125E0,4.882708660E-1,-3.080329578E0,-1.973901598E0,3.690951946E0
9.551238125E0,3.363425155E-1,-3.216820548E0,-1.226583584E0,3.459128216E0
9.561181125E0,2.454933026E-1,-3.164573922E0,-1.155969976E0,3.378026296E0
9.571125125E0,1.921016456E-1,-3.111889924E0,-1.639289420E0,3.522503619E0
9.581068125E0,8.919415846E-2,-3.068048086E0,-2.229889776E0,3.793848056E0
9.591012125E0,-8.591606319E-2,-2.776989478E0,-2.525332918E0,3.754511750E0
9.600956125E0,-8.359983489E-2,-2.397974129E0,-2.390926773E0,3.387299764E0
9.610899125E0,-1.123868470E-1,-2.193488227E0,-1.947403186E0,2.935370603E0
9.620843125E0,-1.530523315E-2,-1.779347484E0,-1.534634785E0,2.349769274E0
9.630787583E0,2.891353854E-1,-1.533748639E0,-1.501159037E0,2.165516708E0
9.640730583E0,4.448780208E-1,-1.234025043E0,-1.398053914E0,1.917104328E0
9.650674583E0,3.716071462E-1,-3.063321197E-1,-1.109092702E0,1.209139306E0
9.660617583E0,1.811178703E-1,7.591557026E-1,-4.511362226E-1,9.014682219E-1
9.670561583E0,-2.610226303E-2,1.515390136E0,1.980732608E-1,1.528503062E0
9.680505583E0,-1.815933951E-1,1.790038533E0,4.926723210E-1,1.865459763E0
9.690448583E0,-1.860368405E-1,1.715377191E0,8.486064076E-1,1.922826422E0
9.700392583E0,1.604709864E-1,1.971298710E0,7.829725814E-1,2.127161396E0
9.710336583E0,1.232126013E-1,2.831218311E0,1.393801965E0,3.158110572E0
9.720279583E0,-2.083137819E-1,3.908179539E0,2.307006072E0,4.543075936E0
9.730223583E0,-4.910085689E-1,4.158766059E0,2.790248625E0,5.032088228E0
9.740166583E0,-3.572113743E-1,3.893962035E0,3.058247568E0,4.964213783E0
9.750110583E0,-9.875393579E-2,3.413444284E0,2.686059428E0,4.344682897E0
9.760054583E0,-1.274994509E-3,2.603571587E0,2.000637553E0,3.283464216E0
9.769997583E0,-2.835431814E-1,2.019463980E0,2.112180208E0,2.935972877E0
9.779941583E0,-5.804946131E-1,2.827521701E0,3.278167781E0,4.367864119E0
9.789885583E0,-5.942469719E-1,3.454991090E0,3.737268934E0,5.124185007E0
9.799828583E0,-9.050352547E-1,2.910401305E0,3.765487012E0,4.844421225E0
9.809772583E0,-6.216414696E-1,2.522522746E0,3.097018408E0,4.042410437E0
9.819716583E0,-2.811469742E-1,2.326739840E0,2.282920075E0,3.271771076E0
9.829659583E0,-4.352199554E-2,1.995593891E0,2.082505150E0,2.884634612E0
9.839603583E0,-7.376792450E-2,1.746030049E0,2.737259695E0,3.247561127E0
9.849546583E0,-1.223740740E-1,1.980858908E0,3.706504686E0,4.204397033E0
9.859490583E0,-1.995739487E-1,2.164001888E0,3.954752612E0,4.512516167E0
9.869434583E0,-4.084759605E-1,1.852501999E0,3.967588128E0,4.397768959E0
9.879377583E0,-4.766527408E-1,1.706720388E0,3.972247481E0,4.349579563E0
9.889321583E0,-6.088594562E-1,1.816359774E0,4.069758866E0,4.498089582E0
9.899264583E0,-6.385495707E-1,1.883497505E0,4.250867015E0,4.693099059E0
9.909208583E0,-6.073780276E-1,1.897442529E0,4.592121045E0,5.005673972E0
9.919152583E0,-4.690136825E-1,2.094262147E0,4.905823288E0,5.354718471E0
9.929095583E0,-5.049357229E-1,2.247862655E0,5.133739568E0,5.626999960E0
9.939039583E0,-5.074304741E-1,2.214853953E0,5.205241660E0,5.679577841E0
9.948983583E0,-4.415726629E-1,2.043242851E0,4.923691794E0,5.349071756E0
9.958926583E0,-4.726792654E-1,1.715611664E0,4.548050873E0,4.883801369E0
9.968870583E0,-4.744947528E-1,1.293820424E0,4.287021226E0,4.503073123E0
9.978813583E0,-3.850701410E-1,9.335418928E-1,4.121694127E0,4.243600118E0
9.988757583E0,-3.445337703E-1,5.997816539E-1,4.044584556E0,4.103304251E0
9.998701583E0,-3.626770592E-1,2.057757980E-1,4.046880172E0,4.068306461E0
1.000864458E1,-4.255413517E-1,-3.019443691E-2,4.025773478E0,4.048314371E0
1.001858858E1,-4.603553814E-1,-2.855370820E-1,3.852156197E0,3.890059880E0
1.002853258E1,-4.420781547E-1,-5.958780527E-1,3.809946316E0,3.881519636E0
1.003847558E1,-4.389370304E-1,-7.193735862E-1,3.958855019E0,4.047554463E0
1.004841958E1,-4.765729263E-1,-7.478015792E-1,4.112894652E0,4.207401975E0
1.005836358E1,-5.369118065E-1,-7.887063611E-1,4.262873395E0,4.368343118E0
1.006830658E1,-4.826546153E-1,-8.505868596E-1,4.157834598E0,4.271304488E0
1.007825058E1,-5.483059832E-1,-1.163162636E0,3.971727664E0,4.174710458E0
1.008819358E1,-5.259023765E-1,-1.580211784E0,3.685089551E0,4.043949504E0
1.009813758E1,-4.739317390E-1,-1.995394501E0,3.464496324E0,4.026033443E0
1.010808158E1,-5.118336833E-1,-2.465611796E0,3.310074867E0,4.159063702E0
1.011802458E1,-6.013174251E-1,-2.831934010E0,3.231218147E0,4.338456361E0
1.012796858E1,-6.498990163E-1,-2.945267082E0,3.154626639E0,4.364474327E0
1.013791258E1,-6.678452906E-1,-3.020976246E0,3.078671308E0,4.364691493E0
1.014785558E1,-7.129545128E-1,-3.140461174E0,2.942800727E0,4.362439300E0
1.015779958E1,-6.733273476E-1,-3.318419428E0,2.814173677E0,4.402823038E0
1.016774258E1,-5.371360837E-1,-3.330319097E0,2.843776960E0,4.412097898E0
1.017768658E1,-3.505019502E-1,-3.535988476E0,2.503019651E0,4.346397760E0
1.018763058E1,-3.908275288E-1,-4.100026685E0,2.164178182E0,4.652594134E0
1.019757358E1,-3.728811448E-1,-4.354929619E0,1.761333821E0,4.712403757E0
1.020751758E1,-4.908423983E-1,-4.228822135E0,1.355269690E0,4.467730838E0
1.021746158E1,-6.659809790E-1,-4.137635391E0,9.878183797E-1,4.305733671E0
1.022740458E1,-8.037361173E-1,-4.250299543E0,5.307029405E-1,4.358059609E0
1.023734858E1,-7.463321739E-1,-4.297936808E0,1.786581659E-1,4.365912421E0
1.024729158E1,-4.607708991E-1,-4.346423090E0,-2.691072831E-1,4.379054947E0
1.025723558E1,-4.748268747E-1,-4.306006551E0,-6.480436948E-1,4.380309762E0
1.026717958E1,-5.284237690E-1,-3.982999926E0,-8.847886857E-1,4.114167122E0
1.027712258E1,-4.168411334E-1,-3.838647375E0,-1.410513892E0,4.110780903E0
1.028706658E1,-4.621983507E-1,-3.976218325E0,-1.940374248E0,4.448481956E0
1.029701058E1,-4.478595892E-1,-3.949139285E0,-2.657844858E0,4.781257010E0
1.030695358E1,-2.752457631E-1,-4.026442984E0,-3.569362336E0,5.387796472E0
1.031689758E1,-1.025845747E-1,-4.083234651E0,-4.155693932E0,5.826930656E0
1.032684058E1,-2.362947553E-2,-3.894685920E0,-4.476020193E0,5.933286908E0
1.033678458E1,2.635676309E-2,-3.730612464E0,-4.717688832E0,6.014545033E0
1.034672858E1,1.043701681E-1,-3.440833812E0,-4.853957316E0,5.950725340E0
1.035667158E1,4.980045797E-1,-2.797396846E0,-5.389190971E0,6.092357261E0
1.036661558E1,1.050830461E0,-2.202587664E0,-5.892140980E0,6.377535762E0
1.037655958E1,1.481701111E0,-1.549508640E0,-6.469007396E0,6.815018114E0
1.038650258E1,1.626555354E0,-7.589311695E-1,-7.245774912E0,7.464778155E0
1.039644658E1,1.736074434E0,-2.196828157E-1,-7.968821719E0,8.158696867E0
1.040639058E1,2.037802456E0,-1.448027873E-1,-8.398631830E0,8.643530720E0
1.041633358E1,2.405413103E0,-5.398547101E-1,-8.523842937E0,8.873181713E0
1.042627758E1,2.417819872E0,-1.082127829E0,-8.105619668E0,8.527480505E0
1.043622058E1,2.156567592E0,-1.725467731E0,-6.966844014E0,7.494327067E0
1.044616458E1,1.827661711E0,-2.262880644E0,-5.098348711E0,5.869764536E0
1.045610858E1,1.470759801E0,-2.485519812E0,-3.531307195E0,4.561915566E0
1.046605158E1,1.040028680E0,-2.713944799E0,-2.399235081E0,3.768751120E0
1.047599558E1,6.632438242E-1,-2.977465360E0,-1.816584892E0,3.550376461E0
1.048593858E1,4.726282485E-1,-3.128714118E0,-1.935538601E0,3.709250486E0
1.049588258E1,4.382746871E-1,-3.187741760E0,-2.603722153E0,4.139221096E0
1.050582658E1,4.272243266E-1,-3.098696852E0,-3.019965555E0,4.347946039E0
1.051576958E1,5.920637678E-1,-2.585265709E0,-2.843859698E0,3.888659959E0
1.052571358E1,6.921139399E-1,-1.979846170E0,-2.313687393E0,3.122813141E0
1.053565758E1,7.294497275E-1,-1.512910917E0,-1.686461832E0,2.380157528E0
1.054560058E1,9.456864135E-1,-1.194334728E0,-1.582504185E0,2.196605957E0
1.055554458E1,1.012616421E0,-1.135440402E0,-1.789867795E0,2.349094218E0
1.056548858E1,1.065903048E0,-1.091220249E0,-1.998031157E0,2.513769966E0
1.057543158E1,8.320634651E-1,-6.971430570E-1,-2.008624996E0,2.283180332E0
1.058537558E1,3.723956432E-1,1.131728590E-1,-1.230628249E0,1.290710075E0
1.059531858E1,1.069856277E-1,8.114719105E-1,-2.538416648E-1,8.569528440E-1
1.060526258E1,-1.732024214E-1,1.270076635E0,7.142490864E-1,1.467394118E0
1.061520658E1,-2.792841426E-1,1.544547862E0,1.169394014E0,1.957322173E0
1.062514983E1,-1.803489249E-1,1.636884753E0,8.501652753E-1,1.853293939E0
1.063509383E1,8.690983403E-2,1.496053979E0,2.118282874E-1,1.513473505E0
1.064503783E1,-7.989606231E-2,1.806884362E0,1.828687459E-1,1.817871133E0
1.065498083E1,-4.244926536E-1,2.177579123E0,8.565832523E-1,2.378188327E0
1.066492483E1,-8.301224819E-1,2.384472324E0,2.436111424E0,3.508482645E0
1.067486783E1,-8.038152739E-1,2.817077404E0,3.341855654E0,4.444102081E0
1.068481183E1,-5.238722232E-1,2.604956208E0,3.436461264E0,4.343904346E0
1.069475583E1,-1.022777420E-1,2.027201600E0,2.528108007E0,3.242119239E0
1.070469883E1,-6.973648857E-2,1.453247098E0,1.499797805E0,2.089541519E0
1.071464283E1,-7.759465671E-1,1.747938581E0,1.701380711E0,2.559702850E0
1.072458683E1,-8.794984174E-1,2.569772927E0,2.116446483E0,3.443340831E0
1.073452983E1,-1.012251263E0,2.270340521E0,2.447487474E0,3.488451467E0
1.074447383E1,-8.036597380E-1,1.484415096E0,2.794010139E0,3.264329917E0
1.075441783E1,-3.924367556E-1,1.309619016E0,2.577175502E0,2.917351905E0
1.076436083E1,-1.219933838E-2,1.413923403E0,1.949366974E0,2.408186000E0
1.077430483E1,-1.965503169E-1,1.229996311E0,2.341227340E0,2.651955582E0
1.078424783E1,-4.388800201E-1,1.841009881E0,3.420650977E0,3.909320422E0
1.079419183E1,-5.805806402E-1,2.206846776E0,4.016979558E0,4.619888672E0
1.080413583E1,-7.815473226E-1,1.675720789E0,4.495353427E0,4.860767307E0
1.081407883E1,-5.392679420E-1,1.862282637E0,4.735617857E0,5.117126442E0
1.082402283E1,-5.049380253E-1,2.320334800E0,4.941067965E0,5.482067915E0
1.083396683E1,-7.053633651E-1,2.441931158E0,5.288956246E0,5.868016993E0
1.084390983E1,-8.090596417E-1,2.704627261E0,5.825346481E0,6.473349037E0
1.085385383E1,-9.183625209E-1,2.758670737E0,6.228493874E0,6.873702779E0
1.086379683E1,-9.485665327E-1,2.627626448E0,6.364394860E0,6.950519488E0
1.087374083E1,-9.124208727E-1,2.552244143E0,5.958616805E0,6.546111536E0
1.088368483E1,-8.991628960E-1,2.289291932E0,5.404285558E0,5.937647165E0
1.089362783E1,-7.474218026E-1,1.932155110E0,4.928462538E0,5.346176737E0
1.090357183E1,-5.334175835E-1,1.411539493E0,4.545885357E0,4.789786189E0
1.091351583E1,-4.279098030E-1,8.608972549E-1,4.260775122E0,4.367889138E0
1.092345883E1,-3.742764732E-1,4.133490300E-1,3.963711131E0,4.002742339E0
1.093340283E1,-3.581618392E-1,1.894965649E-2,3.727868366E0,3.745082315E0
1.094334583E1,-4.562883871E-1,-2.568716919E-1,3.611347976E0,3.649111722E0
1.095328983E1,-4.223680313E-1,-4.182601064E-1,3.520017976E0,3.569854734E0
1.096323383E1,-3.353627049E-1,-5.452826804E-1,3.530256450E0,3.587828305E0
1.097317683E1,-3.021867727E-1,-7.475910795E-1,3.604636542E0,3.693726284E0
1.098312083E1,-2.345136935E-1,-7.614103889E-1,3.642427681E0,3.728541520E0
1.099306483E1,-1.650481685E-1,-7.445324010E-1,3.535455794E0,3.616768871E0
1.100300783E1,-1.864326239E-1,-9.184607542E-1,3.431919147E0,3.557582931E0
1.101295183E1,-2.146463347E-1,-1.135826903E0,3.261597941E0,3.460375259E0
1.102289483E1,-1.922412479E-1,-1.388251787E0,3.069709865E0,3.374510094E0
1.103283883E1,-2.196942177E-1,-1.708557583E0,2.924011284E0,3.393711324E0
1.104278283E1,-2.729535815E-1,-1.969466193E0,2.799318241E0,3.433581709E0
1.105272583E1,-2.514694494E-1,-2.235288218E0,2.680097022E0,3.498952750E0
1.106266983E1,-2.650215594E-1,-2.526795307E0,2.533349451E0,3.587867109E0
1.107261383E1,-3.410341752E-1,-2.705236541E0,2.362110232E0,3.607516292E0
1.108255683E1,-4.138033587E-1,-2.838831970E0,2.252209475E0,3.647279492E0
1.109250083E1,-4.906653008E-1,-2.995180669E0,2.194663517E0,3.745451593E0
1.110244483E1,-5.887822007E-1,-3.141248209E0,2.175627468E0,3.866194469E0
1.111238783E1,-6.401915420E-1,-3.282578920E0,2.058911197E0,3.927376337E0
1.112233183E1,-6.790567419E-1,-3.535644075E0,2.048840976E0,4.142420358E0
1.113227483E1,-7.355254231E-1,-3.529724354E0,1.977191826E0,4.112084530E0
1.114221883E1,-9.173641820E-1,-3.296093005E0,1.857358843E0,3.893015285E0
1.115216283E1,-8.115891472E-1,-3.292180048E0,1.655800495E0,3.773433674E0
1.116210583E1,-7.001716223E-1,-3.399509200E0,1.416406131E0,3.748747715E0
1.117204983E1,-6.905874512E-1,-3.354873894E0,1.256545594E0,3.648423866E0
1.118199383E1,-6.345573112E-1,-3.362969949E0,1.071388540E0,3.586098613E0
1.119193683E1,-7.999081644E-1,-3.424817119E0,1.151510890E0,3.700703000E0
1.120188083E1,-8.941166027E-1,-3.497857028E0,1.054908163E0,3.761286950E0
1.121182383E1,-7.578503117E-1,-3.776382129E0,7.716991496E-1,3.928220801E0
1.122176783E1,-6.500222464E-1,-3.874487883E0,5.678587800E-1,3.969464557E0
1.123171183E1,-5.446327624E-1,-3.702224232E0,-2.511917067E-1,3.750491486E0
1.124165483E1,-5.883639421E-1,-3.735490796E0,-9.845117792E-1,3.907598631E0
1.125159883E1,-7.838951258E-1,-4.036768582E0,-1.613867480E0,4.417528766E0
1.126154283E1,-8.807533760E-1,-4.138406639E0,-2.247575557E0,4.791005312E0
1.127148583E1,-7.917534913E-1,-3.988143137E0,-2.904235708E0,4.996673326E0
1.128142983E1,-6.678223403E-1,-3.482861259E0,-3.289357890E0,4.836960260E0
1.129137383E1,-2.510573669E-1,-3.251700359E0,-3.782077025E0,4.994065643E0
1.130131683E1,1.540144908E-1,-3.386911958E0,-4.009259187E0,5.250623992E0
1.131126083E1,5.867036252E-1,-3.510560104E0,-4.368549246E0,5.634933532E0
1.132120383E1,7.124968220E-1,-3.552795128E0,-4.908094931E0,6.100770508E0
1.133114783E1,7.325651971E-1,-3.568045835E0,-5.335317650E0,6.460125175E0
1.134109183E1,9.373775201E-1,-3.572908965E0,-5.745001060E0,6.830036037E0
1.135103483E1,1.246846379E0,-3.443315370E0,-6.285462711E0,7.274481983E0
1.136097883E1,1.495745100E0,-3.129548516E0,-6.711577383E0,7.554905577E0
1.137092283E1,1.656837060E0,-2.820813775E0,-7.183320217E0,7.893173553E0
1.138086583E1,1.731664464E0,-2.737273436E0,-7.619758732E0,8.279616586E0
1.139080983E1,1.755685264E0,-2.938741005E0,-7.763261683E0,8.484507139E0
1.140075283E1,1.837107450E0,-3.170132285E0,-7.518193181E0,8.363487980E0
1.141069683E1,1.964128708E0,-3.403136228E0,-6.690360761E0,7.758870077E0
1.142064083E1,2.105636005E0,-3.424957452E0,-5.515552810E0,6.825346828E0
1.143058383E1,2.132559655E0,-3.508665606E0,-4.382494563E0,6.005397874E0
1.144052783E1,2.015479979E0,-3.548593903E0,-3.356740326E0,5.284163496E0
1.145047183E1,1.866809990E0,-3.442016119E0,-2.566882940E0,4.682023337E0
1.146041483E1,1.600770448E0,-3.194081311E0,-1.910737051E0,4.051609252E0
1.147035883E1,1.252533819E0,-2.857531950E0,-1.610289277E0,3.511034231E0
1.148030283E1,9.360428931E-1,-2.711596557E0,-1.769066617E0,3.370241666E0
1.149024583E1,7.128798147E-1,-2.552002069E0,-2.130060848E0,3.399716371E0
1.150018983E1,6.056092814E-1,-2.103154593E0,-2.311300267E0,3.183100810E0
1.151013283E1,4.301249841E-1,-1.406718464E0,-1.970167420E0,2.458744395E0
1.152007683E1,3.423571077E-1,-9.526143408E-1,-1.468840452E0,1.783865114E0
1.153002083E1,1.828318354E-1,-6.655844647E-1,-1.002411422E0,1.217069767E0
1.153996383E1,3.426627709E-1,-2.794910610E-1,-9.367518680E-1,1.035875036E0
1.154990783E1,3.651170292E-1,-1.657966304E-1,-1.122182279E0,1.191676145E0
1.155985183E1,1.330614321E-1,6.781659186E-2,-1.042523321E0,1.053166326E0
1.156979483E1,-1.862187620E-1,7.557087690E-1,-1.884602921E-1,8.008061266E-1
1.157973883E1,-2.051052685E-1,1.474964241E0,9.950956781E-1,1.791034085E0
1.158968183E1,-2.698291949E-1,1.875104411E0,1.756580765E0,2.583486081E0
1.159962583E1,-4.496558904E-1,2.041207436E0,2.226253685E0,3.053673801E0
1.160956983E1,-6.834278280E-1,2.428390176E0,2.142201129E0,3.309558599E0
1.161951283E1,-8.746879131E-1,2.845697186E0,2.061362203E0,3.621089001E0
1.162945696E1,-8.980504632E-1,3.012284360E0,2.562701304E0,4.055587463E0
1.163940096E1,-8.077621445E-1,3.333197681E0,3.522900653E0,4.916656941E0
1.164934396E1,-5.389831826E-1,3.429606573E0,4.173213944E0,5.428482177E0
1.165928796E1,-3.553580993E-1,3.509285411E0,4.462428925E0,5.688113517E0
1.166923196E1,-6.330780387E-3,3.545406586E0,3.508735188E0,4.988102902E0
1.167917496E1,-3.906010222E-1,3.117485125E0,2.681800901E0,4.130779434E0
1.168911896E1,-1.076882291E0,2.910687234E0,2.471656648E0,3.967475548E0
1.169906196E1,-1.319011691E0,2.707267864E0,2.626288605E0,3.995808174E0
1.170900596E1,-1.390635113E0,2.389385154E0,2.735226618E0,3.889021996E0
1.171894996E1,-1.091222295E0,2.070660446E0,2.511515655E0,3.433090687E0
1.172889296E1,-6.495543230E-1,1.702098164E0,1.928488759E0,2.652947017E0
1.173883696E1,-4.263824737E-1,1.338853340E0,1.270653756E0,1.894436921E0
1.174878096E1,-6.436822566E-1,1.197083504E0,1.286204864E0,1.871271951E0
1.175872396E1,-9.017394716E-1,1.525298828E0,2.457873591E0,3.029985673E0
1.176866796E1,-8.500325435E-1,2.475578375E0,3.140505321E0,4.088253574E0
1.177861096E1,-7.821647885E-1,2.282989803E0,3.466941630E0,4.224157722E0
1.178855496E1,-4.183162397E-1,1.880434148E0,3.423637151E0,3.928398198E0
1.179849896E1,-2.335958999E-2,1.758962336E0,3.037237645E0,3.509886990E0
1.180844196E1,-1.150790147E-1,1.691997684E0,3.285938438E0,3.697768348E0
1.181838596E1,-2.222868366E-1,1.985989255E0,3.995971682E0,4.467813161E0
1.182832996E1,-3.215538839E-1,2.060813735E0,4.474174227E0,4.936454716E0
1.183827296E1,-4.411124870E-1,1.742525228E0,4.846051295E0,5.168673675E0
1.184821696E1,-4.804247797E-1,1.625929994E0,4.831957459E0,5.120768419E0
1.185816096E1,-5.314271182E-1,1.525622179E0,4.839909672E0,5.102417413E0
1.186810396E1,-4.486062786E-1,1.501044577E0,4.714729264E0,4.968204348E0
1.187804796E1,-4.270856014E-1,1.301562722E0,4.617393588E0,4.816304723E0
1.188799096E1,-4.899016544E-1,1.023301331E0,4.543345034E0,4.682855255E0
1.189793496E1,-3.540486154E-1,8.422744578E-1,4.395278331E0,4.489236939E0
1.190787896E1,-3.080181643E-1,5.786919165E-1,4.232089851E0,4.282562788E0
1.191782196E1,-3.148471275E-1,4.928735018E-2,4.077299727E0,4.089734835E0
1.192776596E1,-2.790960816E-1,-2.664786673E-1,3.977340406E0,3.996015792E0
1.193770996E1,-2.029720581E-1,-4.198850477E-1,3.867153136E0,3.895173229E0
1.194765296E1,-1.618594077E-1,-6.927167147E-1,3.858160118E0,3.923194414E0
1.195759696E1,-7.864212692E-2,-8.576999974E-1,3.821257170E0,3.917121422E0
1.196754096E1,-8.015308399E-2,-9.219094419E-1,3.780368761E0,3.891982721E0
1.197748396E1,-6.799496848E-2,-1.087829449E0,3.636902062E0,3.796716059E0
1.198742796E1,-8.091439147E-2,-1.251634517E0,3.467714632E0,3.687571134E0
1.199737096E1,-1.197352256E-1,-1.443541304E0,3.281183774E0,3.586685794E0
1.200731496E1,-2.553647914E-1,-1.719755001E0,3.160487888E0,3.607139051E0
1.201725896E1,-4.550873690E-1,-1.939601539E0,3.264854840E0,3.824713815E0
1.202720196E1,-5.984473193E-1,-1.991884418E0,3.486225747E0,4.059496605E0
1.203714596E1,-6.262911755E-1,-2.153350015E0,3.524579973E0,4.177537661E0
1.204708996E1,-6.439714015E-1,-2.603852838E0,3.631891583E0,4.515017745E0
1.205703296E1,-6.703487029E-1,-2.927053590E0,3.515418556E0,4.623329723E0
1.206697696E1,-8.903969695E-1,-3.227865354E0,3.350658052E0,4.736964311E0
1.207691996E1,-1.174957640E0,-3.484438838E0,3.426302311E0,5.026070732E0
1.208686396E1,-1.346657034E0,-3.717022950E0,3.344410887E0,5.178303676E0
1.209680796E1,-1.358681979E0,-3.944716451E0,3.297091709E0,5.317670387E0
1.210675096E1,-9.784566951E-1,-4.432074859E0,2.906709373E0,5.389770351E0
1.211669496E1,-7.007034266E-1,-4.996263927E0,2.424809926E0,5.597619288E0
1.212663896E1,-5.773200135E-1,-5.169102359E0,1.759736215E0,5.490864152E0
1.213658196E1,-7.021809449E-1,-5.036116794E0,1.452320314E0,5.288172155E0
1.214652596E1,-8.323619655E-1,-4.914195916E0,9.863878584E-1,5.080857108E0
1.215646996E1,-1.113437622E0,-5.096961751E0,3.154526067E-1,5.226688510E0
1.216641296E1,-1.330531437E0,-4.984316311E0,-2.710666850E-1,5.165965557E0
1.217635696E1,-1.132207330E0,-4.657166934E0,-1.228066730E0,4.947650471E0
1.218629996E1,-1.112033559E0,-4.617129879E0,-1.886169682E0,5.110004210E0
1.219624396E1,-1.098557774E0,-4.631906378E0,-2.118701754E0,5.210593344E0
1.220618796E1,-6.686244321E-1,-4.640131071E0,-2.749239178E0,5.434720880E0
1.221613096E1,-3.259808108E-1,-4.739683426E0,-3.382094145E0,5.831759878E0
1.222607496E1,1.207069963E-2,-4.575524601E0,-4.176376119E0,6.194972846E0
1.223601896E1,4.577213569E-1,-4.691763740E0,-5.323592228E0,7.110751721E0
1.224596196E1,5.026390828E-1,-4.990684513E0,-6.021745684E0,7.837155035E0
1.225590596E1,4.390320477E-1,-5.242156302E0,-6.583578908E0,8.427126620E0
1.226584996E1,2.799043129E-1,-5.511297791E0,-6.999504806E0,8.913238317E0
1.227579296E1,6.386577442E-2,-5.559361319E0,-7.259432838E0,9.143847234E0
1.228573696E1,-8.733839840E-2,-5.023149424E0,-7.433141921E0,8.971691978E0
1.229567996E1,-1.250402217E-1,-4.304842955E0,-7.503199165E0,8.651318145E0
1.230562396E1,-1.146741316E-2,-3.818057574E0,-7.816715174E0,8.699352347E0
1.231556796E1,2.514125852E-1,-3.241867096E0,-8.218894853E0,8.838729726E0
1.232551096E1,7.297462544E-1,-2.527457796E0,-8.443315083E0,8.843649818E0
1.233545496E1,1.214189387E0,-1.940119017E0,-7.981521871E0,8.303192702E0
1.234539896E1,1.688682166E0,-1.684820811E0,-6.742141364E0,7.151694819E0
1.235534196E1,1.711205056E0,-1.392316187E0,-4.832258591E0,5.312013761E0
1.236528596E1,1.653069115E0,-9.229987782E-1,-2.882854780E0,3.448973169E0
1.237522996E1,1.701237015E0,-3.341104871E-1,-1.410483925E0,2.235017249E0
1.238517296E1,1.613387716E0,-3.092533886E-2,-5.866977780E-1,1.717029581E0
1.239511696E1,1.284400560E0,1.987053448E-1,-3.656003746E-1,1.350123048E0
1.240505996E1,6.888113594E-1,6.729513717E-1,-4.308427298E-1,1.054964500E0
1.241500396E1,1.227757412E-1,1.173429762E0,-4.366957927E-1,1.258059818E0
1.242494796E1,-2.335184243E-1,1.290963475E0,-6.198832849E-1,1.450990294E0
1.243489096E1,-4.162879137E-1,1.307677156E0,-6.718847664E-1,1.527987012E0
1.244483496E1,-1.473004986E-1,1.440900117E0,-1.050828780E0,1.789450113E0
1.245477896E1,2.347620539E-3,1.145806931E0,-1.580859071E0,1.952432953E0
1.246472196E1,3.321043074E-2,5.703853619E-1,-1.796569873E0,1.885233594E0
1.247466596E1,-1.657077527E-1,3.836603773E-1,-1.602606035E0,1.656200607E0
1.248460896E1,-4.067077625E-1,1.051711197E0,-6.138559020E-1,1.283871767E0
1.249455296E1,-2.449305264E-1,1.752297095E0,1.696826534E-1,1.777449936E0
1.250449696E1,-2.201102471E-1,1.667776762E0,7.644251402E-1,1.847775323E0
1.251443996E1,1.117110550E-1,1.677973137E0,9.363601776E-1,1.924797026E0
1.252438396E1,3.006778804E-1,1.735736611E0,3.688217519E-1,1.799782835E0
1.253432796E1,1.929853244E-1,1.357981337E0,-1.540403648E-1,1.380248195E0
1.254427096E1,-2.163604095E-1,1.415736040E0,3.243718033E-1,1.468447285E0
1.255421496E1,-6.781890151E-1,1.939419106E0,1.464761289E0,2.523254335E0
1.256415896E1,-8.585051590E-1,2.034995939E0,2.358750861E0,3.231399882E0
1.257410196E1,-8.293003634E-1,1.776561286E0,2.874535069E0,3.479491480E0
1.258404596E1,-5.717860624E-1,1.663109515E0,2.543534131E0,3.092319265E0
1.259398896E1,-3.080727993E-1,1.164253727E0,1.638663183E0,2.033620569E0
1.260393296E1,-1.836162759E-1,7.542539817E-1,1.041422875E0,1.298913242E0
1.261387696E1,-4.312365032E-1,9.484856218E-1,1.156483216E0,1.556612773E0
1.262381996E1,-5.362384996E-1,1.700550406E0,1.745341247E0,2.495123140E0
1.263376300E1,-5.112001740E-1,1.620656390E0,1.955749502E0,2.590908888E0
1.264370700E1,-4.678330566E-1,1.005287814E0,2.196731970E0,2.460711829E0
1.265365000E1,-1.085576151E-1,8.348391384E-1,2.235536432E0,2.388799758E0
1.266359400E1,5.497643519E-2,8.487777311E-1,2.296215328E0,2.448683499E0
1.267353800E1,-3.294672132E-2,9.707453871E-1,2.547617242E0,2.726496966E0
1.268348100E1,-2.868661906E-1,1.245481492E0,3.000688454E0,3.261540672E0
1.269342500E1,-5.343019018E-1,1.359914426E0,3.508541938E0,3.800619989E0
1.270336800E1,-7.228985801E-1,1.281803226E0,4.033708735E0,4.293763853E0
1.271331200E1,-7.249676174E-1,1.484682314E0,4.319768265E0,4.624960268E0
1.272325600E1,-6.796867794E-1,1.787582118E0,4.504368664E0,4.893542787E0
1.273319900E1,-6.475940439E-1,2.047658084E0,4.606406670E0,5.082446663E0
1.274314300E1,-6.261224833E-1,2.086380685E0,4.773299654E0,5.246846987E0
1.275308700E1,-4.865950540E-1,2.085503603E0,5.062923939E0,5.497208277E0
1.276303000E1,-2.538542363E-1,2.174421042E0,5.262670673E0,5.699846617E0
1.277297400E1,-2.164396575E-1,2.185882754E0,5.261661444E0,5.701755053E0
1.278291800E1,-3.053076875E-1,2.063580052E0,4.901155748E0,5.326622108E0
1.279286100E1,-4.119044754E-1,1.796936494E0,4.561723125E0,4.920158933E0
1.280280500E1,-2.960541764E-1,1.500505464E0,4.244658734E0,4.511794819E0
1.281274800E1,-1.911855331E-1,1.144973118E0,4.035473424E0,4.199114324E0
1.282269200E1,-1.271272391E-1,7.790777510E-1,3.992596961E0,4.069883779E0
1.283263600E1,-9.218603253E-2,5.673079723E-1,4.012824234E0,4.053775393E0
1.284257900E1,-5.573946029E-2,4.565213621E-1,3.975428367E0,4.001943195E0
1.285252300E1,-2.502169758E-2,2.371478641E-1,3.938831813E0,3.946043746E0
1.286246700E1,4.022592008E-3,1.363822120E-1,3.818900743E0,3.821337354E0
1.287241000E1,-1.951859057E-2,-1.547173262E-2,3.735663874E0,3.735746903E0
1.288235400E1,-1.126536445E-1,-1.619883388E-1,3.727721601E0,3.732939779E0
1.289229800E1,-5.970241070E-2,-3.159823644E-1,3.575425022E0,3.589857005E0
1.290224100E1,5.046322525E-2,-6.535269213E-1,3.467769595E0,3.529174116E0
1.291218500E1,1.630951985E-1,-9.947528851E-1,3.286229922E0,3.437359516E0
1.292212800E1,5.924952557E-2,-1.324325933E0,3.221386054E0,3.483486442E0
1.293207200E1,2.559063166E-2,-1.499281057E0,3.128588988E0,3.469375682E0
1.294201600E1,-6.034092665E-2,-1.619858830E0,2.965397877E0,3.379521893E0
1.295195900E1,-2.266422448E-1,-1.872165601E0,2.888240358E0,3.449391701E0
1.296190300E1,-2.188610626E-1,-2.144135388E0,2.757995968E0,3.500251203E0
1.297184700E1,-2.742467298E-1,-2.333262994E0,2.668244716E0,3.555117063E0
1.298179000E1,-3.237275132E-1,-2.576739299E0,2.584813135E0,3.664102054E0
1.299173400E1,-4.124386916E-1,-2.905197868E0,2.413903845E0,3.799633153E0
1.300167800E1,-5.302982401E-1,-3.215418971E0,2.338425354E0,4.011030855E0
1.301162100E1,-5.453639567E-1,-3.442913082E0,2.006469712E0,4.022063281E0
1.302156500E1,-5.986589154E-1,-3.804859824E0,1.778603426E0,4.242497015E0
1.303150800E1,-5.307743496E-1,-4.117263692E0,1.731523253E0,4.497972265E0
1.304145200E1,-5.284701812E-1,-4.139662036E0,1.718913002E0,4.513396107E0
1.305139600E1,-5.426755531E-1,-4.115107239E0,1.571921310E0,4.438416491E0
1.306133900E1,-4.965734737E-1,-4.024711039E0,1.391915945E0,4.287460106E0
1.307128300E1,-4.631338321E-1,-4.149606981E0,9.134493980E-1,4.274122231E0
1.308122700E1,-6.521474169E-1,-4.104292229E0,6.954605207E-1,4.213570492E0
1.309117000E1,-6.202721979E-1,-3.882388056E0,4.612655005E-1,3.958590719E0
1.310111400E1,-6.157933769E-1,-4.004510663E0,2.448275971E-1,4.058971260E0
1.311105800E1,-6.669461350E-1,-4.347731112E0,1.361015457E-1,4.400693877E0
1.312100100E1,-5.500531313E-1,-4.312705706E0,-1.533356291E-1,4.350344902E0
1.313094500E1,-4.365560442E-1,-4.129780827E0,-7.486856782E-1,4.219739459E0
1.314088900E1,-4.351072504E-1,-3.852281327E0,-1.264710061E0,4.077852533E0
1.315083200E1,-5.022818179E-1,-3.503579698E0,-1.664049162E0,3.911063454E0
1.316077600E1,-6.513405012E-1,-3.223665299E0,-1.781089662E0,3.740126040E0
1.317071900E1,-6.307708736E-1,-3.232000505E0,-2.051225178E0,3.879590686E0
1.318066300E1,-3.359506059E-1,-3.420080289E0,-2.363596887E0,4.170899452E0
1.319060700E1,1.928613451E-1,-3.452806571E0,-2.800694675E0,4.450051615E0
1.320055000E1,3.827436800E-1,-3.421015259E0,-3.367737184E0,4.815754548E0
1.321049400E1,3.716462494E-1,-3.735938108E0,-3.863175275E0,5.386972961E0
1.322043800E1,2.400426744E-1,-3.974142564E0,-4.253444175E0,5.826080754E0
1.323038100E1,2.660883656E-1,-3.777393113E0,-4.656276988E0,6.001701187E0
1.324032500E1,3.725188002E-1,-3.572416044E0,-4.853708224E0,6.038162815E0
1.325026900E1,3.928630176E-1,-3.475592000E0,-4.916224315E0,6.033518262E0
1.326021200E1,4.092672350E-1,-3.585282258E0,-4.971219133E0,6.142863192E0
1.327015600E1,4.129053725E-1,-3.740873158E0,-5.170950664E0,6.395572969E0
1.328009900E1,3.268008828E-1,-3.727842053E0,-5.514399154E0,6.664248136E0
1.329004300E1,9.117534131E-2,-3.621793442E0,-6.036134512E0,7.039930435E0
1.329998700E1,-3.358976886E-1,-3.480151075E0,-6.390065306E0,7.284038260E0
1.330993000E1,-4.877718061E-1,-3.215439436E0,-6.559156258E0,7.321168139E0
1.331987400E1,-3.558393252E-1,-3.083040347E0,-6.527393013E0,7.227628861E0
1.332981800E1,-7.491949707E-2,-3.052155939E0,-6.176151354E0,6.889565614E0
1.333976100E1,2.836281122E-1,-3.040741589E0,-5.393613805E0,6.198195237E0
1.334970500E1,6.313763528E-1,-2.973993284E0,-4.117931736E0,5.118655481E0
1.335964900E1,7.956139693E-1,-2.633814556E0,-2.782476506E0,3.913075032E0
1.336959200E1,8.046768612E-1,-2.009475766E0,-1.645462618E0,2.719015434E0
1.337953600E1,7.614785090E-1,-1.540858853E0,-9.523757744E-1,1.964972046E0
1.338947900E1,6.102641767E-1,-1.161512552E0,-9.641120133E-1,1.628203227E0
1.339942300E1,3.199444377E-1,-5.337841308E-1,-1.237577226E0,1.385239088E0
1.340936700E1,2.108100314E-1,2.296125573E-1,-1.400545851E0,1.434814091E0
1.341931000E1,2.264745759E-1,7.958078045E-1,-1.307805648E0,1.547564670E0
1.342925400E1,3.997361273E-1,1.177504102E0,-1.060641650E0,1.634400683E0
1.343919800E1,6.326981159E-1,1.502826809E0,-8.045568471E-1,1.818270344E0
1.344914100E1,8.116078582E-1,1.997429332E0,-2.546906805E-1,2.171013265E0
1.345908500E1,5.984655187E-1,2.724811850E0,2.765790745E-1,2.803436566E0
1.346902900E1,4.259141848E-1,3.614696091E0,1.139195411E0,3.813816581E0
1.347897200E1,3.913720507E-1,4.188772216E0,1.945123065E0,4.634920549E0
1.348891600E1,1.823397922E-1,4.488433247E0,2.341901085E0,5.065943299E0
1.349885900E1,-1.808171041E-2,4.434979756E0,2.291232038E0,4.991905111E0
1.350880300E1,-8.782547146E-2,4.181481323E0,1.678348528E0,4.506589969E0
1.351874700E1,-2.375431359E-3,3.728242587E0,6.654692745E-1,3.787168836E0
1.352869000E1,-5.153838202E-1,3.684321227E0,1.017720748E0,3.856889797E0
1.353863400E1,-5.156925532E-1,4.399177254E0,2.090072032E0,4.897662751E0
1.354857800E1,-3.764925680E-1,4.769318869E0,2.848360008E0,5.567881452E0
1.355852100E1,-4.643045908E-1,4.123051266E0,2.756459320E0,4.981284822E0
1.356846500E1,-4.347784907E-1,3.399271803E0,2.111095111E0,4.025022198E0
1.357840900E1,-2.973921290E-2,2.936099233E0,1.002238344E0,3.102586796E0
1.358835200E1,-1.371180659E-1,2.234770154E0,5.114043514E-1,2.296635238E0
1.359829600E1,-5.951111904E-1,1.975166059E0,1.606649970E0,2.614720332E0
1.360823900E1,-4.596969849E-1,2.779435953E0,2.560903870E0,3.807205559E0
1.361818300E1,-7.878956446E-1,2.582488282E0,2.741196917E0,3.847620799E0
1.362812808E1,-7.410600320E-1,1.920817358E0,2.184556020E0,3.001831824E0
1.363807108E1,-3.013961926E-1,1.811640487E0,1.234197536E0,2.212718797E0
1.364801508E1,1.336729047E-1,1.478422285E0,5.500078154E-1,1.583069643E0
1.365795908E1,4.914204687E-2,1.045444736E0,9.170392960E-1,1.391521005E0
1.366790208E1,-7.236221731E-3,1.393571584E0,2.280121744E0,2.672274179E0
1.367784608E1,2.129296470E-2,1.827401657E0,3.310835590E0,3.781730094E0
1.368779008E1,-1.800524710E-1,1.665710356E0,3.773638908E0,4.128844934E0
1.369773308E1,-4.140705764E-2,1.530562491E0,3.570023364E0,3.884508064E0
1.370767708E1,-5.893956833E-3,1.528318330E0,3.252197372E0,3.593407771E0
1.371762008E1,-1.235978232E-1,1.448809646E0,3.389351417E0,3.688092846E0
1.372756408E1,-2.913550250E-1,1.572271850E0,3.962703656E0,4.273165897E0
1.373750808E1,-3.617944220E-1,1.532335952E0,4.534840844E0,4.800388542E0
1.374745108E1,-3.401532921E-1,1.234082930E0,5.093330630E0,5.251731319E0
1.375739508E1,-4.466749433E-1,1.216914920E0,5.371687331E0,5.525886826E0
1.376733908E1,-5.231383976E-1,1.174074710E0,5.292927675E0,5.446761293E0
1.377728208E1,-6.261140049E-1,1.023833427E0,5.075140527E0,5.215103547E0
1.378722608E1,-5.737960428E-1,8.409828079E-1,4.797527007E0,4.904361259E0
1.379717008E1,-4.899016544E-1,6.384428591E-1,4.524014724E0,4.595032333E0
1.380711308E1,-4.238982841E-1,2.538749939E-1,4.426620576E0,4.454111808E0
1.381705708E1,-3.760139734E-1,-1.668888903E-1,4.392510259E0,4.411732629E0
1.382700008E1,-3.874791938E-1,-4.655868852E-1,4.442485242E0,4.483590793E0
1.383694408E1,-5.655885985E-1,-6.730554521E-1,4.488763615E0,4.574045572E0
1.384688808E1,-6.358557585E-1,-8.054995644E-1,4.384785503E0,4.503275030E0
1.385683108E1,-5.811594415E-1,-9.855774343E-1,4.209003582E0,4.361745101E0
1.386677508E1,-4.465267164E-1,-1.253810266E0,4.096436495E0,4.307228604E0
1.387671908E1,-3.085359353E-1,-1.436729298E0,3.795454577E0,4.069995202E0
1.388666208E1,-3.257790819E-1,-1.593257507E0,3.549676223E0,3.904459346E0
1.389660608E1,-4.046197218E-1,-1.889665148E0,3.321172882E0,3.842491484E0
1.390655008E1,-4.638406143E-1,-2.153060578E0,3.063434633E0,3.772989494E0
1.391649308E1,-4.560804820E-1,-2.377314162E0,2.920281930E0,3.793109355E0
1.392643708E1,-3.508785840E-1,-2.626683877E0,2.807395585E0,3.860576892E0
1.393638008E1,-3.933913136E-1,-2.693473697E0,2.977049038E0,4.033903601E0
1.394632408E1,-2.533733028E-1,-2.726077187E0,3.090840533E0,4.129042269E0
1.395626808E1,-3.703242671E-2,-3.056691039E0,3.066955534E0,4.330236455E0
1.396621108E1,-2.733745810E-1,-3.356263778E0,3.036248589E0,4.534098113E0
1.397615508E1,-7.537877394E-1,-3.262658041E0,2.662972282E0,4.278382267E0
1.398609908E1,-1.003129606E0,-3.173855208E0,2.231156283E0,4.007204043E0
1.399604208E1,-1.169231169E0,-3.370247979E0,2.067274031E0,4.123020117E0
1.400598608E1,-1.227549982E0,-3.457513579E0,2.207420388E0,4.281820159E0
1.401593008E1,-9.056468003E-1,-3.311962933E0,2.050281437E0,3.999118474E0
1.402587308E1,-6.173501249E-1,-3.263458525E0,2.145462414E0,3.954022217E0
1.403581708E1,-3.679417460E-1,-3.204287041E0,2.284120654E0,3.952220102E0
1.404576008E1,-2.546276037E-1,-3.254331606E0,1.928028730E0,3.791148138E0
1.405570408E1,-3.702485456E-1,-3.302897995E0,1.486029512E0,3.640673407E0
1.406564808E1,-4.774720819E-1,-3.348250753E0,6.595270416E-1,3.445829162E0
1.407559108E1,-7.823141849E-1,-3.531850401E0,-2.685953593E-1,3.627413156E0
1.408553508E1,-9.297211759E-1,-3.473692825E0,-9.698770756E-1,3.724457658E0
1.409547908E1,-6.224843457E-1,-3.490462639E0,-1.664405258E0,3.916766659E0
1.410542208E1,-2.253655784E-1,-3.586463395E0,-2.053327544E0,4.138799746E0
1.411536608E1,2.544005124E-1,-3.617916738E0,-2.469337057E0,4.387672121E0
1.412531008E1,6.165030827E-1,-3.748167560E0,-2.980424636E0,4.828226084E0
1.413525308E1,9.062894824E-1,-3.898361480E0,-3.505744922E0,5.320604318E0
1.414519708E1,9.934204508E-1,-3.996078393E0,-4.012819557E0,5.749630207E0
1.415514008E1,1.067772768E0,-4.211407372E0,-4.318523685E0,6.125825460E0
1.416508408E1,1.097871018E0,-4.641850737E0,-4.535683427E0,6.582136674E0
1.417502808E1,9.542886910E-1,-5.290370688E0,-4.706442590E0,7.144878639E0
1.418497108E1,8.887310247E-1,-5.896924587E0,-5.119510369E0,7.859576886E0
1.419491508E1,7.861449882E-1,-6.050018726E0,-5.508327405E0,8.219636326E0
1.420485908E1,6.796334235E-1,-6.121921352E0,-5.776345645E0,8.444287515E0
1.421480208E1,5.479472566E-1,-6.216424052E0,-6.087208772E0,8.717699514E0
1.422474608E1,4.449565928E-1,-6.058546890E0,-6.218415028E0,8.693253836E0
1.423469008E1,4.089780901E-1,-5.859508839E0,-6.400672740E0,8.687330916E0
1.424463308E1,3.737477387E-1,-5.732485680E0,-6.300937952E0,8.526599470E0
1.425457708E1,5.340816079E-1,-5.597194558E0,-6.007645708E0,8.228343518E0
1.426452008E1,6.171990475E-1,-5.326766097E0,-5.462278243E0,7.654531685E0
1.427446408E1,6.106278004E-1,-5.068800391E0,-4.819317825E0,7.020785427E0
1.428440808E1,5.774109377E-1,-4.656063564E0,-3.991843548E0,6.160125503E0
1.429435108E1,7.438817520E-1,-4.017966861E0,-2.948561988E0,5.038991521E0
1.430429508E1,1.091241445E0,-3.509050353E0,-1.708198272E0,4.052429346E0
1.431423908E1,1.306443393E0,-3.122704350E0,-7.600281072E-1,3.469253453E0
1.432418208E1,1.384027466E0,-2.619473090E0,-2.339839357E-1,2.971854603E0
1.433412608E1,1.232418959E0,-2.054629135E0,-2.724904820E-1,2.411349919E0
1.434407008E1,9.501960055E-1,-1.613467823E0,-8.170168251E-1,2.042955545E0
1.435401308E1,7.578691690E-1,-1.316686546E0,-1.423539442E0,2.081944687E0
1.436395708E1,5.047508048E-1,-7.667687774E-1,-1.333281821E0,1.618748945E0
1.437390008E1,3.143859284E-1,-1.768081069E-2,-9.497588530E-1,1.000596323E0
1.438384408E1,1.531820666E-1,3.926802921E-1,-3.795344357E-1,5.671939221E-1
1.439378808E1,1.387102079E-1,7.199390119E-1,1.941417392E-1,7.584482300E-1
1.440373108E1,1.148635083E-1,1.374099187E0,5.848971279E-1,1.497814024E0
1.441367508E1,1.790697368E-1,1.934861786E0,6.352100066E-1,2.044320878E0
1.442361908E1,-1.265273879E-1,2.321190832E0,1.025871840E0,2.540934689E0
1.443356208E1,-5.078731083E-1,3.280610163E0,2.094641047E0,3.925284607E0
1.444350608E1,-5.094389926E-1,3.981974325E0,2.418455172E0,4.686637710E0
1.445345008E1,-6.235456154E-1,3.769552581E0,2.120770499E0,4.369897402E0
1.446339308E1,-4.568385735E-1,3.598361310E0,1.465739089E0,3.912198445E0
1.447333708E1,-5.688843817E-2,3.860748096E0,1.053710361E0,4.002364011E0
1.448328008E1,-2.098533538E-1,4.028353854E0,1.530668911E0,4.314466424E0
1.449322408E1,-3.336029488E-1,4.131901027E0,2.909324833E0,5.064392165E0
1.450316808E1,-5.935385817E-1,4.295430107E0,3.442312573E0,5.536472135E0
1.451311108E1,-9.417139614E-1,3.911981399E0,3.347925063E0,5.234407883E0
1.452305508E1,-7.941360124E-1,3.373981426E0,2.617576838E0,4.343513690E0
1.453299908E1,-4.755563514E-1,2.678004304E0,1.540619556E0,3.125918986E0
1.454294208E1,-7.418891671E-1,2.058176056E0,1.194764936E0,2.492779867E0
1.455288608E1,-1.162312743E0,2.703490562E0,2.443615741E0,3.825060787E0
1.456282908E1,-9.882753396E-1,3.296820399E0,3.056090530E0,4.602760282E0
1.457277308E1,-1.085116925E0,2.985708765E0,3.486508752E0,4.716744518E0
1.458271708E1,-5.543163362E-1,2.698005874E0,2.847591684E0,3.961726984E0
1.459266008E1,-2.008343160E-1,2.277921436E0,1.729137443E0,2.866910670E0
1.460260408E1,-1.093648598E-1,1.564053004E0,9.412403369E-1,1.828703323E0
1.461254808E1,-2.367908185E-1,1.104955359E0,1.350994206E0,1.761301105E0
1.462249108E1,-4.608082482E-1,1.729395306E0,2.496885045E0,3.072065639E0
1.463243387E1,-3.527306530E-1,2.052938120E0,3.123652183E0,3.754487555E0
1.464237787E1,-3.733760751E-1,1.485778667E0,3.809996310E0,4.106460742E0
1.465232087E1,-4.827226623E-1,1.535059585E0,3.957211659E0,4.271879353E0
1.466226488E1,-5.416261241E-1,1.615662283E0,4.102153902E0,4.442002939E0
1.467220787E1,-3.984029621E-1,1.909897683E0,4.608378936E0,5.004357151E0
1.468215187E1,-2.943420386E-1,2.156913893E0,5.185037191E0,5.623479835E0
1.469209587E1,-2.892301834E-1,1.840501174E0,5.782015690E0,6.074767823E0
1.470203887E1,-3.696911598E-1,1.471719621E0,6.017604686E0,6.205980692E0
1.471198288E1,-5.663907634E-1,1.461218022E0,5.711431611E0,5.922533887E0
1.472192687E1,-7.689816561E-1,1.390816961E0,5.176356415E0,5.414828745E0
1.473186987E1,-7.987109470E-1,9.985594225E-1,4.663155945E0,4.835295592E0
1.474181387E1,-7.586817858E-1,4.403158039E-1,4.234628420E0,4.324529329E0
1.475175787E1,-6.735235217E-1,-2.000537127E-1,4.042223450E0,4.102831442E0
1.476170088E1,-5.440264061E-1,-6.059212303E-1,4.027063959E0,4.108570237E0
1.477164487E1,-4.653351626E-1,-9.031509894E-1,4.143355138E0,4.266100130E0
1.478158787E1,-5.136062667E-1,-1.124186266E0,4.282659203E0,4.457438279E0
1.479153187E1,-5.192546770E-1,-1.172149807E0,4.192363576E0,4.384001932E0
1.480147587E1,-5.096775225E-1,-1.264231174E0,3.938248846E0,4.167475928E0
1.481141888E1,-3.864921838E-1,-1.366619428E0,3.560815169E0,3.833592249E0
1.482136287E1,-2.743574980E-1,-1.410968220E0,3.365078455E0,3.659215266E0
1.483130687E1,-1.503526720E-1,-1.496381423E0,3.239616503E0,3.571677250E0
1.484124988E1,-1.265042274E-1,-1.620388588E0,3.183290859E0,3.574213646E0
1.485119387E1,-9.673720370E-2,-1.688300489E0,3.152596486E0,3.577510479E0
1.486113788E1,-3.196672797E-2,-1.888361803E0,2.906859062E0,3.466520125E0
1.487108087E1,-1.492718325E-1,-2.125137200E0,2.624454918E0,3.380274222E0
1.488102487E1,-2.682822775E-1,-2.206280766E0,2.382097185E0,3.257919151E0
1.489096788E1,-4.111025298E-1,-2.326902977E0,2.225022261E0,3.245644284E0
1.490091187E1,-5.529346757E-1,-2.447408829E0,2.059984599E0,3.246395429E0
1.491085588E1,-5.259731278E-1,-2.498613482E0,1.902625501E0,3.184289695E0
1.492079887E1,-4.878110556E-1,-2.688039295E0,1.733283412E0,3.235395843E0
1.493074287E1,-4.744799155E-1,-2.926106926E0,1.669742596E0,3.402245328E0
1.494068688E1,-3.120384175E-1,-2.934648539E0,1.620973309E0,3.367058730E0
1.495062987E1,-2.418153309E-1,-2.903926098E0,1.522958626E0,3.287957484E0
1.496057387E1,-4.218108281E-1,-2.891570932E0,1.381180165E0,3.232145646E0
1.497051787E1,-4.975933012E-1,-2.996516758E0,1.028472316E0,3.206940455E0
1.498046087E1,-4.985072941E-1,-3.270331927E0,7.877813315E-1,3.400614630E0
1.499040488E1,-5.187606604E-1,-3.349216129E0,6.506959918E-1,3.451052966E0
1.500034787E1,-5.059771851E-1,-3.071302646E0,4.720822647E-1,3.148297083E0
1.501029187E1,-5.522260297E-1,-3.026830478E0,3.074691108E-1,3.092117977E0
1.502023587E1,-6.263981795E-1,-3.217963679E0,1.981948829E-1,3.284348661E0
1.503017887E1,-6.120774713E-1,-3.395432521E0,-8.281645417E-2,3.451153344E0
1.504012288E1,-4.312059881E-1,-3.382807798E0,-4.593847436E-1,3.440982642E0
1.505006687E1,-1.149214688E-1,-3.369516492E0,-1.004359860E0,3.517895260E0
1.506000987E1,1.731978898E-1,-3.422717968E0,-1.292889255E0,3.662862054E0
1.506995387E1,3.541649019E-1,-3.556555472E0,-1.359220069E0,3.823872226E0
1.507989687E1,4.698940904E-1,-3.733334343E0,-1.448573418E0,4.031990913E0
1.508984088E1,5.262784986E-1,-3.872017434E0,-1.721274692E0,4.269926772E0
1.509978487E1,3.277978331E-1,-3.899409301E0,-2.423498980E0,4.602846035E0
1.510972787E1,1.787221929E-1,-3.901642352E0,-3.354999025E0,5.148861343E0
1.511967187E1,3.373194391E-1,-3.910537137E0,-3.973165787E0,5.584991627E0
1.512961587E1,6.074660647E-1,-4.050363944E0,-4.136677325E0,5.821216573E0
1.513955888E1,7.670392111E-1,-4.247723844E0,-4.074090483E0,5.935462936E0
1.514950287E1,6.303133290E-1,-4.501266716E0,-4.091385377E0,6.115401152E0
1.515944687E1,3.426105845E-1,-4.719861365E0,-4.303425590E0,6.396400951E0
1.516938988E1,-1.461305438E-1,-4.879102097E0,-4.608513130E0,6.713075650E0
1.517933387E1,-5.299295001E-1,-4.929769975E0,-4.989922037E0,7.034399705E0
1.518927687E1,-6.193705572E-1,-4.958327776E0,-5.488969029E0,7.422763314E0
1.519922087E1,-4.219983776E-1,-4.894857420E0,-5.944226807E0,7.711779569E0
1.520916487E1,-2.136449808E-1,-4.405075926E0,-6.370747275E0,7.748339108E0
1.521910788E1,7.858131588E-2,-3.405111417E0,-6.548707284E0,7.381498891E0
1.522905187E1,3.625191844E-1,-2.620831398E0,-6.259308116E0,6.795521721E0
1.523899587E1,5.633247028E-1,-2.314988106E0,-5.547951647E0,6.037902958E0
1.524893887E1,8.192770663E-1,-2.079322511E0,-4.685062830E0,5.190819853E0
1.525888287E1,1.006602560E0,-1.721393976E0,-3.804310770E0,4.295256263E0
1.526882688E1,1.026729846E0,-1.449535870E0,-2.704712923E0,3.235861618E0
1.527876987E1,1.063490925E0,-1.009051082E0,-1.737340795E0,2.273224597E0
1.528871387E1,1.014424234E0,-5.479285455E-1,-1.062530593E0,1.567881845E0
1.529865687E1,6.653657057E-1,-2.973361784E-1,-7.608651361E-1,1.053582498E0
1.530860087E1,2.233995983E-1,-6.242779791E-2,-7.530652428E-1,7.879796129E-1
1.531854488E1,-1.585925683E-2,1.854046834E-1,-1.127958013E0,1.143204133E0
1.532848787E1,-1.548392406E-1,3.430970728E-1,-1.457896804E0,1.505707104E0
1.533843187E1,-2.233152522E-1,6.344702607E-1,-1.565792989E0,1.704150785E0
1.534837587E1,-7.006148413E-2,1.135470223E0,-1.217873133E0,1.666558192E0
1.535831887E1,1.789402210E-1,1.551379164E0,-7.067949097E-1,1.714163340E0
1.536826288E1,4.544838998E-1,1.782227823E0,-3.504914618E-1,1.872361047E0
1.537820587E1,5.931318348E-1,2.132086031E0,-2.443129691E-1,2.226496136E0
1.538814987E1,7.119370973E-1,2.576365077E0,-1.589577270E-1,2.677644301E0
1.539809387E1,7.772449413E-1,3.017179064E0,2.921736717E-2,3.115819773E0
1.540803687E1,6.664787232E-1,3.374270278E0,5.339841787E-1,3.480665583E0
1.541798088E1,4.874749868E-1,3.558078672E0,8.308753109E-1,3.686178167E0
1.542792487E1,1.979460838E-1,3.398939096E0,3.660672748E-1,3.424321083E0
1.543786787E1,-2.958639226E-1,3.225092604E0,-7.351819357E-2,3.239469508E0
1.544781188E1,-5.794239148E-1,3.959313440E0,9.310264206E-1,4.108370138E0
1.545775587E1,-3.572000088E-1,4.976896779E0,2.190907266E0,5.449510808E0
1.546769887E1,-3.550838649E-1,4.817496418E0,2.664342284E0,5.516618175E0
1.547764287E1,-2.883203566E-1,4.238758893E0,2.498897656E0,4.928964909E0
1.548758587E1,-2.377814099E-1,3.608880451E0,1.468991311E0,3.903651313E0
1.549752988E1,-3.980576840E-1,2.866594550E0,2.592140865E-1,2.905685148E0
1.550747387E1,-6.937794462E-1,2.271498855E0,-1.242978080E-1,2.378337006E0
1.551741687E1,-7.798668328E-1,2.755762331E0,1.137673965E0,3.081674927E0
1.552736087E1,-6.106261924E-1,3.289229543E0,2.871974573E0,4.409096652E0
1.553730487E1,-8.694894460E-1,3.481250936E0,4.141943035E0,5.480037598E0
1.554724788E1,-8.061436352E-1,3.529263008E0,4.107780093E0,5.475346768E0
1.555719187E1,-9.050677067E-1,3.428447655E0,3.014602196E0,4.654162360E0
1.556713587E1,-7.954639882E-1,2.917858844E0,1.309334257E0,3.295606072E0
1.557707887E1,-4.727058703E-1,1.924391761E0,2.271982419E-1,1.994581042E0
1.558702287E1,-9.776047558E-2,1.237540973E0,4.333985478E-1,1.314876067E0
1.559696588E1,5.219587219E-1,1.247172507E0,9.515174762E-1,1.653259108E0
1.560690987E1,7.176507041E-1,1.172000703E0,1.442980410E0,1.992686790E0
1.561685387E1,6.075850555E-1,7.979157257E-1,1.484998648E0,1.791940314E0
1.562679687E1,5.358215931E-1,1.369476378E-1,1.018921182E0,1.159335935E0
1.563674071E1,4.792798948E-1,-5.879995143E-1,6.643232203E-1,1.008354098E0
1.564668471E1,1.623210454E-1,-8.140838617E-1,1.313065657E0,1.553454884E0
1.565662771E1,1.208283260E-1,-2.170580006E-1,2.606962972E0,2.618772537E0
1.566657171E1,-4.117814372E-2,3.686470664E-1,3.813414885E0,3.831413497E0
1.567651571E1,-2.000718391E-1,7.269825679E-1,4.753384037E0,4.812815413E0
1.568645871E1,-3.539237773E-1,1.105686260E0,5.335031136E0,5.459886571E0
1.569640271E1,-3.048507276E-1,1.620156453E0,5.454526590E0,5.698219127E0
1.570634571E1,-2.742730057E-1,1.747071438E0,5.539890091E0,5.815313105E0
1.571628971E1,-3.184402415E-1,1.638008587E0,5.720821654E0,5.959217794E0
1.572623371E1,-3.259758407E-1,1.584490192E0,5.811485656E0,6.032431927E0
1.573617671E1,-4.655655429E-1,1.256543255E0,5.791088229E0,5.944102548E0
1.574612071E1,-6.780118445E-1,6.171309274E-1,5.725842074E0,5.798777293E0
1.575606471E1,-7.998263034E-1,2.940798640E-2,5.718474582E0,5.774213235E0
1.576600771E1,-8.453869307E-1,-3.763197827E-1,5.564572942E0,5.640989955E0
1.577595171E1,-9.643704602E-1,-7.081071711E-1,5.303216436E0,5.436499859E0
1.578589471E1,-1.065362692E0,-9.487481618E-1,4.863730352E0,5.068628382E0
1.579583871E1,-9.955177009E-1,-1.289966524E0,4.424669945E0,4.715164181E0
1.580578271E1,-8.653221354E-1,-1.424104575E0,4.103277737E0,4.428740727E0
1.581572571E1,-6.783696941E-1,-1.597258757E0,3.873969820E0,4.244886705E0
1.582566971E1,-5.184919077E-1,-1.814314418E0,3.792443261E0,4.235941047E0
1.583561371E1,-3.444048026E-1,-1.904383174E0,3.614774444E0,4.100229777E0
1.584555671E1,-2.896111660E-1,-2.041679306E0,3.459032686E0,4.027062967E0
1.585550071E1,-4.047088918E-1,-2.250125527E0,3.346243404E0,4.052678015E0
1.586544471E1,-4.257421670E-1,-2.318105257E0,3.446129050E0,4.175005845E0
1.587538771E1,-1.111193168E-1,-2.194063593E0,3.573807682E0,4.195040393E0
1.588533171E1,9.146507084E-3,-2.330407214E0,3.180887654E0,3.943212866E0
1.589527471E1,-1.929928344E-1,-2.691510202E0,2.545701986E0,3.709726675E0
1.590521871E1,-4.535642058E-1,-2.903185841E0,2.147303702E0,3.639384797E0
1.591516271E1,-4.585921535E-1,-2.861841348E0,2.115941284E0,3.588544299E0
1.592510571E1,-5.267417443E-1,-2.971286023E0,2.072959571E0,3.661032488E0
1.593504971E1,-8.777500999E-1,-3.245486523E0,1.842284575E0,3.833750182E0
1.594499371E1,-9.192747597E-1,-3.397655632E0,1.481585336E0,3.818929822E0
1.595493671E1,-7.096407495E-1,-3.630173671E0,1.150549023E0,3.873695126E0
1.596488071E1,-4.706732319E-1,-3.691823205E0,1.083219504E0,3.876139363E0
1.597482371E1,-4.614077340E-1,-3.653468978E0,8.869752520E-1,3.787803819E0
1.598476771E1,-5.980742669E-1,-3.655296818E0,6.724695611E-1,3.764452545E0
1.599471171E1,-5.387326294E-1,-3.723964180E0,4.021913731E-1,3.784164367E0
1.600465471E1,-5.387267822E-1,-3.950402284E0,1.555312586E-1,3.989999338E0
1.601459871E1,-6.640219425E-1,-4.377836087E0,-4.322010380E-1,4.448951751E0
1.602454271E1,-7.281118114E-1,-4.539285312E0,-1.299089350E0,4.777330959E0
1.603448571E1,-8.131659950E-1,-4.481046460E0,-1.987193196E0,4.968898581E0
1.604442971E1,-7.202057911E-1,-4.359295735E0,-2.494607554E0,5.073975023E0
1.605437371E1,-6.843094419E-1,-4.463529956E0,-2.885448312E0,5.358842323E0
1.606431671E1,-8.171339156E-1,-4.911523739E0,-2.951132424E0,5.787914638E0
1.607426071E1,-7.437601300E-1,-5.369178876E0,-3.044009598E0,6.216691673E0
1.608420371E1,-4.747447944E-1,-5.638361880E0,-3.248480882E0,6.524502690E0
1.609414771E1,-2.308065587E-1,-5.851310458E0,-3.634485993E0,6.892067482E0
1.610409171E1,-2.009354728E-1,-5.905660327E0,-4.173430876E0,7.234274272E0
1.611403471E1,-1.081691042E-2,-5.689253122E0,-4.477141689E0,7.239648872E0
