"Time (s)","Linear Acceleration x (m/s^2)","Linear Acceleration y (m/s^2)","Linear Acceleration z (m/s^2)","Absolute acceleration (m/s^2)"
1.870958367E-3,-1.738016331E-2,-5.840719761E-3,-4.834945679E-2,5.170932271E-2
1.181395829E-2,-1.917530419E-2,-2.741910168E-3,-1.946070313E-2,2.745777356E-2
2.175795834E-2,-7.886066660E-4,-9.541102778E-4,-1.332346559E-2,1.338084310E-2
3.170095826E-2,8.266766081E-3,8.162694778E-3,-3.862202883E-2,4.033150280E-2
4.164495831E-2,-2.701843036E-3,9.808430169E-4,-2.784502566E-2,2.799298953E-2
5.158895836E-2,-1.461348927E-2,5.054187030E-3,-3.742393434E-2,4.049258866E-2
6.153195829E-2,-1.317789732E-2,9.453805676E-4,-2.889284670E-2,3.177022683E-2
7.147595834E-2,-1.665980461E-2,1.209048880E-4,-2.994125247E-2,3.426430077E-2
8.141895826E-2,-1.691563857E-2,-4.692710331E-4,-3.173868656E-2,3.596808680E-2
9.136295831E-2,-1.693688954E-2,-6.392747168E-3,-3.772623539E-2,4.184488356E-2
1.013059583E-1,-1.550598451E-2,-6.196906557E-4,-3.293561161E-2,3.640843424E-2
1.112499583E-1,-3.162274724E-3,1.386545680E-2,-1.512323856E-2,2.075965362E-2
1.211929583E-1,-3.449400421E-3,1.352652385E-2,-3.952425420E-2,4.191696412E-2
1.311369584E-1,-4.925064063E-3,-3.020155407E-3,-3.563176274E-2,3.609709283E-2
1.410809583E-1,-7.127509201E-3,3.793129907E-3,-2.635281622E-2,2.756193289E-2
1.510239583E-1,-4.901446793E-3,7.822496463E-3,-3.503300786E-2,3.622881824E-2
1.609679583E-1,-2.134430143E-2,-2.886354667E-3,-3.443366826E-2,4.061511734E-2
1.709109583E-1,-3.149966335E-2,-1.263755978E-2,-3.802619755E-2,5.096987746E-2
1.808549584E-1,-1.666292008E-2,-5.790031711E-3,-2.979273319E-2,3.462346493E-2
1.907979583E-1,-1.488790641E-2,-1.854371354E-3,-2.859463871E-2,3.229151302E-2
2.007419583E-1,-1.463617464E-2,2.231078222E-5,-2.560144901E-2,2.948986771E-2
2.106859583E-1,-7.515444551E-3,-4.768541409E-3,-3.473304570E-2,3.585533931E-2
2.206289583E-1,-6.139393710E-3,-4.490067763E-4,-3.383315921E-2,3.438860893E-2
2.305729584E-1,-8.520398196E-4,1.150703261E-2,-2.619728029E-2,2.862577974E-2
2.405159583E-1,3.616228793E-4,1.186639426E-2,-2.410105348E-2,2.686638909E-2
2.504599583E-1,3.051424306E-3,2.091032839E-3,-2.619669557E-2,2.645657701E-2
2.604029584E-1,1.418048467E-2,8.641216289E-3,-3.847058594E-2,4.190158407E-2
2.703469583E-1,6.141577279E-3,7.102850396E-3,-3.218249023E-2,3.352435134E-2
2.802899583E-1,6.522751786E-3,1.001418364E-2,-3.831914306E-2,4.013959254E-2
2.902339583E-1,1.442358267E-2,3.109827027E-2,-1.646575928E-2,3.802976964E-2
3.001764583E-1,3.204269609E-2,1.380334383E-2,-4.086443603E-2,5.373238135E-2
3.101204584E-1,2.045736104E-2,-8.111440279E-3,-3.023887575E-2,3.739904665E-2
3.200644583E-1,-2.257386125E-2,-1.555784200E-2,-4.730338991E-2,5.467390928E-2
3.300074583E-1,-5.846451860E-2,-1.837503964E-2,-6.437784433E-3,6.162132005E-2
3.399514583E-1,-6.466708051E-2,-2.686050072E-2,-3.412961304E-2,7.789832018E-2
3.498944583E-1,-4.788161558E-2,-2.552788830E-2,-3.458043337E-2,6.434383081E-2
3.598384584E-1,-3.312726323E-2,-2.536971198E-2,-4.520716310E-2,6.152012232E-2
3.697814583E-1,-4.495777935E-3,-9.721361473E-4,-2.874081910E-2,2.910655854E-2
3.797254583E-1,2.715878181E-2,2.573048975E-2,-2.425074220E-2,4.458425764E-2
3.896694583E-1,5.822392395E-2,2.924640225E-2,-3.562766969E-2,7.426108141E-2
3.996124583E-1,4.919990689E-2,1.928820114E-2,-4.625615358E-2,7.023031600E-2
4.095564584E-1,2.470550026E-2,1.861528711E-2,-2.410222292E-2,3.921489267E-2
4.194994583E-1,3.773308760E-3,9.656863944E-3,-1.571790040E-2,1.882937261E-2
4.294434583E-1,-3.154864292E-2,-1.670419777E-2,-2.365140259E-2,4.282214308E-2
4.393864584E-1,-8.362764571E-2,-4.619613740E-2,-3.083821535E-2,1.003925384E-1
4.493304583E-1,-9.361085281E-2,-4.734932253E-2,-2.978980958E-2,1.090522025E-1
4.592734583E-1,-7.513590801E-2,-2.771447743E-2,-1.332463503E-2,8.118523776E-2
4.692174583E-1,-3.158083001E-2,-6.833037939E-3,-3.847117066E-2,5.024012544E-2
4.791614583E-1,2.010436281E-2,1.281249203E-2,-3.203572512E-2,3.993285664E-2
4.891044584E-1,6.844598981E-2,4.547989002E-2,-4.056798220E-2,9.164624977E-2
4.990484583E-1,9.999423986E-2,5.421149604E-2,-1.302584231E-2,1.144875839E-1
5.089914583E-1,8.662548576E-2,5.734681419E-2,-1.946245730E-2,1.056949342E-1
5.189354583E-1,3.971531197E-2,1.903194234E-2,-3.293502688E-2,5.499306166E-2
5.288784583E-1,-2.069231861E-2,-1.706248591E-2,-1.886194825E-2,3.278831448E-2
5.388224584E-1,-8.053847945E-2,-3.466887251E-2,-3.083704591E-2,9.294783910E-2
5.487654583E-1,-1.194814930E-1,-5.555519991E-2,-2.005945802E-2,1.332838672E-1
5.587094583E-1,-1.292096336E-1,-7.065246404E-2,-3.892082155E-2,1.523211425E-1
5.686534583E-1,-9.760408083E-2,-6.346050756E-2,-3.982070804E-2,1.230426000E-1
5.785964583E-1,-4.826176682E-2,-1.628392001E-2,-2.200833499E-2,5.548631360E-2
5.885404584E-1,1.160384514E-2,1.757033486E-2,-3.024296880E-2,3.685109294E-2
5.984834583E-1,6.114009485E-2,4.287590562E-2,-2.545234501E-2,7.889408310E-2
6.084274583E-1,9.286735193E-2,5.626027361E-2,-2.784561038E-2,1.120934497E-1
6.183704584E-1,1.071105297E-1,6.085846462E-2,-3.233334839E-2,1.273650804E-1
6.283144583E-1,7.357017897E-2,4.435935337E-2,-3.008567870E-2,9.102456552E-2
6.382574583E-1,1.672247032E-2,1.828224707E-2,-3.307711422E-2,4.132767906E-2
6.482014583E-1,-4.779465652E-2,-1.714514178E-2,-2.334734738E-2,5.588724102E-2
6.581454583E-1,-8.747529633E-2,-4.743288289E-2,-3.487337887E-2,1.054417299E-1
6.680884584E-1,-1.055403330E-1,-5.242230744E-2,-3.098030269E-2,1.218467865E-1
6.780324583E-1,-9.566230274E-2,-5.329203509E-2,-2.559150875E-2,1.124555134E-1
6.879754583E-1,-7.127955965E-2,-3.000341568E-2,-2.349645138E-2,8.082737039E-2
6.979194583E-1,-1.847478949E-2,7.063463917E-3,-3.083470702E-2,3.663317521E-2
7.078624583E-1,4.811095434E-2,4.128685168E-2,-2.425015748E-2,6.787737611E-2
7.178064584E-1,9.113764504E-2,6.628489545E-2,-3.487922609E-2,1.179674452E-1
7.277494583E-1,1.087820020E-1,7.033369486E-2,-3.712280273E-2,1.347533119E-1
7.376934583E-1,9.249611769E-2,5.847127944E-2,-3.143404663E-2,1.138530702E-1
7.476374583E-1,2.729303023E-2,3.147785049E-2,-4.011599243E-2,5.783647136E-2
7.575804583E-1,-3.459190853E-2,-1.774131110E-2,-3.681991696E-2,5.354493945E-2
7.675244584E-1,-9.669995511E-2,-5.037641237E-2,-2.469220698E-2,1.117961060E-1
7.774674583E-1,-1.253591507E-1,-6.438199677E-2,-3.232516229E-2,1.445851801E-1
7.874114583E-1,-1.152660342E-1,-5.586442625E-2,-3.486928582E-2,1.327514967E-1
7.973544584E-1,-8.550874067E-2,-4.586322526E-2,-3.591710687E-2,1.034660269E-1
8.072984583E-1,-3.034824609E-2,-9.127046820E-3,-2.843325555E-2,4.257662558E-2
8.172424583E-1,2.975375785E-2,1.536152631E-2,-3.292508662E-2,4.696087654E-2
8.271854583E-1,6.411874873E-2,2.947067952E-2,-2.574061275E-2,7.511533821E-2
8.371294583E-1,6.973178339E-2,4.188365140E-2,-3.127968013E-2,8.715033138E-2
8.470724584E-1,5.100098636E-2,3.005300281E-2,-3.367294550E-2,6.810397086E-2
8.570164583E-1,1.853936467E-2,1.562143961E-2,-3.277305901E-2,4.076531387E-2
8.669594583E-1,-2.130123303E-2,-3.581940355E-3,-2.798126578E-2,3.534860761E-2
8.769034583E-1,-3.920464905E-2,-2.270540533E-2,-3.396706045E-2,5.662420978E-2
8.868464583E-1,-5.108948031E-2,-2.385608255E-2,-3.381620228E-2,6.574787609E-2
8.967904584E-1,-4.676950257E-2,-1.370468121E-2,-3.306834340E-2,5.889584020E-2
9.067344583E-1,-1.728840770E-2,-3.419474554E-3,-3.187141836E-2,3.641935138E-2
9.166774583E-1,1.484390611E-2,1.780420521E-2,-2.423729360E-2,3.353770524E-2
9.266214583E-1,4.678708990E-2,1.212939563E-2,-2.917643666E-2,5.645722696E-2
9.365644583E-1,4.652087714E-2,1.900378434E-2,-3.770869374E-2,6.282739381E-2
9.465084583E-1,1.578740917E-2,2.344723427E-2,-3.905647695E-2,4.821227515E-2
9.564514583E-1,2.587091429E-3,1.889565654E-2,-1.076589346E-2,2.190076117E-2
9.663954583E-1,3.388205655E-3,1.695144363E-4,-3.127207875E-2,3.145554931E-2
9.763384584E-1,-1.660828516E-3,-1.285875812E-2,-3.336655140E-2,3.579710553E-2
9.862824583E-1,-3.535646852E-2,-1.649685916E-2,-3.141884387E-2,5.009361215E-2
9.962264583E-1,-5.196662662E-2,-8.923668782E-3,-1.225868762E-2,5.413351613E-2
1.006169458E0,-3.150244991E-2,-1.030344722E-2,-4.249522448E-2,5.389257350E-2
1.016113458E0,-1.145128763E-2,-2.073820098E-2,-3.980082750E-2,4.631750035E-2
1.026056458E0,-5.843926594E-4,-7.357076369E-3,-1.794627428E-2,1.940455740E-2
1.036000458E0,-3.494999567E-3,1.950881476E-2,-2.079152942E-2,2.872449426E-2
1.045943458E0,1.566734025E-2,1.393064411E-2,-2.782689929E-2,3.484056142E-2
1.055887458E0,1.597080161E-2,6.269060285E-3,-3.081950426E-2,3.527335345E-2
1.065830458E0,1.349382056E-3,4.573564176E-3,-4.144506454E-2,4.171848147E-2
1.075774458E0,-2.884434222E-2,-2.793635186E-3,-3.351156235E-2,4.430378411E-2
1.085718458E0,-3.049405189E-2,-1.999258962E-3,-2.303335190E-2,3.826773493E-2
1.095661458E0,-2.672206789E-2,-1.315888931E-2,-2.692467391E-2,4.015175395E-2
1.105605458E0,-3.631881972E-2,-1.800218828E-2,-4.114685655E-2,5.775984117E-2
1.115548458E0,-2.836657902E-2,-1.211512020E-2,-2.842331529E-2,4.194429395E-2
1.125492458E0,-9.666132694E-3,3.121759915E-3,-2.243635118E-2,2.462862888E-2
1.135435458E0,1.214162453E-2,9.656987283E-3,-2.632884264E-2,3.055952232E-2
1.145379458E0,1.427359245E-2,1.284625970E-2,-3.126798570E-2,3.669398806E-2
1.155323458E0,1.795352848E-2,1.867066664E-2,-2.273631334E-2,3.446538731E-2
1.165266458E0,7.074491400E-3,1.537110569E-2,-3.725728869E-2,4.091973704E-2
1.175210458E0,2.631703857E-4,1.172079859E-2,-2.992195666E-2,3.213673706E-2
1.185153458E0,-1.200729389E-2,-5.041770833E-3,-3.546043932E-2,3.777614746E-2
1.195097458E0,-2.181307454E-2,-4.877162576E-3,-3.037160754E-2,3.770983267E-2
1.205040458E0,-3.225283041E-2,-2.551455391E-3,-2.797658801E-2,4.277200569E-2
1.214984458E0,-2.760771093E-2,-1.375557482E-2,-3.576098621E-2,4.722551933E-2
1.224927458E0,-1.428855767E-2,-3.469673814E-3,-3.441378772E-2,3.742339244E-2
1.234871458E0,-9.094302412E-3,1.922281282E-3,-3.576157093E-2,3.694985057E-2
1.244815458E0,8.728961069E-3,1.076342667E-2,-2.692993641E-2,3.028642584E-2
1.254758458E0,1.117629491E-2,8.898393279E-3,-1.839884877E-2,2.329396074E-2
1.264702458E0,4.377033776E-3,1.020783154E-2,-3.516398549E-2,3.687633557E-2
1.274645458E0,6.514748409E-3,1.568268919E-3,-3.695966542E-2,3.756219219E-2
1.284589458E0,-1.608198093E-2,-3.259758772E-3,-2.797834218E-2,3.243522420E-2
1.294532458E0,-3.262040100E-2,-7.821363565E-3,-2.782923818E-2,4.358590124E-2
1.304476708E0,-2.965745238E-2,-4.980000481E-3,-3.531425893E-2,4.638385247E-2
1.314419708E0,-2.037831400E-2,-8.512595817E-3,-3.845889151E-2,4.434891549E-2
1.324363708E0,-1.332273468E-2,7.764718663E-3,-4.070363760E-2,4.352668411E-2
1.334307708E0,-3.609230407E-3,7.473518187E-3,-3.142352164E-2,3.250104199E-2
1.344250708E0,2.644567732E-3,1.058736609E-2,-2.858060539E-2,3.059308849E-2
1.354194708E0,6.625470920E-3,9.266000418E-3,-3.561655998E-2,3.739378255E-2
1.364137708E0,1.071228180E-2,7.135544554E-3,-4.040484488E-2,4.240542969E-2
1.374081708E0,-3.065567259E-3,1.111167404E-2,-3.082242787E-2,3.290727978E-2
1.384024708E0,-1.852257220E-2,1.915739710E-3,-3.306834340E-2,3.795090348E-2
1.393968708E0,-2.426929797E-2,-5.686965398E-3,-3.172114491E-2,4.034317085E-2
1.403911708E0,-2.001176666E-2,-1.072807842E-2,-4.743846059E-2,5.259249010E-2
1.413855708E0,-2.072558379E-2,-1.284131697E-2,-4.249990225E-2,4.899684619E-2
1.423799708E0,-1.734924615E-2,-1.008334067E-2,-2.738017201E-2,3.394619155E-2
1.433742708E0,-7.788929790E-3,-4.506686646E-3,-3.262103140E-2,3.383946426E-2
1.443686708E0,3.186933529E-3,9.146625856E-3,-3.067449331E-2,3.216740353E-2
1.453629708E0,3.544984125E-3,7.423437699E-3,-4.190231681E-2,4.270220713E-2
1.463573708E0,1.038735020E-2,1.786892658E-2,-3.306951284E-2,3.899728530E-2
1.473516708E0,9.994115811E-3,8.349718885E-3,-2.962667227E-2,3.236263070E-2
1.483460708E0,-7.780177239E-4,-1.829685140E-3,-2.932729483E-2,2.939461313E-2
1.493404708E0,-9.013720471E-3,2.329343422E-3,-1.825149894E-2,2.048878256E-2
1.503347708E0,-2.353580131E-2,7.196780434E-4,-2.139496207E-2,3.181503233E-2
1.513291708E0,-3.054342432E-2,-5.335410694E-3,-2.917819083E-2,4.257621632E-2
1.523234708E0,-3.117260300E-2,-1.064280957E-2,-2.438932121E-2,4.098584587E-2
1.533178708E0,-1.463146945E-2,-7.925288687E-3,-2.543831170E-2,3.039733214E-2
1.543121708E0,5.847389242E-3,-3.894510577E-3,-3.771278679E-2,3.836161443E-2
1.553065708E0,2.789039640E-3,3.017259208E-3,-3.022835076E-2,3.050632369E-2
1.563008708E0,1.895406931E-2,1.234230737E-2,-3.142527580E-2,3.871869385E-2
1.572952708E0,1.876260954E-2,1.840719476E-2,-2.573768914E-2,3.678707623E-2
1.582896708E0,1.043380816E-2,1.374403114E-2,-2.828122795E-2,3.312990490E-2
1.592839708E0,-1.835493070E-2,2.470690724E-3,-1.959869742E-2,2.696510216E-2
1.602783708E0,-7.873641327E-3,-6.553604985E-3,-3.292099357E-2,3.447804785E-2
1.612726708E0,-1.647166131E-2,-1.086287501E-2,-2.753103018E-2,3.387145262E-2
1.622670708E0,-2.246310219E-2,-1.252430195E-2,-2.992663443E-2,3.945950517E-2
1.632613708E0,-2.463299478E-2,-7.037055516E-3,-3.022659659E-2,3.962261632E-2
1.642557708E0,-2.284638718E-2,-2.699613785E-3,-3.127441764E-2,3.882440625E-2
1.652500708E0,-7.996332357E-3,-5.497410544E-3,-2.917936027E-2,3.075057592E-2
1.662444708E0,7.061472209E-3,-2.830376714E-3,-2.872912467E-2,2.971932075E-2
1.672388708E0,6.975088734E-3,7.025383925E-3,-4.294896841E-2,4.407518315E-2
1.682331708E0,-3.579701968E-3,6.131171063E-3,-3.067449331E-2,3.148539447E-2
1.692275708E0,3.604543498E-3,9.739542659E-4,-2.588386953E-2,2.615178813E-2
1.702218708E0,-3.453575699E-3,2.784964861E-4,-3.366651356E-2,3.384433307E-2
1.712162708E0,-9.839064097E-3,-4.306858052E-3,-2.363561511E-2,2.596148128E-2
1.722105708E0,-2.022763856E-2,-1.548785814E-3,-2.692818224E-2,3.371473117E-2
1.732049708E0,-2.467177827E-2,-4.375425791E-3,-3.067040026E-2,3.960447508E-2
1.741993708E0,-1.639769403E-2,-8.637287691E-3,-2.707904041E-2,3.281404482E-2
1.751936708E0,-1.138853056E-2,-1.180141708E-2,-3.291631579E-2,3.677575178E-2
1.761880708E0,-1.456705872E-2,-1.221428532E-4,-2.662880480E-2,3.035304538E-2
1.771823708E0,-6.721758116E-3,4.236097606E-3,-1.914378405E-2,2.072706016E-2
1.781767708E0,7.837498225E-3,8.088412299E-3,-3.186849475E-2,3.380014422E-2
1.791710708E0,6.308624921E-3,5.442487830E-3,-3.261752307E-2,3.366485161E-2
1.801654708E0,-7.594107874E-3,3.044010219E-3,-3.905413806E-2,3.990190688E-2
1.811597708E0,-1.075400717E-2,-2.788345283E-4,-2.633118153E-2,2.844393678E-2
1.821541708E0,-9.286200721E-3,-7.721545198E-3,-3.201993763E-2,3.422180869E-2
1.831485708E0,-2.152818723E-2,-1.104353570E-2,-3.591301382E-2,4.330319951E-2
1.841428708E0,-1.757814637E-2,-2.154379198E-3,-4.474464834E-2,4.812188831E-2
1.851372708E0,-1.515823963E-2,-4.057976799E-3,-3.217196524E-2,3.579489841E-2
1.861315708E0,-1.086936177E-2,-2.135339202E-3,-2.918052971E-2,3.121227344E-2
1.871259708E0,-9.920258168E-4,-2.305328725E-3,-3.636734247E-2,3.645383730E-2
1.881202708E0,-9.866564283E-3,4.157543918E-3,-3.367236078E-2,3.533358378E-2
1.891146708E0,5.158121288E-3,8.443082473E-3,-3.232633173E-2,3.380656120E-2
1.901089708E0,4.332750253E-3,-2.050024671E-3,-3.247660518E-2,3.282842076E-2
1.911033708E0,-2.290573642E-3,2.477579475E-3,-4.609886348E-2,4.622218452E-2
1.920977708E0,-1.386605979E-2,-1.210241164E-3,-3.307594478E-2,3.588523960E-2
1.930920708E0,-1.467000626E-2,-2.888625031E-3,-3.142995358E-2,3.480510336E-2
1.940864708E0,-1.250853731E-2,-5.392727111E-3,-2.978454709E-2,3.275155350E-2
1.950807708E0,-9.933514902E-3,-6.056495723E-3,-3.008450925E-2,3.225575229E-2
1.960751708E0,-1.707089128E-2,-3.945554942E-3,-3.532302976E-2,3.942967365E-2
1.970694708E0,-1.466913831E-2,2.613659715E-4,-3.158315063E-2,3.482452203E-2
1.980638708E0,-6.607308006E-3,5.661493465E-3,-2.679486573E-2,2.817221782E-2
1.990581708E0,1.463868711E-3,4.958881983E-3,-2.859113038E-2,2.905488183E-2
2.000525708E0,-2.844414599E-3,-2.898547025E-3,-3.622467041E-2,3.645159826E-2
2.010469708E0,-1.000175374E-2,5.437924261E-3,-3.472719848E-2,3.654564834E-2
2.020412708E0,-3.346781787E-3,1.759906844E-3,-2.724276245E-2,2.750393292E-2
2.030356708E0,-1.404746966E-2,-8.175047021E-4,-2.784210205E-2,3.119587095E-2
2.040299708E0,-2.024916362E-2,-4.220026899E-3,-2.993657470E-2,3.638730217E-2
2.050243708E0,-1.529986102E-2,-3.084214395E-3,-3.622408569E-2,3.944340895E-2
2.060186708E0,-2.003932167E-2,-5.545901321E-4,-3.098381102E-2,3.690363842E-2
2.070130708E0,-1.581997999E-2,1.046679011E-3,-2.993540525E-2,3.387470725E-2
2.080074708E0,-5.279432740E-3,3.461834891E-3,-3.397583127E-2,3.455739894E-2
2.090017708E0,1.776146572E-3,5.469736769E-3,-2.768890500E-2,2.827981926E-2
2.099961708E0,1.058049104E-2,-1.523441789E-3,-2.798711300E-2,2.995907475E-2
2.109904708E0,1.467276542E-3,1.310872659E-3,-1.451571286E-2,1.464845409E-2
2.119848708E0,-9.693221748E-4,1.086298922E-2,-3.143112302E-2,3.326949976E-2
2.129791708E0,1.215215866E-4,1.715024896E-3,-3.367586911E-2,3.371973069E-2
2.139735708E0,-3.759951526E-3,8.027379701E-3,-1.751007199E-2,1.962596957E-2
2.149678708E0,-2.044013003E-2,-1.209290992E-3,-2.978688598E-2,3.614581409E-2
2.159622708E0,-1.264429322E-2,-3.924203468E-3,-3.293034911E-2,3.549204723E-2
2.169566708E0,-1.462664550E-2,-5.012251530E-4,-3.442840576E-2,3.740996002E-2
2.179509708E0,-1.486559562E-2,4.279316752E-4,-2.739362061E-2,3.117017018E-2
2.189453708E0,-2.007646062E-2,-8.519294991E-3,-3.128552735E-2,3.813694901E-2
2.199396708E0,-1.927433227E-2,1.823744278E-3,-2.769358277E-2,3.378994606E-2
2.209340708E0,-4.181946907E-3,-2.736839536E-3,-4.056739748E-2,4.087410805E-2
2.219283708E0,3.319126284E-3,1.494349607E-3,-2.649665773E-2,2.674551459E-2
2.229227708E0,1.326861139E-4,3.154682480E-3,-3.637611330E-2,3.651289150E-2
2.239171708E0,-6.627014950E-3,-3.042278895E-3,-2.754506350E-2,2.849391709E-2
2.249114708E0,-9.906179169E-3,4.185270227E-3,-2.290588260E-2,2.530470964E-2
2.259058708E0,-5.618452476E-3,4.495005920E-3,-3.188779056E-2,3.268949791E-2
2.269001708E0,-7.520816680E-3,-3.176287485E-3,-3.233802617E-2,3.335265240E-2
2.278945708E0,-3.755264618E-3,-7.088696023E-3,-2.200775027E-2,2.342419040E-2
2.288888708E0,-2.001282647E-3,1.498360431E-3,-3.173868656E-2,3.183699799E-2
2.298829958E0,-1.412066035E-3,-8.828336326E-4,-3.578028202E-2,3.581901600E-2
2.308772958E0,-9.153404972E-3,-7.922422180E-3,-2.365666509E-2,2.657418670E-2
2.318716958E0,-1.264935471E-2,-4.027792832E-3,-2.679895878E-2,2.990674642E-2
2.328660958E0,-1.156379172E-2,5.801648484E-3,-2.485300541E-2,2.801878445E-2
2.338603958E0,-2.105966080E-3,-3.457753260E-3,-3.622934818E-2,3.645486004E-2
2.348547958E0,-1.495492098E-2,-1.787434439E-3,-3.503300786E-2,3.813340036E-2
2.358490958E0,-1.239632559E-2,2.379243469E-3,-2.200950444E-2,2.537218897E-2
2.368434958E0,-3.015262932E-3,7.270142434E-3,-2.590199590E-2,2.707139030E-2
2.378377958E0,-9.240702074E-3,3.390487439E-3,-2.934483647E-2,3.095166244E-2
2.388321958E0,-7.829860300E-3,2.052735861E-3,-3.099024296E-2,3.202991719E-2
2.398264958E0,-1.203989211E-2,1.772711333E-4,-3.323381960E-2,3.534794467E-2
2.408208958E0,-1.121252937E-2,6.406150083E-4,-2.844436526E-2,3.058125435E-2
2.418152958E0,3.202017518E-3,2.476238727E-3,-3.682810307E-2,3.704988326E-2
2.428095958E0,-1.621496854E-3,-1.241727050E-3,-4.146728396E-2,4.151754783E-2
2.438039958E0,-1.063093241E-2,1.264645394E-3,-3.188603640E-2,3.363532918E-2
2.447982958E0,-1.061377449E-2,-3.987664031E-4,-2.859229982E-2,3.050132509E-2
2.457926958E0,-7.804753818E-3,-4.493379663E-4,-3.143521607E-2,3.239272906E-2
2.467869958E0,-1.144882084E-2,3.004246869E-3,-3.293268800E-2,3.499518448E-2
2.477813958E0,-1.131697526E-2,1.085645906E-2,-3.562591553E-2,3.892483127E-2
2.487757958E0,-6.422700444E-3,8.799671265E-4,-2.604642212E-2,2.684104187E-2
2.497700958E0,6.609738255E-3,-2.552423836E-3,-3.427988648E-2,3.500448721E-2
2.507644958E0,9.923638590E-4,1.121772334E-3,-2.934132814E-2,2.937952853E-2
2.517587958E0,-1.131191377E-2,4.851067092E-3,-2.125813723E-2,2.456421469E-2
2.527531958E0,-1.161294487E-2,3.713751670E-3,-3.637494385E-2,3.836390205E-2
2.537474958E0,4.938128935E-3,5.863889353E-4,-3.413078249E-2,3.449114788E-2
2.547418958E0,-5.372330379E-3,1.254485857E-3,-2.859346926E-2,2.912081992E-2
2.557361958E0,-1.404014236E-2,-2.791853612E-3,-4.086969852E-2,4.330418342E-2
2.567305958E0,-1.475300018E-2,-3.157530713E-3,-2.784736454E-2,3.167170230E-2
2.577249958E0,-2.968677068E-3,6.413664669E-4,-2.754915655E-2,2.771606792E-2
2.587192958E0,-1.341890311E-2,6.255972572E-3,-4.147079229E-2,4.403442706E-2
2.597136958E0,-6.422599945E-3,-2.492656612E-3,-3.099316657E-2,3.174963781E-2
2.607079958E0,-1.328437147E-2,3.050647723E-3,-1.692476571E-2,2.173082306E-2
2.617023958E0,-1.129952498E-2,1.583282102E-3,-3.638488412E-2,3.813195300E-2
2.626966958E0,-4.568237728E-3,2.394615251E-3,-3.578671396E-2,3.615649145E-2
2.636910958E0,-8.480929490E-4,-3.511020024E-3,-2.141659677E-2,2.171905017E-2
2.646853958E0,-1.519998327E-2,-2.373499037E-3,-2.605636239E-2,3.025899883E-2
2.656797958E0,-1.552042896E-2,2.272017868E-3,-3.129605234E-2,3.500698033E-2
2.666741958E0,-1.811094649E-2,-5.968940521E-3,-3.204508066E-2,3.728970137E-2
2.676684958E0,-1.599709581E-2,-2.135058262E-3,-2.471208751E-2,2.951529802E-2
2.686628958E0,-7.186894985E-3,-2.343675953E-3,-3.279352427E-2,3.365352151E-2
2.696571958E0,-3.594402233E-3,-7.602408179E-4,-3.159601450E-2,3.180889539E-2
2.706515958E0,-3.164284704E-3,-1.363241784E-3,-2.980033457E-2,2.999885109E-2
2.716458958E0,-7.367272452E-3,2.753250569E-3,-2.770469248E-2,2.879942843E-2
2.726402958E0,-6.673893174E-3,6.545777482E-3,-2.171772838E-2,2.364419123E-2
2.736346958E0,-6.591209890E-3,-1.865481064E-3,-3.114753306E-2,3.189189369E-2
2.746289958E0,-4.469913142E-3,3.961575399E-3,-2.950037241E-2,3.009893977E-2
2.756233958E0,-1.360636119E-2,1.143704646E-2,-2.875192881E-2,3.380255178E-2
2.766176958E0,-1.932253526E-2,4.176369212E-3,-3.384193003E-2,3.919283936E-2
2.776120958E0,-1.173863260E-2,4.773863289E-4,-3.054994762E-2,3.273106617E-2
2.786063958E0,-1.771362819E-2,-1.013788423E-3,-4.866228282E-2,5.179592803E-2
2.796007958E0,-7.874500137E-3,6.958437874E-4,-3.234445810E-2,3.329648511E-2
2.805950958E0,-6.410649698E-3,-5.478082756E-3,-1.482970834E-2,1.705948621E-2
2.815894958E0,2.130579203E-4,-3.399998301E-3,-3.279235482E-2,3.296883251E-2
2.825838958E0,-3.050218318E-3,9.487724095E-4,-2.860107064E-2,2.877890274E-2
2.835781958E0,-1.036412579E-2,-2.499965632E-3,-3.518737435E-2,3.676705380E-2
2.845725958E0,8.233062364E-4,-5.450102915E-3,-3.758122444E-2,3.798328429E-2
2.855668958E0,-3.935587266E-3,6.124661467E-4,-2.575523078E-2,2.606138666E-2
2.865612958E0,-3.649247289E-3,3.733186810E-3,-2.380810797E-2,2.437375012E-2
2.875555958E0,-9.762429027E-3,-3.176248656E-3,-3.144223273E-2,3.307578533E-2
2.885499958E0,-1.604979384E-2,2.312936957E-3,-2.410748541E-2,2.905368157E-2
2.895443958E0,-1.091613949E-2,-1.850556959E-3,-2.395662725E-2,2.639141246E-2
2.905386958E0,-5.743975751E-3,7.387251200E-3,-2.575347662E-2,2.740084480E-2
2.915330958E0,-9.545999821E-3,-1.363863051E-3,-3.638254523E-2,3.763875440E-2
2.925273958E0,-1.168704006E-2,-2.518251885E-3,-3.563468635E-2,3.758669138E-2
2.935217958E0,-1.517481283E-2,-4.570768476E-3,-3.563527107E-2,3.900050530E-2
2.945160958E0,-1.650605025E-3,-3.180953837E-4,-3.204157233E-2,3.208563603E-2
2.955104958E0,-6.289776787E-3,-3.682389124E-3,-2.291114509E-2,2.404250093E-2
2.965047958E0,-1.292965561E-2,-1.610917049E-3,-3.518620491E-2,3.752119486E-2
2.974991958E0,-6.861698432E-3,5.951312080E-3,-3.623461068E-2,3.735569611E-2
2.984935958E0,-1.146625285E-2,5.895594510E-3,-2.530616462E-2,2.840131963E-2
2.994878958E0,-1.122859094E-2,-5.560841414E-3,-2.530674934E-2,2.823890533E-2
3.004822958E0,-3.226457052E-3,-7.620733262E-3,-3.219126105E-2,3.323797360E-2
3.014765958E0,-9.711667886E-3,1.087513589E-3,-2.261001348E-2,2.463152226E-2
3.024709958E0,-8.579802252E-3,-1.178494894E-3,-3.608258307E-2,3.710733968E-2
3.034652958E0,-8.431767197E-3,-1.622474436E-3,-2.710359871E-2,2.843118331E-2
3.044596958E0,-5.247547142E-3,3.155529869E-3,-4.057499886E-2,4.103443252E-2
3.054540958E0,-1.201099408E-2,8.305261773E-4,-3.698188484E-2,3.889233290E-2
3.064483958E0,-1.216370691E-2,2.916641417E-4,-2.979741096E-2,3.218581262E-2
3.074427958E0,1.906786161E-3,-2.222903541E-3,-3.039558113E-2,3.053634696E-2
3.084370958E0,-3.797300616E-3,9.606587025E-4,-3.533589363E-2,3.555232392E-2
3.094314958E0,-8.386743637E-3,7.667214058E-3,-2.635398567E-2,2.869941116E-2
3.104257958E0,-8.970122170E-3,1.220775289E-3,-2.560554206E-2,2.715874018E-2
3.114201958E0,-4.437269233E-3,-3.941468743E-3,-2.365900397E-2,2.439206845E-2
3.124144958E0,-1.364759319E-2,-4.960656704E-3,-3.488448858E-2,3.778614109E-2
3.134088958E0,-3.116372254E-2,-1.230489204E-2,-3.129137456E-2,4.584471717E-2
3.144032958E0,-2.991408119E-2,-9.838675805E-3,-2.335787237E-2,3.920767778E-2
3.153975958E0,-2.270589869E-2,-1.627814131E-2,-3.787709355E-2,4.706601678E-2
3.163919958E0,-3.175509531E-2,-1.572315375E-2,-3.608082891E-2,5.057103773E-2
3.173862958E0,-2.310230336E-2,1.349955357E-3,-3.862612188E-2,4.502794789E-2
3.183806958E0,-7.782443035E-3,3.557985043E-3,-3.024296880E-2,3.143028538E-2
3.193749958E0,8.620933760E-3,7.220655803E-3,-2.889635503E-2,3.100738143E-2
3.203693958E0,2.868724398E-2,1.920753240E-2,-3.144106328E-2,4.669505037E-2
3.213637958E0,2.698538446E-2,2.345637968E-2,-2.156043828E-2,4.175242772E-2
3.223580958E0,1.337670266E-2,1.404492292E-2,-2.949394047E-2,3.529997958E-2
3.233524958E0,4.763023099E-3,3.216557899E-3,-2.560086429E-2,2.623808084E-2
3.243467958E0,-1.299210205E-2,-1.041351192E-2,-2.904253542E-2,3.347692952E-2
3.253411958E0,-3.512626181E-2,-1.404811148E-2,-3.263681889E-2,4.996364330E-2
3.263354958E0,-4.186727920E-2,-9.583981598E-3,-3.952250004E-2,5.836736914E-2
3.273298958E0,-3.793911058E-2,-2.084285015E-2,-2.230712771E-2,4.869710937E-2
3.283242958E0,-1.669104153E-2,-5.067637910E-3,-1.616989017E-2,2.378523007E-2
3.293185958E0,1.103238031E-2,7.400827704E-3,-2.500269413E-2,2.831290130E-2
3.303129625E0,2.526130551E-2,2.220143015E-2,-3.473363042E-2,4.834730747E-2
3.313072625E0,3.678520826E-2,3.802463525E-2,-1.811993659E-2,5.592277295E-2
3.323016625E0,5.906055087E-2,2.072327916E-2,-3.488565803E-2,7.165620772E-2
3.332959625E0,1.490816153E-2,-3.088254912E-3,-3.099375129E-2,3.453119195E-2
3.342903625E0,-4.683528375E-2,-2.392005017E-2,-5.149993658E-2,7.360676648E-2
3.352847625E0,-7.447108872E-2,-3.479664559E-2,1.188738942E-3,8.220804523E-2
3.362790625E0,-7.335559529E-2,-2.622100719E-2,-5.704075813E-2,9.655170981E-2
3.372734625E0,-4.946275751E-2,-2.650910133E-2,-2.336138070E-2,6.078693069E-2
3.382677625E0,-5.041952644E-2,-2.450557345E-2,-5.075500131E-2,7.562223175E-2
3.392621625E0,-2.213829850E-2,2.243407625E-3,-1.558049083E-2,2.716410927E-2
3.402564625E0,2.840844143E-2,2.413751635E-2,-3.698597789E-2,5.251306314E-2
3.412508625E0,6.449544646E-2,3.179983565E-2,-2.740531504E-2,7.695416463E-2
3.422451625E0,5.418941824E-2,3.513033659E-2,-3.339227915E-2,7.270266780E-2
3.432395625E0,2.033681704E-2,2.505389838E-2,-2.650659800E-2,4.175983344E-2
3.442339625E0,-1.598409489E-3,1.430307521E-2,-1.947122812E-2,2.421283952E-2
3.452282625E0,-2.524462268E-2,-5.228344977E-3,-3.473889291E-2,4.325988033E-2
3.462226625E0,-5.521056136E-2,-2.747228850E-2,-4.611640513E-2,7.700425666E-2
3.472169625E0,-7.602637500E-2,-3.520624076E-2,-2.680656016E-2,8.796636147E-2
3.482113625E0,-6.406599588E-2,-2.444591129E-2,-3.444126964E-2,7.673496896E-2
3.492056625E0,-3.340552675E-2,-1.258755238E-2,-1.887364268E-2,4.038056563E-2
3.502000625E0,4.539083876E-3,-9.055683380E-3,-4.072702646E-2,4.196783731E-2
3.511944625E0,2.249524361E-2,1.162653051E-2,-4.596671641E-2,5.248000776E-2
3.521887625E0,3.871201199E-2,3.114072197E-2,-8.545120955E-3,5.041213673E-2
3.531831625E0,5.268085487E-2,3.235722605E-2,-3.923247814E-2,7.322192219E-2
3.541774625E0,3.860446891E-2,1.649634296E-2,-3.294613659E-2,5.336555319E-2
3.551718625E0,-5.555311684E-4,1.414293002E-3,-3.084990978E-2,3.088730764E-2
3.561661625E0,-2.905181788E-2,-7.075839001E-3,-2.471150279E-2,3.879090086E-2
3.571605625E0,-5.610363219E-2,-2.122403151E-2,-3.099959850E-2,6.752075359E-2
3.581549625E0,-5.812613840E-2,-3.872426374E-2,-3.818524182E-2,7.960106319E-2
3.591492625E0,-5.167694276E-2,-2.668265857E-2,-2.845489025E-2,6.474682588E-2
3.601436625E0,-4.374274621E-2,-9.015502045E-3,-3.833609998E-2,5.885884543E-2
3.611379625E0,-9.956967719E-3,9.820999398E-3,-3.100135267E-2,3.400995593E-2
3.621323625E0,7.668669010E-3,1.311002166E-2,-2.935594618E-2,3.305227267E-2
3.631266625E0,4.039325095E-2,2.334744103E-2,-4.597197890E-2,6.549916464E-2
3.641210625E0,3.708956497E-2,2.630224923E-2,-2.576575577E-2,5.226201598E-2
3.651154625E0,1.537433993E-2,1.179639898E-2,-3.504645646E-2,4.004721548E-2
3.661097625E0,-4.718547715E-3,1.568903890E-4,-2.786139786E-2,2.825857035E-2
3.671041625E0,-2.494475188E-2,-8.922618111E-3,-3.205326676E-2,4.158444024E-2
3.680984625E0,-3.694240700E-2,-2.195869305E-2,-4.328109026E-2,6.099326528E-2
3.690928625E0,-5.697634740E-2,-2.616741837E-2,-2.397241473E-2,6.712462004E-2
3.700871625E0,-4.275039149E-2,-1.813591821E-2,-3.310518086E-2,5.703034720E-2
3.710815625E0,-3.569652979E-2,-1.141567443E-2,-3.041136861E-2,4.826397417E-2
3.720759625E0,-3.221998550E-3,8.355077310E-4,-3.220938742E-2,3.238092009E-2
3.730702625E0,1.176854476E-2,1.062988859E-2,-1.993491232E-2,2.547339606E-2
3.740646625E0,1.884812507E-2,2.144264200E-2,-3.250818014E-2,4.326454080E-2
3.750589625E0,2.796399822E-2,1.866565311E-2,-3.625039816E-2,4.944171487E-2
3.760533625E0,1.436684640E-2,1.207852257E-2,-2.771931052E-2,3.347621781E-2
3.770476625E0,-1.004542513E-3,1.346129542E-3,-3.430678368E-2,3.434787587E-2
3.780420625E0,-3.024549955E-2,-7.420351922E-3,-2.966584861E-2,4.301063170E-2
3.790364625E0,-4.485458513E-2,-2.533281057E-2,-3.191000998E-2,6.059648369E-2
3.800307625E0,-5.025641654E-2,-2.193688704E-2,-4.059254050E-2,6.822527948E-2
3.810251625E0,-4.491395264E-2,-1.993684465E-2,-2.652180076E-2,5.584036919E-2
3.820194625E0,-2.373660749E-2,-5.294101029E-3,-2.712172508E-2,3.642858784E-2
3.830138625E0,-5.576005345E-3,5.596826915E-3,-3.071542382E-2,3.171519459E-2
3.840081625E0,1.635945872E-2,2.414000141E-2,-3.580484033E-2,4.617746365E-2
3.850025625E0,2.436481772E-2,2.309591711E-2,-3.296016991E-2,4.704719471E-2
3.859969625E0,2.388972231E-2,2.003953409E-2,-1.888767600E-2,3.645608404E-2
3.869912625E0,1.373908385E-2,1.825309550E-2,-2.771872580E-2,3.592026838E-2
3.879856625E0,-7.451280495E-3,2.912370209E-3,-2.487405539E-2,2.612895162E-2
3.889799625E0,-2.194851067E-2,-1.716140207E-2,-2.936413229E-2,4.047842767E-2
3.899743625E0,-4.201792723E-2,-1.701030864E-2,-2.726615131E-2,5.289895855E-2
3.909686625E0,-4.976123960E-2,-2.408316008E-2,-3.235556781E-2,6.405515072E-2
3.919630625E0,-4.256160865E-2,-1.962873293E-2,-2.172708392E-2,5.166085426E-2
3.929574625E0,-2.131273560E-2,-1.208311583E-2,-3.235615253E-2,4.058515731E-2
3.939517625E0,-8.376319148E-4,4.890638581E-3,-2.816486835E-2,2.859859756E-2
3.949461625E0,2.040031414E-2,2.693651909E-2,-3.609895527E-2,4.944576271E-2
3.959404625E0,2.682505198E-2,1.599266928E-2,-2.517226338E-2,4.011223913E-2
3.969348625E0,2.458662819E-2,1.985760574E-2,-2.607156515E-2,4.097015134E-2
3.979291625E0,1.087703624E-2,6.826003008E-3,-3.400389791E-2,3.634789275E-2
3.989235625E0,-9.480903866E-3,-1.804770520E-3,-3.594985127E-2,3.722279599E-2
3.999179625E0,-3.742590778E-2,-9.242501920E-3,-3.145918965E-2,4.975744194E-2
4.009122625E0,-3.705988121E-2,-1.664124427E-2,-2.592187643E-2,4.819034638E-2
4.019066625E0,-4.566807901E-2,-1.420338475E-2,-3.849572897E-2,6.139406101E-2
4.029009625E0,-3.558059047E-2,-1.297428631E-2,-4.193973899E-2,5.650886860E-2
4.038953625E0,-1.572756657E-2,-6.295779319E-3,-2.562366843E-2,3.071751246E-2
4.048897625E0,1.025508435E-2,6.077500018E-3,-3.400740623E-2,3.603618238E-2
4.058840625E0,9.807297271E-3,1.966353300E-2,-2.787016869E-2,3.549061724E-2
4.068784625E0,2.273580171E-3,1.006486712E-2,-2.427822411E-2,2.637997125E-2
4.078727625E0,1.541934522E-2,6.182160610E-3,-3.415943384E-2,3.798476322E-2
4.088671625E0,1.975655397E-3,1.474305991E-2,-4.074690700E-2,4.337708450E-2
4.098614625E0,-4.039046438E-3,-7.244608831E-4,-2.442849755E-2,2.477075357E-2
4.108558625E0,-3.249542590E-2,-1.328167627E-2,-1.903911889E-2,3.993549395E-2
4.118502625E0,-4.872182393E-2,-1.686267102E-2,-6.110223413E-2,7.994778806E-2
4.128445625E0,-3.237599652E-2,-1.862937525E-2,-4.670755863E-3,3.764405309E-2
4.138389625E0,-2.370327836E-2,-4.473595060E-3,-5.197180688E-2,5.729683384E-2
4.148332625E0,-1.423150163E-2,-8.274449687E-4,-2.248429835E-2,2.662262151E-2
4.158276625E0,-1.873434191E-2,3.923806041E-3,-3.924943507E-2,4.366795133E-2
4.168219625E0,7.650359916E-3,1.675716075E-2,-2.248371363E-2,2.906626604E-2
4.178163625E0,1.481026635E-2,1.980762575E-2,-2.472904444E-2,3.497444304E-2
4.188107625E0,5.992025603E-3,1.184227450E-2,-5.092457056E-2,5.262561850E-2
4.198050625E0,3.911622819E-3,4.088697522E-3,-1.634647608E-2,1.729813634E-2
4.207994625E0,-1.750512013E-2,2.815480018E-4,-3.730289698E-2,4.120697299E-2
4.217937625E0,-1.844822120E-2,-6.957113114E-3,-1.948993921E-2,2.772356432E-2
4.227881625E0,-3.050902625E-2,-8.855356858E-3,-2.128561914E-2,3.823997398E-2
4.237824625E0,-4.249763645E-2,-1.384409619E-2,-3.805075586E-2,5.869896187E-2
4.247768625E0,-2.090121953E-2,-6.060332959E-3,-3.326188624E-2,3.974848034E-2
4.257712625E0,-1.221838751E-2,6.469898438E-3,-2.203698635E-2,2.601494468E-2
4.267655625E0,-4.068026701E-3,7.763174633E-3,-4.523756862E-2,4.607877316E-2
4.277599625E0,9.476025095E-3,3.840697920E-3,-8.412973881E-3,1.324100229E-2
4.287542625E0,2.517080158E-2,2.061460089E-2,-4.313900292E-2,5.403244021E-2
4.297486625E0,8.314292980E-3,1.779478571E-2,-3.011608422E-2,3.595497733E-2
4.307434250E0,-1.176509125E-2,3.640325717E-3,-3.924709618E-2,4.113397503E-2
4.317377250E0,-2.682687010E-2,2.324496629E-3,-2.038573265E-2,3.377369301E-2
4.327321250E0,-2.000680567E-2,6.156400885E-3,-2.712172508E-2,3.426020310E-2
4.337264250E0,-2.244930642E-2,-2.418871146E-2,-1.664409935E-2,3.696067050E-2
4.347208250E0,-5.477931093E-2,-3.179815457E-2,-4.209059715E-2,7.604941755E-2
4.357151250E0,-2.442402078E-2,1.337555149E-3,-2.921853662E-2,3.810570465E-2
4.367095250E0,4.055400370E-3,3.177473830E-2,-1.065771997E-2,3.375895824E-2
4.377039250E0,-3.086251784E-3,-5.724213989E-3,-5.451709986E-2,5.490360419E-2
4.386982250E0,1.020522770E-2,1.147940909E-3,-2.308480740E-2,2.526603992E-2
4.396926250E0,2.390587525E-2,3.607530146E-2,-5.736235499E-2,7.185650991E-2
4.406869250E0,2.786022842E-2,2.805936266E-2,2.526523411E-2,4.692389812E-2
4.416813250E0,-2.656930938E-2,-1.101651060E-2,-6.319963038E-2,6.943691372E-2
4.426756250E0,-3.765859041E-2,-2.227323214E-2,-5.197297633E-2,6.793715162E-2
4.436700250E0,-3.474654911E-2,-2.372758999E-3,-3.175622821E-3,3.497194934E-2
4.446644250E0,-1.809238158E-2,8.397200103E-3,-2.862270534E-2,3.488705350E-2
4.456587250E0,-3.632193519E-2,-2.676880907E-2,-3.431204617E-2,5.668481831E-2
4.466531250E0,-3.315631659E-2,-8.906689016E-3,-4.493994534E-2,5.655324152E-2
4.476474250E0,-1.680732803E-2,1.738548062E-2,-1.170846462E-2,2.686688214E-2
4.486418250E0,-1.077257208E-2,-7.422565185E-3,-2.203698635E-2,2.562755452E-2
4.496362250E0,-4.899053089E-3,9.480648050E-3,-5.182562649E-2,5.291293764E-2
4.506305250E0,2.111800505E-2,3.413160018E-2,6.403285861E-3,4.064404431E-2
4.516249250E0,2.865417067E-2,2.295990539E-2,-4.374886751E-3,3.697780938E-2
4.526192250E0,1.479510013E-2,1.218476145E-2,-6.245352566E-2,6.532844914E-2
4.536136250E0,5.810094969E-3,1.273434490E-2,-3.476111233E-2,3.747339956E-2
4.546079250E0,-5.310039259E-3,2.108394502E-2,-1.889469266E-2,2.880518469E-2
4.556023250E0,-3.588326611E-3,1.259975388E-2,-1.051329374E-2,1.679759599E-2
4.565967250E0,-2.987184419E-2,-1.609285310E-2,-4.464407623E-2,5.607495465E-2
4.575910250E0,-4.350690242E-2,-2.641887149E-2,-3.566567659E-2,6.215181265E-2
4.585854250E0,-4.975234087E-2,-4.859620929E-3,-3.057742953E-2,5.859940728E-2
4.595797250E0,-4.963160500E-2,-4.073618101E-3,-3.506809115E-2,6.090699136E-2
4.605741250E0,-3.347785863E-2,-1.793227751E-2,-3.117676914E-2,4.913577647E-2
4.615684250E0,-2.205415341E-2,-1.003738521E-2,-4.883769929E-2,5.451839742E-2
4.625628250E0,6.124200085E-3,1.503017647E-2,-3.716022491E-2,4.054989947E-2
4.635572250E0,4.023939609E-2,3.312347625E-2,-2.084298491E-2,5.613202024E-2
4.645515250E0,2.710759127E-2,2.433708913E-2,-2.593240142E-2,4.471694147E-2
4.655459250E0,1.755462047E-3,3.187097982E-4,-2.039450347E-2,2.047239592E-2
4.665402250E0,-1.647285816E-2,7.729434371E-3,-4.030602694E-2,4.422301459E-2
4.675346250E0,-8.941927627E-3,7.790638274E-3,-1.860057771E-2,2.205977347E-2
4.685290250E0,-3.043078319E-2,-1.768056401E-2,-3.745960236E-2,5.139899530E-2
4.695233250E0,-5.982540322E-2,-2.679525859E-2,-3.670998931E-2,7.513113914E-2
4.705177250E0,-5.627526624E-2,-1.865148047E-2,-2.473372221E-2,6.423815321E-2
4.715120250E0,-3.102583788E-2,6.340766335E-3,-6.922518611E-3,3.241495331E-2
4.725064250E0,-4.478199743E-3,1.750667787E-2,-6.185827911E-2,6.444365552E-2
4.735007250E0,3.285011435E-3,1.019720149E-2,-2.024481475E-2,2.290473188E-2
4.744951250E0,2.313623548E-2,2.242106619E-2,-1.036477447E-2,3.384402682E-2
4.754895250E0,2.797904567E-2,3.094430577E-2,-2.683053374E-2,4.960095359E-2
4.764838250E0,1.692873085E-2,2.222189998E-2,-1.979516387E-2,3.423803849E-2
4.774782250E0,-3.435951825E-2,-1.684627597E-2,-4.569189727E-2,5.959968947E-2
4.784725250E0,-3.035194628E-2,-1.898747609E-2,-1.081676424E-2,3.740009732E-2
4.794669250E0,-1.413611893E-2,9.844331159E-3,-3.042832553E-2,3.496603651E-2
4.804613250E0,-1.660232831E-2,1.414697282E-3,-5.916914463E-2,6.147053237E-2
4.814556250E0,-3.023847375E-2,-2.544925695E-2,-2.219720006E-2,4.532930250E-2
4.824500250E0,-2.664456488E-2,3.601144804E-3,-2.983424842E-2,4.016196534E-2
4.834443250E0,1.116819103E-2,2.607846304E-2,-3.013654947E-2,4.138872237E-2
4.844387250E0,8.471181085E-3,6.734882374E-3,-1.951274335E-2,2.231292681E-2
4.854330250E0,-8.022197150E-4,-6.763145439E-3,-2.804850876E-2,2.886351567E-2
4.864274250E0,7.683058642E-4,1.442434554E-2,-3.628489673E-2,3.905439500E-2
4.874218250E0,1.246469233E-2,3.074843318E-2,-2.010857463E-3,3.323970887E-2
4.884161250E0,5.453807674E-4,6.660773484E-3,-3.883954525E-2,3.941032376E-2
4.894105250E0,-3.542506367E-2,-3.551617517E-2,-3.046165466E-2,5.868770092E-2
4.904048250E0,-4.995233391E-2,-1.953821986E-2,-3.780341864E-2,6.562069917E-2
4.913992250E0,-6.489377889E-2,8.188842796E-3,2.817410696E-1,2.892339710E-1
4.923936250E0,-8.657298873E-2,5.392923541E-2,1.029466635E-1,1.449181160E-1
4.933879250E0,-2.345680177E-1,-9.599640716E-2,2.738835812E-3,2.534659077E-1
4.943823250E0,-1.483434957E0,-1.950788432E0,-6.811187625E-2,2.451692069E0
4.953766250E0,-1.789758707E-2,-4.296058244E-1,2.864761448E-1,5.166721103E-1
4.963710250E0,7.208076889E-1,6.029489810E-1,3.695586473E-1,1.009794430E0
4.973654250E0,8.866185719E-1,9.784164224E-2,8.731401551E-1,1.248214408E0
4.983597250E0,1.853466132E-1,-6.866059358E-1,1.516076015E0,1.674594745E0
4.993541250E0,2.293663164E-1,-1.123863865E0,1.505025362E0,1.892294965E0
5.003484250E0,-2.984868831E-2,-1.124583365E0,1.300233650E0,1.719356343E0
5.013428250E0,-4.656763111E-1,-1.041938819E0,1.308902732E0,1.736582072E0
5.023371250E0,-6.105097232E-1,-7.702332526E-1,1.369544206E0,1.685714305E0
5.033315250E0,-7.917802423E-1,-7.080877291E-1,1.587099804E0,1.909761758E0
5.043259250E0,-1.002582453E0,-1.060806395E0,1.544101135E0,2.124789424E0
5.053202250E0,-7.964461011E-1,-1.223332751E0,1.362225831E0,1.996629316E0
5.063146250E0,-3.644058981E-1,-1.108224244E0,1.327845957E0,1.767520161E0
5.073089250E0,-2.215842571E-2,-1.274971340E0,1.327273514E0,1.840569992E0
5.083033250E0,8.396102836E-2,-1.791888154E0,1.345815035E0,2.242572344E0
5.092977250E0,1.810662503E-2,-2.049681367E0,1.281631318E0,2.417457423E0
5.102920250E0,-5.658789128E-3,-1.964170662E0,1.106644619E0,2.254475709E0
5.112864250E0,-7.726364583E-2,-1.470050826E0,8.102901882E-1,1.680353918E0
5.122807250E0,-3.793441088E-1,-9.783556844E-1,3.793474710E-1,1.115789542E0
5.132751250E0,-8.470702710E-1,-9.852365416E-1,-7.461514950E-2,1.301455534E0
5.142695250E0,-1.057950761E0,-9.807713154E-1,-4.466986245E-1,1.510202585E0
5.152638250E0,-1.031011762E0,-6.339653537E-1,-7.867791188E-1,1.443578437E0
5.162582250E0,-7.811583365E-1,-4.120374995E-1,-1.333523018E0,1.599458311E0
5.172525250E0,-3.301266329E-1,-4.113308635E-1,-1.743913357E0,1.821924936E0
5.182469250E0,-1.102993910E-1,-1.058615005E-1,-1.568452449E0,1.575885687E0
5.192413250E0,-9.476480082E-2,4.039683419E-1,-1.057941406E0,1.136402573E0
5.202356250E0,6.311031416E-2,7.924503332E-1,-6.939756203E-1,1.055254758E0
5.212300250E0,-5.166000411E-2,9.058120573E-1,-4.601805496E-1,1.017315279E0
5.222243250E0,-2.492602251E-1,9.869714105E-1,-3.231756091E-1,1.068028885E0
5.232187250E0,-3.939663141E-1,1.072357424E0,-1.377960688E-1,1.150716150E0
5.242130250E0,-3.681563388E-1,1.114455914E0,1.518235391E-1,1.183470093E0
5.252074250E0,-2.074654971E-1,1.372258191E0,5.874639094E-1,1.507066130E0
5.262018250E0,4.611764766E-2,1.613150612E0,1.047045704E0,1.923716830E0
5.271961250E0,7.785918474E-2,1.845166667E0,1.448385723E0,2.347024347E0
5.281905250E0,-9.788633689E-2,2.005404642E0,1.689959344E0,2.624346032E0
5.291848250E0,-8.795330621E-2,2.130824202E0,1.746650439E0,2.756616643E0
5.301787875E0,-1.583674505E-1,2.122975484E0,1.810149447E0,2.794413387E0
5.311731875E0,-1.817333628E-1,2.098638203E0,2.041336659E0,2.933319737E0
5.321674875E0,-7.143075585E-2,2.180772872E0,2.379619719E0,3.228538784E0
5.331618875E0,-4.128762826E-2,2.114276581E0,2.827226416E0,3.530591925E0
5.341561875E0,7.966407403E-2,2.045306919E0,3.234549891E0,3.827785228E0
5.351505875E0,2.577055049E-1,1.933261403E0,3.356977723E0,3.882423368E0
5.361449875E0,3.256760247E-1,1.656858841E0,3.335068790E0,3.738172004E0
5.371392875E0,2.588170606E-1,1.516391764E0,3.316258882E0,3.655680953E0
5.381336875E0,2.361766416E-1,1.453615472E0,3.225324154E0,3.545630162E0
5.391279875E0,2.055408861E-1,1.109754168E0,3.086353964E0,3.286241343E0
5.401223875E0,1.538896528E-1,7.127019131E-1,3.038289267E0,3.124552402E0
5.411167875E0,1.566925156E-1,3.753128922E-1,3.053761584E0,3.080725909E0
5.421110875E0,3.041475999E-1,3.293011522E-1,3.032344403E0,3.065298939E0
5.431054875E0,4.329363254E-1,4.380476689E-1,2.971616975E0,3.034769690E0
5.440997875E0,4.450064403E-1,3.200999737E-1,2.934397693E0,2.985160724E0
5.450941875E0,3.566928725E-1,-2.093636495E-1,2.775181519E0,2.805832391E0
5.460884875E0,3.474786839E-1,-6.021591318E-1,2.641740457E0,2.731689898E0
5.470828875E0,3.495211163E-1,-6.832278532E-1,2.547224309E0,2.660322723E0
5.480772875E0,4.002236389E-1,-7.885636890E-1,2.332473620E0,2.494482880E0
5.490715875E0,3.440872988E-1,-1.295418468E0,2.271935642E0,2.637839388E0
5.500659875E0,2.449486345E-1,-1.826723379E0,2.357694415E0,2.992597716E0
5.510602875E0,3.963782175E-1,-1.782983283E0,2.455893139E0,3.060646368E0
5.520546875E0,4.106911781E-1,-1.807487794E0,2.629303429E0,3.216973095E0
5.530490875E0,3.414219917E-1,-2.040095295E0,2.645401399E0,3.358080754E0
5.540433875E0,3.463142109E-1,-2.444120355E0,2.465134079E0,3.488630658E0
5.550377875E0,2.117162767E-1,-2.924965550E0,2.181216676E0,3.654853408E0
5.560320875E0,1.171198757E-1,-3.055761917E0,1.862668845E0,3.580633070E0
5.570264875E0,-7.195583582E-3,-3.139164847E0,1.668584847E0,3.555078495E0
5.580208875E0,-1.643944681E-1,-3.260989830E0,1.545842435E0,3.612576511E0
5.590151875E0,-2.162934771E-1,-3.497695645E0,1.439672202E0,3.788576744E0
5.600095875E0,-2.137375130E-1,-3.665601951E0,1.388762542E0,3.925682461E0
5.610038875E0,-1.172352120E-1,-3.912405907E0,1.117902263E0,4.070671879E0
5.619982875E0,-1.469627488E-1,-4.211232541E0,8.332744235E-1,4.295395654E0
5.629926875E0,-2.758614019E-1,-4.256023382E0,5.640270996E-1,4.302087994E0
5.639869875E0,-3.324715126E-1,-4.144746775E0,4.516813293E-1,4.182520670E0
5.649813875E0,-3.830952439E-1,-4.065901165E0,4.094995156E-1,4.104388396E0
5.659756875E0,-4.083277336E-1,-4.147813055E0,3.867009294E-1,4.185764241E0
5.669700875E0,-4.143088505E-1,-4.379189717E0,1.161368126E-1,4.400277510E0
5.679644875E0,-5.685300404E-1,-4.585149702E0,-6.974895045E-2,4.620788798E0
5.689587875E0,-6.703155930E-1,-4.574284406E0,-5.835594311E-2,4.623505839E0
5.699531875E0,-6.582865548E-1,-4.584124686E0,-1.405156088E-1,4.633280151E0
5.709474875E0,-7.912651026E-1,-4.865334828E0,-2.756294136E-1,4.936958074E0
5.719418875E0,-7.840996322E-1,-4.985633104E0,-3.815694129E-1,5.061318494E0
5.729362875E0,-7.490400195E-1,-4.665948282E0,-4.099680968E-1,4.743438433E0
5.739305875E0,-6.909958792E-1,-4.411820104E0,-6.498653948E-1,4.512644122E0
5.749249875E0,-6.885957433E-1,-4.472739905E0,-9.497655773E-1,4.624026493E0
5.759192875E0,-5.073143703E-1,-4.372287079E0,-1.118984583E0,4.541628416E0
5.769136875E0,-4.285026741E-1,-4.180587283E0,-1.366147558E0,4.418968627E0
5.779080875E0,-5.408192083E-1,-4.131130364E0,-1.530492325E0,4.438595527E0
5.789023875E0,-6.124616334E-1,-4.056330442E0,-1.934644854E0,4.535612045E0
5.798967875E0,-7.382726642E-1,-4.006082979E0,-2.382796512E0,4.719265470E0
5.808910875E0,-6.228584214E-1,-3.887143596E0,-2.750734895E0,4.802538955E0
5.818854875E0,-6.312265179E-1,-3.629567315E0,-2.923718923E0,4.703226356E0
5.828798875E0,-6.958587161E-1,-3.492116232E0,-3.040220017E0,4.682097061E0
5.838741875E0,-7.106831619E-1,-3.350932871E0,-3.252151179E0,4.723378977E0
5.848685875E0,-7.589678608E-1,-3.141127172E0,-3.696967585E0,4.910222139E0
5.858628875E0,-7.602048393E-1,-2.693368447E0,-4.089806921E0,4.955670050E0
5.868572875E0,-6.886841825E-1,-2.455416006E0,-4.382331426E0,5.070323697E0
5.878516875E0,-5.331815752E-1,-2.597717355E0,-4.628782210E0,5.334608027E0
5.888459875E0,-3.402503559E-1,-2.643360136E0,-4.727445788E0,5.426957416E0
5.898403875E0,-3.423518452E-1,-2.391534591E0,-4.752680032E0,5.331473527E0
5.908347875E0,-2.558779576E-1,-2.193505769E0,-4.683418593E0,5.177967826E0
5.918290875E0,-1.485448591E-1,-2.141440991E0,-4.442253692E0,4.933705804E0
5.928234875E0,-1.083889595E-1,-2.070219566E0,-4.335043824E0,4.805222385E0
5.938177875E0,-1.273951878E-1,-1.829197921E0,-4.403063314E0,4.769608067E0
5.948121875E0,-2.406949313E-1,-1.588346431E0,-4.399337468E0,4.683476123E0
5.958065875E0,-3.712813832E-1,-1.399632808E0,-4.295886190E0,4.533371816E0
5.968008875E0,-4.002857655E-1,-1.201864772E0,-4.157751567E0,4.346447483E0
5.977952875E0,-3.586084203E-1,-1.527718406E0,-4.087956862E0,4.378802900E0
5.987895875E0,-1.385255089E-1,-1.698644798E0,-3.860969120E0,4.220386951E0
5.997839875E0,2.618865564E-1,-1.428617456E0,-3.693053459E0,3.968397190E0
6.007783875E0,1.988608807E-1,-1.348888332E0,-3.555336328E0,3.807815881E0
6.017726875E0,-1.309216435E-1,-1.179425497E0,-3.184326986E0,3.398252983E0
6.027670875E0,-4.138438506E-1,-7.051940882E-1,-2.852911481E0,2.967771782E0
6.037613875E0,-4.547585727E-1,-3.597207069E-2,-2.751393292E0,2.788953997E0
6.047557875E0,-2.835854276E-1,6.600693709E-1,-2.668824760E0,2.763826671E0
6.057501875E0,-3.298064248E-1,1.127232665E0,-2.384874612E0,2.658392875E0
6.067444875E0,-4.477689573E-1,1.681412469E0,-1.965186323E0,2.624805177E0
6.077388875E0,-3.688058183E-1,2.176607900E0,-1.760927001E0,2.823916356E0
6.087331875E0,-2.452104436E-1,2.564352558E0,-1.814370113E0,3.150868310E0
6.097275875E0,-2.384354941E-1,3.166336858E0,-1.813993552E0,3.656926741E0
6.107219875E0,-1.537349939E-2,3.406476742E0,-1.757646713E0,3.833228679E0
6.117162875E0,1.779865401E-1,3.186817315E0,-1.272494605E0,3.436091723E0
6.127106875E0,3.551548355E-1,3.284720755E0,-4.413832131E-1,3.333218345E0
6.137050875E0,5.122529286E-1,3.547981700E0,9.694683552E-4,3.584770306E0
6.146993875E0,3.493559325E-1,3.452140573E0,3.938930047E-1,3.492058963E0
6.156937875E0,2.469674588E-1,3.375385927E0,6.393892309E-1,3.444276654E0
6.166880875E0,2.531875806E-1,3.543073547E0,5.272723791E-1,3.591029138E0
6.176824875E0,8.717906177E-3,3.681805755E0,6.496320909E-1,3.738688470E0
6.186768875E0,-1.964652765E-1,3.903374882E0,1.220958855E0,4.094590895E0
6.196711875E0,-1.014171050E-1,3.876281224E0,1.617961116E0,4.201623464E0
6.206655875E0,1.623954512E-2,3.519019271E0,1.879822822E0,3.989673445E0
6.216598875E0,5.192005903E-2,3.242602676E0,1.760507755E0,3.690061702E0
6.226542875E0,-6.566543777E-2,3.259769517E0,1.683684405E0,3.669496209E0
6.236486875E0,-3.571231179E-1,3.623538251E0,2.334094760E0,4.324993032E0
6.246429875E0,-5.928573811E-1,3.913111081E0,3.279365290E0,5.139859426E0
6.256373875E0,-7.676514146E-1,3.821440773E0,4.187105759E0,5.720537817E0
6.266317875E0,-6.847680098E-1,3.813765718E0,4.446207579E0,5.897667167E0
6.276260875E0,-4.778253999E-1,3.586503156E0,4.143636389E0,5.501003956E0
6.286204875E0,-4.440027292E-1,3.418358284E0,3.886895967E0,5.195216265E0
6.296147875E0,-3.621505174E-1,3.376461815E0,3.607456069E0,4.954330093E0
6.306095500E0,-4.797883468E-1,2.855153888E0,3.649121866E0,4.658131704E0
6.316039500E0,-4.603208828E-1,2.469141760E0,3.879166825E0,4.621308430E0
6.325982500E0,-3.268862522E-1,2.243090158E0,4.323922420E0,4.882070582E0
6.335926500E0,-3.377404751E-1,1.908743443E0,4.828828614E0,5.203360063E0
6.345869500E0,-2.581893985E-1,1.787241225E0,5.266368452E0,5.567362898E0
6.355813500E0,-1.183067508E-1,1.904670272E0,5.576044010E0,5.893558529E0
6.365757500E0,-1.647462146E-1,1.962229094E0,5.806411443E0,6.131223220E0
6.375700500E0,-3.306703143E-1,1.751178523E0,5.885595607E0,6.149488167E0
6.385644500E0,-3.573359566E-1,1.373327939E0,5.652985182E0,5.828375424E0
6.395588500E0,-3.992879382E-1,9.897605324E-1,5.492803633E0,5.595529333E0
6.405531500E0,-4.211124148E-1,6.102645421E-1,5.253908036E0,5.305969103E0
6.415475500E0,-3.967268577E-1,1.623298162E-1,4.800627201E0,4.819726620E0
6.425418500E0,-4.542867755E-1,-4.006213957E-1,4.397464313E0,4.438982581E0
6.435362500E0,-5.122177722E-1,-8.734874797E-1,4.176305075E0,4.297309798E0
6.445306500E0,-4.655322137E-1,-1.268879126E0,3.938146520E0,4.163624922E0
6.455249500E0,-4.584541957E-1,-1.670669380E0,3.791676106E0,4.168707728E0
6.465193500E0,-4.175300816E-1,-1.941270919E0,3.620881276E0,4.129605958E0
6.475137500E0,-4.436595342E-1,-2.144704907E0,3.599868137E0,4.213744597E0
6.485080500E0,-5.277582827E-1,-2.393792785E0,3.719257171E0,4.454396324E0
6.495024500E0,-5.996696797E-1,-2.729113646E0,3.645296910E0,4.593022380E0
6.504967500E0,-5.697083274E-1,-3.136116108E0,3.373425940E0,4.641098404E0
6.514911500E0,-6.309880245E-1,-3.325860595E0,3.143847882E0,4.619878146E0
6.524855500E0,-7.835838347E-1,-3.521683263E0,2.804055655E0,4.569352771E0
6.534798500E0,-8.491675211E-1,-3.927411616E0,2.453671782E0,4.708094381E0
6.544742500E0,-8.079213350E-1,-4.143631711E0,2.307181488E0,4.810977765E0
6.554686500E0,-6.990241063E-1,-4.156827707E0,2.282342516E0,4.793426608E0
6.564629500E0,-7.219849527E-1,-4.248312659E0,2.178589522E0,4.828630761E0
6.574573500E0,-8.398540029E-1,-4.321115756E0,1.922095560E0,4.803316299E0
6.584516500E0,-7.934306189E-1,-4.297440965E0,1.600310419E0,4.653871982E0
6.594460500E0,-7.695165302E-1,-4.163823316E0,1.431718673E0,4.469832061E0
6.604404500E0,-7.069261797E-1,-4.008848712E0,1.348796092E0,4.288340416E0
6.614347500E0,-4.886097121E-1,-4.196384121E0,1.218607689E0,4.396974396E0
6.624291500E0,-3.231191835E-1,-4.453899007E0,9.628785431E-1,4.568233516E0
6.634234500E0,-2.436850512E-1,-4.371853216E0,7.356370318E-1,4.440005043E0
6.644178500E0,-1.154678911E-1,-4.214172521E0,3.867395210E-1,4.233456073E0
6.654122500E0,-1.703250065E-2,-4.075895226E0,-9.003513426E-2,4.076925107E0
6.664065500E0,-5.823680609E-3,-4.124355195E0,-5.669950001E-1,4.163150612E0
6.674009500E0,-1.212639436E-2,-4.175358118E0,-9.777734479E-1,4.288333404E0
6.683953500E0,1.194877057E-1,-3.972295429E0,-1.425439787E0,4.222000340E0
6.693896500E0,1.622760218E-1,-3.693903644E0,-1.795509188E0,4.110366271E0
6.703840500E0,1.362484570E-1,-3.523891171E0,-1.800868454E0,3.959734816E0
6.713783500E0,1.572896625E-1,-3.410549912E0,-1.868847013E0,3.892194741E0
6.723727500E0,2.278573693E-1,-3.434980164E0,-2.108842472E0,4.037105929E0
6.733671500E0,3.313795450E-1,-3.303558730E0,-2.281896958E0,4.028692891E0
6.743614500E0,5.123839062E-1,-3.018822716E0,-2.647338581E0,4.047743745E0
6.753558500E0,6.965368469E-1,-2.909347637E0,-3.118430327E0,4.321351057E0
6.763502500E0,5.048725730E-1,-2.614143938E0,-3.343372421E0,4.273965839E0
6.773445500E0,4.743729115E-1,-2.321569147E0,-3.639326903E0,4.342742597E0
6.783389500E0,6.049706192E-1,-2.008858885E0,-3.766684230E0,4.311544219E0
6.793333500E0,8.361131005E-1,-1.757429781E0,-3.386213509E0,3.905648023E0
6.803276500E0,9.452731615E-1,-1.784828664E0,-3.225459809E0,3.805620277E0
6.813220500E0,9.694568069E-1,-1.825375012E0,-3.209131752E0,3.817115015E0
6.823163500E0,9.046551856E-1,-1.841847787E0,-3.267534034E0,3.858443072E0
6.833107500E0,7.846212038E-1,-1.857155798E0,-3.297349572E0,3.864863812E0
6.843051500E0,7.036036456E-1,-1.873271309E0,-3.338109342E0,3.891937496E0
6.852994500E0,7.317158890E-1,-1.861768667E0,-3.511288667E0,4.041130883E0
6.862938500E0,7.264987108E-1,-1.798000102E0,-3.540603098E0,4.036889278E0
6.872882500E0,6.595863909E-1,-1.840046845E0,-3.491494088E0,4.001419444E0
6.882825500E0,6.353248313E-1,-2.069330789E0,-3.515996261E0,4.128922046E0
6.892769500E0,5.921706256E-1,-2.288955717E0,-3.334655392E0,4.087775790E0
6.902712500E0,5.222569299E-1,-2.317184905E0,-3.091841576E0,3.898920686E0
6.912656500E0,2.724942096E-1,-2.218319598E0,-2.875058395E0,3.641586976E0
6.922600500E0,-2.994315282E-2,-2.269587400E0,-2.817337313E0,3.617915573E0
6.932543500E0,-1.233394859E-1,-2.359041029E0,-2.938797723E0,3.770519760E0
6.942487500E0,-1.175290346E-4,-2.241775119E0,-3.233369923E0,3.934493202E0
6.952431500E0,-4.014186636E-3,-1.927939852E0,-3.218803047E0,3.752020954E0
6.962374500E0,-4.074310631E-2,-1.400979422E0,-2.879393520E0,3.202391354E0
6.972318500E0,-6.554217115E-3,-1.013286220E0,-2.453710374E0,2.654710251E0
6.982262500E0,-3.812742747E-2,-8.720198286E-1,-2.055859827E0,2.233479776E0
6.992205500E0,-4.954601638E-2,-6.931318671E-1,-1.912489900E0,2.034822894E0
7.002149500E0,-1.438619703E-2,-4.637689859E-1,-1.938245569E0,1.993008912E0
7.012092500E0,4.295510799E-4,-1.118215674E-1,-1.769225954E0,1.772756250E0
7.022036500E0,7.525775850E-2,4.681655073E-1,-1.705134623E0,1.769838059E0
7.031980500E0,2.239845391E-1,9.988061750E-1,-1.459590157E0,1.782746835E0
7.041923500E0,5.500844870E-1,1.544579437E0,-8.207900333E-1,1.833579793E0
7.051867500E0,7.468476060E-1,2.217607992E0,-2.237144709E-1,2.350662612E0
7.061811500E0,5.814970816E-1,2.553084388E0,1.807672383E-1,2.624701039E0
7.071754500E0,2.962266327E-1,2.888016409E0,4.630900876E-1,2.939870988E0
7.081698500E0,1.821173787E-1,3.203429255E0,3.687850606E-1,3.229725708E0
7.091642500E0,6.247103076E-2,3.430785372E0,4.347082510E-1,3.458780444E0
7.101585500E0,8.389435183E-2,3.675444569E0,6.760479840E-1,3.738043863E0
7.111529500E0,1.644026176E-1,4.004150475E0,1.162745657E0,4.172796030E0
7.121472500E0,2.232736273E-1,4.397852275E0,1.620488137E0,4.692220961E0
7.131416500E0,1.234592625E-1,4.781933652E0,1.951081231E0,5.166125203E0
7.141360500E0,3.019904159E-4,5.112249296E0,2.397475216E0,5.646501604E0
7.151303500E0,2.351164500E-2,5.266278405E0,2.674359734E0,5.906474501E0
7.161247500E0,3.263242434E-2,5.035863610E0,2.576594288E0,5.656838808E0
7.171191500E0,-8.619263649E-2,4.657198509E0,2.332776213E0,5.209488649E0
7.181134500E0,-3.481800574E-1,4.448965711E0,2.487773913E0,5.109162778E0
7.191078500E0,-6.872264716E-1,4.510309435E0,2.994650035E0,5.457389509E0
7.201022500E0,-9.822570929E-1,4.495408391E0,3.391843792E0,5.716478803E0
7.210965500E0,-1.094793190E0,4.176816999E0,3.238303803E0,5.397312655E0
7.220909500E0,-1.034230654E0,3.751595782E0,2.941874528E0,4.878394172E0
7.230852500E0,-7.861280313E-1,3.402939177E0,2.754564237E0,4.448102568E0
7.240796500E0,-5.697901154E-1,3.072909461E0,2.733786449E0,4.152230928E0
7.250740500E0,-5.942797163E-1,2.972182401E0,3.415849829E0,4.566734792E0
7.260683500E0,-5.062484229E-1,3.243037124E0,4.008836433E0,5.181153038E0
7.270627500E0,-3.726649806E-1,3.135178215E0,4.412123575E0,5.425408378E0
7.280571500E0,-1.891091868E-1,2.509710327E0,4.307530335E0,4.988910282E0
7.290514500E0,-2.922938320E-1,2.053684809E0,3.764126950E0,4.297872575E0
7.300454750E0,-3.191477546E-1,1.561503033E0,3.013042744E0,3.408602879E0
7.310398750E0,-4.180642247E-1,1.249807847E0,3.081648125E0,3.351619387E0
7.320341750E0,-3.582922322E-1,1.284346181E0,3.495209409E0,3.740909949E0
7.330285750E0,-1.398920124E-1,9.434406441E-1,3.807157195E0,3.924805209E0
7.340228750E0,-2.109090686E-2,4.772491568E-1,3.860306046E0,3.889752480E0
7.350172750E0,5.017146746E-2,1.586372995E-1,3.580895092E0,3.584758378E0
7.360116750E0,2.419051588E-2,-1.924271894E-1,3.579477142E0,3.584727328E0
7.370059750E0,-2.069943577E-2,-3.571631348E-1,3.754367947E0,3.771375432E0
7.380003750E0,-2.700452495E-2,-4.032462108E-1,3.933936524E0,3.954641998E0
7.389947750E0,-3.743709058E-2,-5.843029046E-1,3.892900765E0,3.936684873E0
7.399890750E0,-1.109608573E-1,-9.280490184E-1,3.922125733E0,4.031954558E0
7.409834750E0,-1.778371803E-1,-1.267286929E0,4.040016711E0,4.237850546E0
7.419778750E0,-3.360573176E-1,-1.546662215E0,4.100545918E0,4.395403889E0
7.429721750E0,-4.724330611E-1,-1.651620905E0,4.178269447E0,4.517629930E0
7.439665750E0,-4.804976140E-1,-1.872704714E0,4.136267143E0,4.565808448E0
7.449609750E0,-4.883994682E-1,-2.229809961E0,4.069057492E0,4.665599145E0
7.459552750E0,-4.880504625E-1,-2.509427907E0,3.937315046E0,4.694451133E0
7.469496750E0,-4.606168250E-1,-2.673289694E0,3.839012825E0,4.700709002E0
7.479439750E0,-4.700348987E-1,-2.817950394E0,3.659738363E0,4.642786029E0
7.489383750E0,-5.371466087E-1,-2.989893617E0,3.497252426E0,4.632360613E0
7.499327750E0,-5.873592442E-1,-3.116280014E0,3.383717040E0,4.637427413E0
7.509270750E0,-5.593963972E-1,-3.267302485E0,3.219450041E0,4.620935882E0
7.519214750E0,-4.792301935E-1,-3.481908163E0,2.837394140E0,4.517095476E0
7.529158750E0,-5.538370838E-1,-3.579287692E0,2.310342347E0,4.296011832E0
7.539101750E0,-6.750748611E-1,-3.561398136E0,1.779073834E0,4.037869049E0
7.549045750E0,-7.589487112E-1,-3.478948302E0,1.529797676E0,3.875482598E0
7.558989750E0,-6.448157394E-1,-3.518074361E0,1.428849006E0,3.851524897E0
7.568932750E0,-5.443468335E-1,-3.670017768E0,1.630208402E0,4.052520614E0
7.578876750E0,-4.298587896E-1,-3.512556344E0,1.830006883E0,3.983937228E0
7.588820750E0,-3.912661430E-1,-3.351605301E0,1.615633632E0,3.741205597E0
7.598763750E0,-5.253284723E-1,-3.423181068E0,1.386978264E0,3.730663122E0
7.608707750E0,-5.494803965E-1,-3.524693409E0,9.585305536E-1,3.693801992E0
7.618651750E0,-5.460188448E-1,-3.659355955E0,4.228191805E-1,3.723949334E0
7.628594750E0,-5.015459459E-1,-3.775282268E0,-1.501231688E-1,3.811409386E0
7.638538750E0,-3.965029094E-1,-3.599207402E0,-6.632531798E-1,3.681224424E0
7.648481750E0,-3.612756278E-1,-3.426050881E0,-1.187085057E0,3.643832550E0
7.658425750E0,-4.222211565E-1,-3.101009426E0,-1.583232163E0,3.507300136E0
7.668369750E0,-3.373914329E-1,-2.844069906E0,-1.738442410E0,3.350335598E0
7.678312750E0,-2.523082325E-1,-2.865834997E0,-1.885771487E0,3.439884267E0
7.688256750E0,-2.803396381E-1,-2.692102525E0,-1.855511853E0,3.281604875E0
7.698200750E0,-2.236459123E-1,-2.436290349E0,-2.216155251E0,3.301041086E0
7.708143750E0,-1.795853882E-1,-2.406235076E0,-2.739512627E0,3.650636600E0
7.718087750E0,-4.917033277E-2,-2.489298867E0,-3.256518172E0,4.099260565E0
7.728031750E0,7.614741236E-2,-2.496612564E0,-3.754368532E0,4.509340949E0
7.737974750E0,2.744270068E-1,-2.252438101E0,-4.173597229E0,4.750547486E0
7.747918750E0,5.699600501E-1,-1.977005593E0,-4.494467574E0,4.943039990E0
7.757862750E0,6.686518409E-1,-1.826195376E0,-4.534759860E0,4.934179954E0
7.767805750E0,5.008067847E-1,-1.665423843E0,-4.121780081E0,4.473646728E0
7.777749750E0,4.673360067E-1,-1.622985336E0,-3.816232950E0,4.173262306E0
7.787692750E0,5.118353643E-1,-1.689193944E0,-3.602869221E0,4.011984327E0
7.797636750E0,4.776582427E-1,-1.974070875E0,-3.543260073E0,4.084091718E0
7.807580750E0,3.019245616E-1,-2.251526520E0,-3.791449819E0,4.419911972E0
7.817523750E0,9.574026257E-2,-2.206849115E0,-4.043693440E0,4.607689860E0
7.827467750E0,1.477409401E-1,-2.099974877E0,-4.147455205E0,4.651140349E0
7.837411750E0,2.842167076E-1,-2.312210094E0,-4.081260339E0,4.699338316E0
7.847354750E0,3.724363545E-1,-2.729763857E0,-4.013325341E0,4.867966705E0
7.857298750E0,4.513677724E-1,-2.969080453E0,-3.915011719E0,4.934216083E0
7.867242750E0,5.326832463E-1,-3.125746656E0,-3.883020725E0,5.013172005E0
7.877185750E0,4.952768536E-1,-3.313031804E0,-3.614261643E0,4.927917017E0
7.887129750E0,3.777680650E-1,-3.518386602E0,-3.383650089E0,4.896002545E0
7.897073750E0,2.222460157E-1,-3.620331053E0,-3.096544199E0,4.769148373E0
7.907016750E0,3.847555608E-2,-3.573374988E0,-3.017142227E0,4.676925955E0
7.916960750E0,-2.145484122E-1,-3.447016073E0,-2.876266137E0,4.494536430E0
7.926904750E0,-3.433399516E-1,-3.142287844E0,-2.558543057E0,4.066693717E0
7.936847750E0,-3.422144722E-1,-2.754959509E0,-2.294532499E0,3.601637409E0
7.946791750E0,-3.868105647E-1,-2.598010300E0,-2.084920635E0,3.353531570E0
7.956735750E0,-4.096539186E-1,-2.474162180E0,-1.928296971E0,3.163482896E0
7.966678750E0,-3.566644404E-1,-2.218662245E0,-1.893201690E0,2.938347208E0
7.976622750E0,-2.871942194E-1,-1.967815524E0,-1.911686200E0,2.758500060E0
7.986566750E0,-1.478764493E-1,-1.782866338E0,-1.892395066E0,2.604158005E0
7.996509750E0,1.413490928E-1,-1.320285507E0,-1.933444859E0,2.345494065E0
8.006453750E0,3.017195071E-1,-6.021105999E-1,-1.846341227E0,1.965336551E0
8.016397750E0,2.570436001E-1,4.145442009E-2,-1.305098534E0,1.330816315E0
8.026340750E0,4.132063214E-1,4.512033194E-1,-7.645876928E-1,9.792437080E-1
8.036284750E0,4.950641611E-1,7.535505617E-1,-3.277422845E-1,9.593445563E-1
8.046227750E0,4.503109978E-1,1.175718947E0,-2.189477841E-1,1.277901862E0
8.056171750E0,3.740860733E-1,1.570328820E0,-1.927381881E-1,1.625737065E0
8.066115750E0,2.069592379E-1,1.932534594E0,1.251163908E-1,1.947607813E0
8.076058750E0,1.325990270E-1,2.308578973E0,4.994925499E-1,2.365715998E0
8.086002750E0,2.511303109E-1,2.786180132E0,1.181759706E0,3.036844112E0
8.095946750E0,3.619374229E-1,3.186317378E0,1.573986254E0,3.572261169E0
8.105889750E0,3.909544864E-1,3.398301165E0,1.793225266E0,3.862247153E0
8.115833750E0,2.281051268E-1,3.822797327E0,2.129171194E0,4.381687041E0
8.125777750E0,-2.072895507E-2,4.296084995E0,2.447107844E0,4.944199913E0
8.135720750E0,-1.332352406E-1,4.603319340E0,2.760997928E0,5.369488815E0
8.145664750E0,-3.945701122E-2,4.551709476E0,2.792702993E0,5.340300181E0
8.155608750E0,2.103068282E-2,4.315211822E0,2.677454081E0,5.078410747E0
8.165551750E0,-1.108287102E-1,4.258549964E0,2.992338338E0,5.205921583E0
8.175495750E0,-2.944067234E-1,4.573893812E0,3.884457386E0,6.008010412E0
8.185439750E0,-4.724100012E-1,4.836146112E0,4.341972774E0,6.516456706E0
8.195382750E0,-7.168467119E-1,4.696244461E0,4.835209388E0,6.778482948E0
8.205326750E0,-7.661764544E-1,4.441277207E0,5.071495957E0,6.784691654E0
8.215270750E0,-7.656452349E-1,4.254604263E0,4.983266151E0,6.597030513E0
8.225213750E0,-7.328789002E-1,4.210954798E0,5.053376606E0,6.618600072E0
8.235157750E0,-5.666960612E-1,4.211419067E0,5.089424690E0,6.630191450E0
8.245101750E0,-4.979483002E-1,3.984844723E0,4.876028801E0,6.316850231E0
8.255044750E0,-4.630772603E-1,3.552919673E0,4.507700115E0,5.758214921E0
8.264988750E0,-3.787706432E-1,3.165583152E0,4.509263953E0,5.522485427E0
8.274932750E0,-1.369382823E-1,2.952169136E0,4.622698475E0,5.486656166E0
8.284875750E0,2.397387197E-2,2.645470980E0,4.602004302E0,5.308251600E0
8.294819750E0,1.234683439E-1,2.255272831E0,4.457109713E0,4.996731629E0
8.304764208E0,1.615676134E-1,1.942895275E0,4.379015763E0,4.793404343E0
8.314707208E0,2.114168993E-1,1.659641531E0,4.329948560E0,4.641935119E0
8.324651208E0,1.925865077E-1,1.351900232E0,4.209350907E0,4.425308900E0
8.334594208E0,2.181458933E-1,1.051433455E0,3.990416535E0,4.132375111E0
8.344538208E0,2.512241404E-1,7.029610366E-1,3.743502066E0,3.817207816E0
8.354482208E0,1.976519689E-1,2.542316741E-1,3.634465528E0,3.648703841E0
8.364425208E0,1.618722716E-1,-6.061808467E-2,3.738786871E0,3.742780311E0
8.374369208E0,1.108143480E-1,-2.021569562E-1,3.888531141E0,3.895358993E0
8.384313208E0,4.119772732E-2,-4.122316271E-1,3.824374321E0,3.846748122E0
8.394256208E0,-6.534347545E-2,-7.381337929E-1,3.734385087E0,3.807196245E0
8.404200208E0,-1.519729720E-1,-9.606653720E-1,3.676532736E0,3.803007586E0
8.414144208E0,-2.020242244E-1,-1.200895303E0,3.566195776E0,3.768383690E0
8.424087208E0,-2.248544221E-1,-1.492439230E0,3.416695336E0,3.735202991E0
8.434031208E0,-2.315756869E-1,-1.769685545E0,3.355919377E0,3.801001064E0
8.443975208E0,-2.223591228E-1,-2.042697306E0,3.237598629E0,3.834592644E0
8.453918208E0,-2.788610600E-1,-2.224767323E0,3.025468662E0,3.765742125E0
8.463862208E0,-3.626984015E-1,-2.410188378E0,2.783001001E0,3.699412483E0
8.473806208E0,-5.352028846E-1,-2.562748666E0,2.685256605E0,3.750296774E0
8.483749208E0,-7.040889645E-1,-2.566789092E0,2.656158521E0,3.760229462E0
8.493693208E0,-7.430305436E-1,-2.743754489E0,2.533874531E0,3.807992020E0
8.503637208E0,-7.892410158E-1,-2.988786154E0,2.589942312E0,4.032808604E0
8.513580208E0,-8.702110655E-1,-3.022985349E0,2.567939240E0,4.060790522E0
8.523524208E0,-9.720663462E-1,-3.043346524E0,2.364795566E0,3.974811834E0
8.533468208E0,-1.102875285E0,-3.189228122E0,2.373873953E0,4.125868085E0
8.543411208E0,-1.063415935E0,-3.149703283E0,2.431294780E0,4.118577246E0
8.553355208E0,-9.807102120E-1,-2.981001171E0,2.411057274E0,3.957443327E0
8.563299208E0,-9.334588623E-1,-3.010474062E0,2.331067364E0,3.920226343E0
8.573242208E0,-8.736405306E-1,-3.237703879E0,2.200481205E0,4.010996350E0
8.583186208E0,-7.344376217E-1,-3.313993086E0,1.859573914E0,3.870395837E0
8.593130208E0,-7.538473079E-1,-3.146485561E0,1.217918887E0,3.457164092E0
8.603073208E0,-8.980022968E-1,-3.313413042E0,3.929214898E-1,3.455358362E0
8.613017208E0,-9.722254635E-1,-3.644354923E0,-2.627829346E-1,3.780952265E0
8.622961208E0,-8.308152308E-1,-3.698753325E0,-8.410757786E-1,3.883096518E0
8.632904208E0,-7.642588601E-1,-3.593428599E0,-1.225376426E0,3.872772661E0
8.642848208E0,-7.488106625E-1,-3.598708050E0,-1.675431352E0,4.039614740E0
8.652792208E0,-6.442131838E-1,-3.436363031E0,-2.161135583E0,4.110244337E0
8.662735208E0,-4.435645900E-1,-3.284693858E0,-2.817691070E0,4.350327143E0
8.672679208E0,-2.828586917E-1,-3.107083513E0,-3.443036166E0,4.646339961E0
8.682623208E0,-1.186081383E-1,-2.888336252E0,-3.909421488E0,4.862111739E0
8.692566208E0,-1.159108177E-2,-2.954854762E0,-4.413594734E0,5.311414077E0
8.702510208E0,1.506945880E-1,-3.188718245E0,-4.879185128E0,5.830701537E0
8.712454208E0,3.930426733E-1,-3.417459567E0,-5.314008057E0,6.330260190E0
8.722397208E0,6.134951288E-1,-3.585219108E0,-5.758292366E0,6.810881243E0
8.732341208E0,7.605502635E-1,-3.710143701E0,-6.010956402E0,7.104590055E0
8.742285208E0,7.057083508E-1,-3.857577735E0,-6.078426254E0,7.233684814E0
8.752228208E0,5.179594456E-1,-3.998098606E0,-5.923959188E0,7.165637928E0
8.762172208E0,5.113056066E-1,-4.043482355E0,-5.757636309E0,7.054187327E0
8.772116208E0,5.652505564E-1,-4.145565970E0,-5.589194983E0,6.981713683E0
8.782059208E0,6.727448188E-1,-4.270167212E0,-5.477359382E0,6.977705884E0
8.792003208E0,6.563712262E-1,-4.430244681E0,-5.325303708E0,6.958214620E0
8.801947208E0,5.529613171E-1,-4.493802161E0,-5.059072378E0,6.789273702E0
8.811890208E0,5.052663830E-1,-4.409570096E0,-4.709136987E0,6.471133881E0
8.821834208E0,4.661694872E-1,-4.335581768E0,-4.245834901E0,6.086189059E0
8.831778208E0,4.040267410E-1,-4.206118566E0,-3.685298297E0,5.606790038E0
8.841721208E0,2.832079167E-1,-3.995743933E0,-3.162316020E0,5.103569232E0
8.851665208E0,1.011042058E-1,-3.700854814E0,-2.600338662E0,4.524191593E0
8.861609208E0,1.401504502E-3,-3.597059135E0,-2.127313826E0,4.179031048E0
8.871552208E0,-1.972869565E-1,-3.730539958E0,-1.715579504E0,4.110847061E0
8.881496208E0,-3.890890054E-1,-3.643942110E0,-1.533881079E0,3.972718908E0
8.891440208E0,-4.763860347E-1,-3.365325792E0,-1.452020644E0,3.696041842E0
8.901383208E0,-4.035037807E-1,-2.971807010E0,-1.219567802E0,3.237560475E0
8.911327208E0,-2.752634510E-1,-2.527243788E0,-1.091086055E0,2.766441742E0
8.921271208E0,-1.257242728E-1,-2.088401483E0,-1.117224863E0,2.371796522E0
8.931214208E0,-2.562103719E-2,-1.533659177E0,-1.106239407E0,1.891172264E0
8.941158208E0,7.637421124E-2,-1.145075444E0,-1.104426478E0,1.592729932E0
8.951102208E0,1.757842594E-1,-7.466075778E-1,-9.080152881E-1,1.188618839E0
8.961045208E0,3.989294673E-1,-1.740219086E-1,-7.435364740E-1,8.615537317E-1
8.970989208E0,6.687106785E-1,2.108693075E-1,-5.965001965E-1,9.205717358E-1
8.980933208E0,7.838057365E-1,5.407563508E-1,-2.524335091E-1,9.851352902E-1
8.990876208E0,7.133009604E-1,9.608951676E-1,9.789291501E-2,1.200708460E0
9.000820208E0,3.524891264E-1,1.385510613E0,5.195392171E-1,1.521121047E0
9.010764208E0,1.261658838E-1,1.762781153E0,9.062682132E-1,1.986111099E0
9.020707208E0,1.428964488E-2,2.119816234E0,1.153543382E0,2.413397479E0
9.030651208E0,1.360485553E-1,2.417959912E0,1.242874804E0,2.722090580E0
9.040595208E0,4.207991868E-1,2.712087139E0,1.674041469E0,3.214794464E0
9.050538208E0,6.513491258E-1,3.115702894E0,1.878607478E0,3.696082556E0
9.060482208E0,5.483299203E-1,3.416768426E0,1.704489090E0,3.857493388E0
9.070426208E0,3.302764313E-1,3.332525252E0,1.728399525E0,3.768576918E0
9.080369208E0,2.477281085E-1,3.341998326E0,2.170912127E0,3.992891370E0
9.090313208E0,3.166244252E-1,3.534064742E0,2.617414870E0,4.409163779E0
9.100257208E0,2.502227865E-1,3.541857911E0,2.787943068E0,4.514420832E0
9.110200208E0,9.968475770E-2,3.447997820E0,2.633794091E0,4.339988172E0
9.120144208E0,-2.026853252E-2,3.414143611E0,2.676795684E0,4.338435495E0
9.130088208E0,-1.966158788E-1,3.353524357E0,2.773009279E0,4.355957286E0
9.140031208E0,-3.410604876E-1,3.222674196E0,2.990740879E0,4.409816576E0
9.149975208E0,-3.291646197E-1,3.144771742E0,2.945565290E0,4.321376347E0
9.159919208E0,-2.738283250E-1,3.055922130E0,2.902744961E0,4.223691552E0
9.169862208E0,-1.692374244E-1,2.933748068E0,3.111553125E0,4.279869376E0
9.179806208E0,-1.688149631E-2,2.917757102E0,3.271576214E0,4.383697346E0
9.189750208E0,7.660989057E-2,2.962609924E0,3.299181504E0,4.434808365E0
9.199693208E0,8.830611259E-2,2.875689309E0,3.179071509E0,4.287643016E0
9.209637208E0,1.129875022E-1,2.713541341E0,3.099702573E0,4.121192646E0
9.219581208E0,6.648368251E-2,2.504556592E0,3.038005092E0,3.937854586E0
9.229524208E0,3.683596026E-2,2.317362660E0,3.326403801E0,4.054193981E0
9.239468208E0,8.321845025E-2,2.343324298E0,3.558338288E0,4.261439363E0
9.249412208E0,2.369087130E-2,2.503412876E0,3.895492251E0,4.630604406E0
9.259355208E0,6.089582741E-2,2.607555295E0,4.208617666E0,4.951314530E0
9.269299208E0,1.962366503E-1,2.666035638E0,4.418220466E0,5.164002995E0
9.279243208E0,3.336102943E-1,2.652988161E0,4.411889101E0,5.158915337E0
9.289187208E0,2.793764555E-1,2.406717471E0,4.194131189E0,4.843663553E0
9.299130208E0,2.002881861E-1,2.076614081E0,3.915209062E0,4.436361504E0
9.309074958E0,1.535598698E-1,1.704128902E0,3.714453683E0,4.089596816E0
9.319018958E0,1.465782943E-1,1.385438107E0,3.509922758E0,3.776305299E0
9.328961958E0,5.132744372E-2,1.044323241E0,3.339933089E0,3.499771218E0
9.338905958E0,4.147250991E-2,7.022172707E-1,3.137545168E0,3.215434457E0
9.348849958E0,4.348895878E-2,4.008763343E-1,3.078162600E0,3.104461002E0
9.358792958E0,4.436340988E-2,1.300455844E-1,3.098747723E0,3.101792613E0
9.368736958E0,4.519780755E-2,-5.575086236E-2,3.248583208E0,3.249375919E0
9.378680958E0,5.555845242E-2,-1.419043225E-1,3.507631234E0,3.510940109E0
9.388623958E0,1.547546022E-2,-1.863221115E-1,3.606640382E0,3.611483112E0
9.398567958E0,5.033926427E-2,-4.165076959E-1,3.660366354E0,3.684330950E0
9.408511958E0,-6.518216539E-2,-6.757188588E-1,3.734643534E0,3.795840753E0
9.418454958E0,-1.737155145E-1,-9.972870684E-1,3.642358099E0,3.780414144E0
9.428398958E0,-1.965752772E-1,-1.255818200E0,3.267563270E0,3.506093398E0
9.438342958E0,-2.978353114E-1,-1.579307805E0,2.868404263E0,3.287957121E0
9.448285958E0,-4.357682050E-1,-1.770829845E0,2.785507118E0,3.329381650E0
9.458229958E0,-4.251849639E-1,-1.907393321E0,2.717561302E0,3.347248268E0
9.468173958E0,-4.257596722E-1,-2.005375113E0,2.848252419E0,3.509322226E0
9.478116958E0,-4.541909543E-1,-2.095297104E0,2.784897838E0,3.514571858E0
9.488060958E0,-5.930273158E-1,-2.231378185E0,2.779972143E0,3.613720398E0
9.498004958E0,-6.424673514E-1,-2.287266456E0,2.724744314E0,3.615049615E0
9.507947958E0,-6.951306646E-1,-2.333256562E0,2.771250436E0,3.688783242E0
9.517891958E0,-7.182049470E-1,-2.443911025E0,2.710539966E0,3.719616425E0
9.527835958E0,-7.374731306E-1,-2.517539164E0,2.603945517E0,3.696268702E0
9.537778958E0,-6.990488838E-1,-2.541024506E0,2.390722705E0,3.558234103E0
9.547722958E0,-6.503640892E-1,-2.683984836E0,2.288810414E0,3.586837208E0
9.557666958E0,-5.804262737E-1,-2.765352935E0,2.363133641E0,3.683540704E0
9.567609958E0,-4.470248991E-1,-2.799912318E0,2.238462671E0,3.612486039E0
9.577553958E0,-3.838685381E-1,-2.966266773E0,1.966077147E0,3.579322976E0
9.587497958E0,-3.294184620E-1,-3.196745887E0,1.748244098E0,3.658422914E0
9.597440958E0,-2.602306981E-1,-3.306996308E0,1.223106829E0,3.535524701E0
9.607384958E0,-3.210039532E-1,-3.514560184E0,6.640285206E-1,3.591115524E0
9.617328958E0,-4.031469543E-1,-3.701813757E0,2.939018163E-1,3.735281896E0
9.627272958E0,-2.978861091E-1,-3.784565892E0,-2.990777716E-1,3.808033960E0
9.637215958E0,-1.746088960E-1,-3.832723560E0,-9.640134877E-1,3.955955025E0
9.647159958E0,-1.051838813E-1,-3.940636849E0,-1.451809560E0,4.200884838E0
9.657103958E0,4.126672447E-2,-4.100292733E0,-1.964374437E0,4.546742831E0
9.667046958E0,2.316536741E-1,-4.080099374E0,-2.536610443E0,4.809913395E0
9.676990958E0,2.695156380E-1,-3.943988473E0,-3.101638878E0,5.024723623E0
9.686934958E0,2.332755455E-1,-3.926176100E0,-3.688441468E0,5.392019724E0
9.696877958E0,2.211538289E-1,-3.961681563E0,-4.081876343E0,5.692586784E0
9.706821958E0,3.135436369E-1,-4.096878544E0,-4.512657092E0,6.103015439E0
9.716765958E0,4.644387844E-1,-4.337196184E0,-4.739030292E0,6.440914704E0
9.726708958E0,6.446033393E-1,-4.499421920E0,-4.851084579E0,6.647806606E0
9.736652958E0,7.579388970E-1,-4.489361200E0,-5.015692470E0,6.773921044E0
9.746596958E0,7.654128081E-1,-4.417173815E0,-5.248623322E0,6.902559529E0
9.756539958E0,6.493908933E-1,-4.373115045E0,-5.480734395E0,7.041611551E0
9.766483958E0,5.238228142E-1,-4.248957607E0,-5.610523871E0,7.057337259E0
9.776427958E0,4.845991069E-1,-4.242953686E0,-5.658993781E0,7.089548849E0
9.786370958E0,4.402107733E-1,-4.076898608E0,-5.541726701E0,6.893882986E0
9.796314958E0,5.567884659E-1,-3.822114372E0,-5.559843714E0,6.769817856E0
9.806258958E0,4.179184829E-1,-3.597757877E0,-5.336992877E0,6.449962060E0
9.816201958E0,4.060215917E-1,-3.255058415E0,-4.849951096E0,5.855107552E0
9.826145958E0,5.311537609E-1,-2.820382835E0,-4.288032210E0,5.159835645E0
9.836089958E0,5.208902894E-1,-2.308543890E0,-3.776164320E0,4.456469293E0
9.846032958E0,3.374248351E-1,-1.826512295E0,-3.393220812E0,3.868326532E0
9.855976958E0,5.082516789E-2,-1.383744754E0,-2.941924814E0,3.251500323E0
9.865920958E0,-1.074626143E-1,-9.338722605E-1,-2.420354055E0,2.596493667E0
9.875864958E0,-1.481509030E-1,-6.000699216E-1,-1.854811649E0,1.955085383E0
9.885807958E0,-2.222339559E-1,-3.729389226E-1,-1.209383122E0,1.284943153E0
9.895751958E0,-2.128634273E-1,-1.685565162E-1,-6.338104025E-1,6.895199519E-1
9.905695958E0,-3.418595096E-1,9.652934432E-2,-2.668306696E-1,4.442796922E-1
9.915638958E0,-4.853112978E-1,3.300741541E-1,-1.905724525E-1,6.170849720E-1
9.925582958E0,-5.013636589E-1,4.945376194E-1,-3.867020988E-1,8.034124026E-1
9.935526958E0,-6.304372168E-1,5.898115665E-1,-6.669028656E-1,1.090911637E0
9.945469958E0,-6.427002168E-1,6.084893274E-1,-8.918711257E-1,1.256485947E0
9.955413958E0,-4.602788559E-1,6.136220133E-1,-8.982234677E-1,1.181183304E0
9.965357958E0,-2.042154685E-1,8.054902089E-1,-8.287141800E-1,1.173578130E0
9.975300958E0,-2.257924251E-2,1.266842541E0,-2.587989708E-1,1.293204064E0
9.985244958E0,1.370320570E-1,1.819320220E0,4.976132913E-1,1.891116822E0
9.995188958E0,1.341060372E-1,2.248133966E0,7.874538875E-1,2.385827819E0
1.000513196E1,-7.407552458E-2,2.651900579E0,1.239848869E0,2.928359452E0
1.001507596E1,6.023180299E-2,3.014934318E0,1.319294404E0,3.291503385E0
1.002501996E1,1.040862858E-2,3.060903958E0,1.244614350E0,3.304286044E0
1.003496296E1,-8.995765865E-2,2.880150150E0,9.128450882E-1,3.022688112E0
1.004490696E1,-1.141932712E-1,2.724742852E0,5.383776303E-1,2.779768729E0
1.005485096E1,7.168306321E-2,2.813652690E0,6.546361381E-1,2.889693478E0
1.006479396E1,2.392619249E-1,2.872818911E0,1.178859487E0,3.114489437E0
1.007473796E1,3.937108273E-1,2.825978621E0,1.633874606E0,3.287964356E0
1.008468196E1,4.019068695E-1,2.847647817E0,1.960557229E0,3.480576370E0
1.009462596E1,2.537542124E-1,2.838826123E0,1.886607492E0,3.417983731E0
1.010456896E1,-1.973544918E-3,2.929106548E0,2.227615063E0,3.679937218E0
1.011451296E1,1.078895707E-1,3.173595006E0,2.151768197E0,3.835811752E0
1.012445696E1,1.311252728E-1,2.922144853E0,1.908208423E0,3.492475306E0
1.013439996E1,2.164027835E-1,2.429087749E0,1.521728372E0,2.874535561E0
1.014434396E1,1.705576892E-1,2.132829797E0,1.521268781E0,2.625321232E0
1.015428796E1,4.551180303E-3,2.123720419E0,2.432916505E0,3.229441415E0
1.016423096E1,-2.379085869E-2,2.501980308E0,3.389325104E0,4.212837064E0
1.017417496E1,-1.545427868E-1,2.641768523E0,3.528256702E0,4.410376374E0
1.018411896E1,-2.482268760E-1,2.448540266E0,3.215566320E0,4.049300282E0
1.019406196E1,-1.787675271E-1,2.338109166E0,3.038012694E0,3.837738061E0
1.020400596E1,-8.960861642E-2,2.257301230E0,3.309494531E0,4.007017918E0
1.021394996E1,-1.106258118E-1,2.283361686E0,3.796632206E0,4.431748500E0
1.022389296E1,-1.473764393E-1,2.373443305E0,4.343595961E0,4.951946972E0
1.023383696E1,-1.066664063E-1,2.283920095E0,4.447794514E0,5.001054365E0
1.024378096E1,-1.355060433E-1,2.055758817E0,4.306643313E0,4.774063554E0
1.025372496E1,-1.453799440E-1,1.746795450E0,4.068819510E0,4.430318485E0
1.026366796E1,-2.006563048E-1,1.463519486E0,3.910461123E0,4.180174450E0
1.027361196E1,-1.639390065E-1,1.220024469E0,3.663252540E0,3.864551057E0
1.028355596E1,-2.254765293E-1,9.129433215E-1,3.623432416E0,3.743470001E0
1.029349896E1,-1.774197622E-1,6.336118895E-1,3.615942718E0,3.675320875E0
1.030344583E1,-5.998545248E-2,4.547759682E-1,3.645438997E0,3.674186293E0
1.031338983E1,1.337952577E-2,2.255721313E-1,3.599206817E0,3.606293320E0
1.032333283E1,-2.099771686E-3,1.068695605E-2,3.555415850E0,3.555432531E0
1.033327683E1,7.723638318E-2,-1.075741500E-1,3.522103093E0,3.524591870E0
1.034322083E1,4.475714676E-2,-2.133356631E-1,3.524736094E0,3.531469926E0
1.035316383E1,-6.715355415E-2,-4.804750657E-1,3.522976667E0,3.556224189E0
1.036310783E1,-1.706721119E-1,-7.066044366E-1,3.586403754E0,3.659332000E0
1.037305183E1,-2.263065416E-1,-8.221465874E-1,3.697336544E0,3.794395497E0
1.038299483E1,-2.429919003E-1,-1.019921055E0,3.898434570E0,4.036963725E0
1.039293883E1,-1.834502515E-1,-1.121435736E0,3.990120081E0,4.148774562E0
1.040288283E1,-1.744335892E-1,-1.192675288E0,3.928766416E0,4.109514202E0
1.041282683E1,-2.365321888E-1,-1.297599480E0,3.724489844E0,3.951143694E0
1.042276983E1,-3.753050715E-1,-1.430845245E0,3.452306049E0,3.755873942E0
1.043271383E1,-4.731374679E-1,-1.552198943E0,3.215968609E0,3.602170834E0
1.044265783E1,-5.921502335E-1,-1.660715080E0,3.018171337E0,3.495421962E0
1.045260083E1,-7.397420695E-1,-1.877681279E0,2.857574050E0,3.498376019E0
1.046254483E1,-8.607272471E-1,-2.093780921E0,2.859474396E0,3.647103475E0
1.047248883E1,-8.352928823E-1,-2.164086088E0,3.047733690E0,3.830099664E0
1.048243183E1,-7.540431896E-1,-2.241262318E0,3.280221323E0,4.043722275E0
1.049237583E1,-6.649558890E-1,-2.454197447E0,3.255397553E0,4.130722052E0
1.050231983E1,-6.839819247E-1,-2.714787383E0,3.043690925E0,4.135451155E0
1.051226283E1,-6.780439311E-1,-2.868099039E0,2.747077754E0,4.028916958E0
1.052220683E1,-5.186933443E-1,-3.129763108E0,2.329855821E0,3.936075209E0
1.053215083E1,-4.347499124E-1,-3.460417891E0,1.896404356E0,3.969867624E0
1.054209483E1,-3.775997382E-1,-3.630706937E0,1.495461656E0,3.944745872E0
1.055203783E1,-2.722950388E-1,-3.863735438E0,9.845047626E-1,3.996479169E0
1.056198183E1,-3.287086831E-1,-4.008035949E0,5.051184484E-1,4.053090946E0
1.057192583E1,-3.329984929E-1,-4.123117340E0,2.086915120E-1,4.141803561E0
1.058186883E1,-3.332765280E-1,-4.442194635E0,-1.421086827E-1,4.456945288E0
1.059181283E1,-3.435125906E-1,-4.739303357E0,-5.650769672E-1,4.785217779E0
1.060175683E1,-4.003973012E-1,-4.948938317E0,-1.199282057E0,5.107894470E0
1.061169983E1,-4.655891510E-1,-4.905901056E0,-1.835916080E0,5.258823659E0
1.062164383E1,-5.319157261E-1,-4.757284130E0,-2.513102590E0,5.406511931E0
1.063158783E1,-5.334237231E-1,-4.744108599E0,-3.288676104E0,5.797111159E0
1.064153083E1,-5.033351208E-1,-4.878838972E0,-3.905736280E0,6.269863783E0
1.065147483E1,-4.388481528E-1,-5.013513798E0,-4.328278595E0,6.637914122E0
1.066141883E1,-3.545703332E-1,-4.984994588E0,-4.590271863E0,6.785756181E0
1.067136283E1,-3.088782898E-1,-4.884089772E0,-4.819301161E0,6.868435221E0
1.068130583E1,-3.604820144E-1,-4.803619221E0,-4.807984167E0,6.805983886E0
1.069124983E1,-3.112959673E-1,-4.777735351E0,-4.821105904E0,6.794609805E0
1.070119383E1,-1.229931115E-1,-4.628300985E0,-4.992081998E0,6.808610723E0
1.071113683E1,1.628288761E-1,-4.426888964E0,-5.347507925E0,6.944040621E0
1.072108083E1,4.089200565E-1,-4.211744757E0,-5.702977706E0,7.101405792E0
1.073102483E1,5.267683491E-1,-3.899613953E0,-5.908065287E0,7.098570934E0
1.074096783E1,6.401981932E-1,-3.566684604E0,-6.039949236E0,7.043584284E0
1.075091183E1,7.929581639E-1,-3.362331433E0,-5.937646351E0,6.869475927E0
1.076085583E1,9.369448261E-1,-3.033983377E0,-5.633989332E0,6.467206239E0
1.077079883E1,9.493780531E-1,-2.591122280E0,-5.178196533E0,5.867618997E0
1.078074283E1,7.939100906E-1,-2.366649426E0,-4.695028825E0,5.317388306E0
1.079068683E1,5.826601294E-1,-2.271002426E0,-4.332441813E0,4.926154373E0
1.080062983E1,3.827382714E-1,-2.144278060E0,-3.803363521E0,4.382920380E0
1.081057383E1,2.480551140E-1,-2.115164189E0,-3.157178071E0,3.808309895E0
1.082051783E1,5.227249995E-2,-1.951616982E0,-2.239397348E0,2.970932807E0
1.083046183E1,-6.950936079E-2,-1.621510084E0,-1.327897997E0,2.097007294E0
1.084040483E1,-1.234028551E-1,-1.316280749E0,-7.202787352E-1,1.505531378E0
1.085034883E1,-2.367559545E-1,-1.021376427E0,-4.797087881E-1,1.152989033E0
1.086029283E1,-3.700251089E-1,-6.412097615E-1,-4.058876905E-1,8.442827469E-1
1.087023583E1,-3.123101668E-1,-4.009716439E-1,-6.214090428E-1,8.027858357E-1
1.088017983E1,-2.020681516E-1,-9.942780912E-2,-8.364487307E-1,8.662354796E-1
1.089012383E1,4.856485359E-2,2.422314334E-1,-9.558687548E-1,9.872789316E-1
1.090006683E1,2.467079155E-2,7.071599221E-1,-7.008073609E-1,9.958989710E-1
1.091001083E1,7.663865156E-2,1.332368193E0,-2.452791484E-1,1.356923117E0
1.091995483E1,2.683275568E-1,1.813167779E0,1.612591910E-1,1.839995000E0
1.092989883E1,3.263295972E-1,2.095559059E0,2.930449069E-1,2.140965692E0
1.093984183E1,4.287087885E-1,2.396636871E0,2.916368973E-1,2.452083114E0
1.094978583E1,3.754429927E-1,2.668650513E0,4.856440043E-1,2.738339478E0
1.095972983E1,2.754619639E-1,3.044720619E0,1.093655614E0,3.246888595E0
1.096967283E1,1.621146387E-1,3.385349582E0,1.704043533E0,3.793499349E0
1.097961683E1,1.285489896E-1,3.529372351E0,1.837008632E0,3.980903760E0
1.098956083E1,2.766556730E-1,3.584174795E0,1.441587750E0,3.873115356E0
1.099950383E1,3.473606067E-1,3.499185516E0,9.520940117E-1,3.642998994E0
1.100944783E1,2.229271433E-1,3.503987249E0,1.392348347E0,3.777069906E0
1.101939183E1,2.134985080E-1,3.771391531E0,2.295595230E0,4.420263923E0
1.102933483E1,3.825672403E-1,3.986687765E0,2.818553241E0,4.897374746E0
1.103927883E1,4.695051044E-1,4.083650388E0,2.767918693E0,4.955603841E0
1.104922283E1,6.682297450E-1,3.825175974E0,1.965926142E0,4.352397939E0
1.105916683E1,6.341150424E-1,3.406321206E0,1.460867189E0,3.760220604E0
1.106910983E1,4.154452568E-1,3.466987238E0,2.110623241E0,4.080113446E0
1.107905383E1,4.283515236E-1,3.748220184E0,2.909599067E0,4.764284449E0
1.108899783E1,2.085002898E-1,3.533622692E0,3.427609749E0,4.927318773E0
1.109894083E1,1.471033560E-1,3.260175313E0,3.302984533E0,4.643284322E0
1.110888483E1,1.124083172E-1,3.046268962E0,2.702998227E0,4.074136673E0
1.111882883E1,-7.184797296E-2,2.613660958E0,2.342059983E0,3.510218042E0
1.112877183E1,-1.276874206E-1,2.566215481E0,2.638230958E0,3.682665958E0
1.113871583E1,4.607752115E-2,2.592994559E0,2.882249885E0,3.877255256E0
1.114865983E1,-2.969071755E-2,2.200753977E0,3.526604864E0,4.157059234E0
1.115860383E1,6.283706646E-2,2.089342884E0,3.989510508E0,4.503942305E0
1.116854683E1,2.068160176E-2,2.089503683E0,4.423536755E0,4.892252118E0
1.117849083E1,-1.414698744E-1,1.994347849E0,4.736263974E0,5.140975929E0
1.118843483E1,-2.807596327E-1,1.993104731E0,4.729785844E0,5.140249661E0
1.119837783E1,-3.355418855E-1,1.762486453E0,4.645127517E0,4.979573928E0
1.120832183E1,-3.078415784E-1,1.428321002E0,4.582811401E0,4.810096429E0
1.121826583E1,-2.304691927E-1,1.058620852E0,4.473167921E0,4.602502081E0
1.122820883E1,-2.140051693E-1,6.681484687E-1,4.228430371E0,4.286238910E0
1.123815283E1,-3.060005826E-1,2.393171811E-1,4.117067810E0,4.135354450E0
1.124809683E1,-2.751740251E-1,-1.877242738E-1,4.021351229E0,4.035124144E0
1.125804083E1,-1.906964501E-1,-5.325778502E-1,3.962083851E0,4.002263453E0
1.126798383E1,-9.025648791E-2,-8.526860100E-1,3.906779131E0,3.999767849E0
1.127792783E1,-1.039190555E-1,-1.137005117E0,3.878839381E0,4.043386544E0
1.128787183E1,-1.677417067E-1,-1.300902572E0,3.844905649E0,4.062484983E0
1.129781483E1,-2.089859559E-1,-1.381053865E0,3.718575386E0,3.972252234E0
1.130775483E1,-1.503640741E-1,-1.582508571E0,3.635177718E0,3.967550853E0
1.131769883E1,-2.377799116E-1,-1.766139793E0,3.635760101E0,4.049017235E0
1.132764183E1,-3.371425973E-1,-1.946399512E0,3.442499099E0,3.968996880E0
1.133758583E1,-3.524011624E-1,-2.104107104E0,3.208031598E0,3.852651038E0
1.134752983E1,-3.751150005E-1,-2.159037602E0,3.058308964E0,3.762367386E0
1.135747383E1,-3.398834431E-1,-2.170843715E0,2.869732751E0,3.614339393E0
1.136741683E1,-3.197260808E-1,-2.226567680E0,2.619453210E0,3.452732761E0
1.137736083E1,-5.324904343E-1,-2.291408039E0,2.696008465E0,3.578066309E0
1.138730483E1,-5.937043137E-1,-2.145924051E0,2.707057364E0,3.505086935E0
1.139724783E1,-6.529995024E-1,-2.119687010E0,2.752931110E0,3.535266760E0
1.140719183E1,-6.183463443E-1,-2.268324986E0,2.803306334E0,3.658712458E0
1.141713583E1,-6.991267249E-1,-2.300325043E0,2.817721767E0,3.704028812E0
1.142707883E1,-8.368471453E-1,-2.422002093E0,2.748046346E0,3.757414803E0
1.143702283E1,-8.592146455E-1,-2.690657094E0,2.519136916E0,3.784697637E0
1.144696683E1,-8.485593376E-1,-2.845347522E0,2.418116033E0,3.829274164E0
1.145691083E1,-8.104717442E-1,-2.879011112E0,2.413358738E0,3.843158835E0
1.146685383E1,-7.198083998E-1,-2.867508470E0,2.214221577E0,3.693711703E0
1.147679783E1,-6.519409371E-1,-2.923071637E0,1.900990912E0,3.547272364E0
1.148674183E1,-5.961044130E-1,-2.982599800E0,1.583361972E0,3.429034437E0
1.149668483E1,-4.198669944E-1,-3.259121060E0,1.007925785E0,3.437160568E0
1.150662883E1,-4.021234723E-1,-3.556932617E0,4.853840956E-1,3.612349741E0
1.151657283E1,-4.037014166E-1,-3.744648120E0,-3.771395624E-1,3.785181453E0
1.152651583E1,-5.509322602E-1,-4.106110128E0,-1.320731649E0,4.348332879E0
1.153645983E1,-6.972765928E-1,-4.405274731E0,-2.109703766E0,4.933912249E0
1.154640383E1,-7.893449501E-1,-4.383237745E0,-2.756627135E0,5.237827005E0
1.155634783E1,-5.865156372E-1,-4.051926320E0,-3.418868746E0,5.333926415E0
1.156629083E1,-3.135159358E-1,-3.734382749E0,-3.890444350E0,5.401801921E0
1.157623483E1,-3.470709868E-2,-3.604468142E0,-4.248717286E0,5.571803455E0
1.158617883E1,1.739287917E-1,-3.624603029E0,-4.593094607E0,5.853590044E0
1.159612183E1,2.875594877E-1,-3.528704014E0,-4.719083393E0,5.899507653E0
1.160606583E1,3.619379711E-1,-3.603486979E0,-4.910194666E0,6.101321919E0
1.161600983E1,2.684496906E-1,-3.845606146E0,-5.279182041E0,6.536858181E0
1.162595383E1,2.672549582E-1,-3.999067490E0,-5.740496365E0,7.001233072E0
1.163589683E1,2.875695741E-1,-4.110277439E0,-6.118027107E0,7.376132629E0
1.164584083E1,1.452787507E-1,-3.944980745E0,-6.337895279E0,7.466786160E0
1.165578483E1,9.168843448E-2,-3.567993211E0,-6.721198976E0,7.610091852E0
1.166572783E1,1.996091051E-1,-3.452966784E0,-6.909208594E0,7.726576655E0
1.167567183E1,3.238403644E-1,-3.418164741E0,-6.749321744E0,7.572454476E0
1.168561583E1,4.901603206E-1,-3.362274131E0,-6.471616423E0,7.309375048E0
1.169555883E1,7.561881676E-1,-3.376371183E0,-6.175272517E0,7.078537530E0
1.170550283E1,9.227511486E-1,-3.377124889E0,-5.593373988E0,6.598657042E0
1.171544683E1,1.136000054E0,-3.294161085E0,-4.978532830E0,6.076823390E0
1.172539083E1,1.114665245E0,-3.289700829E0,-4.320088985E0,5.543264290E0
1.173533383E1,8.912929823E-1,-3.223668222E0,-3.470040946E0,4.819504555E0
1.174527783E1,7.352499461E-1,-2.989373800E0,-2.601246150E0,4.030313850E0
1.175522183E1,5.270248957E-1,-2.717351387E0,-2.004913768E0,3.417811145E0
1.176516483E1,2.469851466E-1,-2.557830573E0,-1.429129380E0,2.940392778E0
1.177510883E1,-4.267305292E-2,-2.392443833E0,-9.604165730E-1,2.578373223E0
1.178505283E1,-3.588662095E-1,-2.170044985E0,-7.841032867E-1,2.335101317E0
1.179499683E1,-4.072563044E-1,-1.866516606E0,-9.688295469E-1,2.142048699E0
1.180493983E1,-3.319633895E-1,-1.469017623E0,-1.278858569E0,1.975776229E0
1.181488383E1,-9.615621887E-2,-1.192525599E0,-1.560507398E0,1.966353647E0
1.182482783E1,2.866851828E-1,-8.210087192E-1,-1.475411553E0,1.712624583E0
1.183477083E1,5.858494931E-1,-2.980185485E-1,-9.855984843E-1,1.184668332E0
1.184471483E1,6.573393059E-1,1.894339997E-1,-3.476660872E-1,7.673668689E-1
1.185465883E1,6.549480870E-1,7.728779483E-1,1.127669891E-1,1.019320221E0
1.186460183E1,3.409020281E-1,1.165338385E0,3.866272545E-1,1.274248162E0
1.187454583E1,1.676446429E-1,1.595870043E0,6.473522615E-1,1.730309473E0
1.188448983E1,9.743770927E-2,2.138594567E0,6.735127044E-1,2.244259386E0
1.189443383E1,-1.213320271E-1,2.323367751E0,9.939108860E-1,2.529944271E0
1.190437683E1,-2.880586937E-1,2.272599885E0,1.392827818E0,2.680980675E0
1.191432083E1,-1.203389324E-1,2.708620325E0,1.779941561E0,3.243346649E0
1.192426483E1,1.412769163E-1,3.174565644E0,2.061510138E0,3.787829226E0
1.193420783E1,3.080099782E-1,3.487899220E0,2.675319262E0,4.406545616E0
1.194415183E1,3.705795711E-1,3.742977571E0,2.906377836E0,4.753340135E0
1.195409583E1,2.948186597E-1,3.825113409E0,2.741548335E0,4.715347061E0
1.196403983E1,2.433005968E-1,3.497700323E0,2.256117754E0,4.169312899E0
1.197398283E1,3.310284197E-2,3.221460899E0,1.974492167E0,3.778561292E0
1.198392683E1,4.683736682E-2,3.221359742E0,2.113853828E0,3.853275273E0
1.199387083E1,2.393940720E-1,3.200447175E0,2.623915220E0,4.145491855E0
1.200381383E1,1.841200501E-1,3.070590456E0,2.963112785E0,4.271119679E0
1.201375783E1,-1.150372437E-1,3.012093156E0,3.296854312E0,4.467122911E0
1.202370183E1,-2.685085282E-1,3.007621205E0,3.593095015E0,4.693422411E0
1.203364483E1,-4.078438765E-1,3.076857501E0,3.885954273E0,4.973331813E0
1.204358883E1,-4.708774459E-1,3.064753180E0,4.120366517E0,5.156729376E0
1.205353283E1,-4.806045815E-1,3.243169271E0,4.428011921E0,5.509665803E0
1.206347683E1,-4.326603368E-1,3.433124843E0,4.554339554E0,5.719750862E0
1.207341983E1,-2.967543805E-1,3.266261095E0,4.652223406E0,5.692074079E0
1.208336383E1,-1.978115979E-1,2.946113175E0,4.634225676E0,5.494975876E0
1.209330783E1,-1.568129683E-1,2.651473732E0,4.603738586E0,5.315008205E0
1.210325083E1,-2.052393159E-1,2.371005601E0,4.871027092E0,5.421318629E0
1.211319483E1,-3.228803247E-1,2.264194513E0,5.229443285E0,5.707705806E0
1.212313883E1,-4.817749017E-1,2.148730130E0,5.162802569E0,5.612813786E0
1.213308283E1,-6.448265567E-1,1.810482153E0,4.847535903E0,5.214618994E0
1.214302583E1,-6.400160524E-1,1.425216131E0,4.527816584E0,4.789779179E0
1.215296983E1,-5.121073329E-1,1.088349851E0,4.285291035E0,4.450896379E0
1.216291383E1,-4.421798962E-1,7.173621440E-1,4.118249240E0,4.203582795E0
1.217285683E1,-4.779613477E-1,3.126705015E-1,3.968045672E0,4.008939554E0
1.218280083E1,-2.881475897E-1,-2.120884520E-1,3.773609380E0,3.790532719E0
1.219274483E1,-2.144063248E-1,-6.095985442E-1,3.628553408E0,3.685645166E0
1.220268883E1,-1.665149791E-1,-9.245512140E-1,3.332835154E0,3.462703041E0
1.221263183E1,-1.487280597E-1,-1.315456291E0,3.153888720E0,3.420461862E0
1.222257583E1,-2.236346929E-1,-1.605277628E0,3.073691819E0,3.474839584E0
1.223251983E1,-3.377691265E-1,-1.918066244E0,2.958795201E0,3.542250010E0
1.224246283E1,-2.717858560E-1,-2.195754608E0,2.893612195E0,3.642553690E0
1.225240683E1,-2.570117328E-1,-2.275128222E0,2.935454285E0,3.722788648E0
1.226235083E1,-2.811531320E-1,-2.429822159E0,2.813342203E0,3.727999082E0
1.227229483E1,-2.548230834E-1,-2.637035787E0,2.607921331E0,3.717545725E0
1.228223783E1,-2.972820917E-1,-2.761301984E0,2.438555560E0,3.695905641E0
1.229218183E1,-3.707951141E-1,-2.788993227E0,2.420845513E0,3.711666100E0
1.230212583E1,-3.814459636E-1,-2.769626665E0,2.335933417E0,3.643201588E0
1.231206946E1,-4.532076719E-1,-2.794465052E0,2.136341050E0,3.546601923E0
1.232201346E1,-6.753557467E-1,-2.815947137E0,2.064250728E0,3.556233223E0
1.233195746E1,-7.897174177E-1,-2.773927292E0,1.984113468E0,3.500718851E0
1.234190146E1,-7.992841204E-1,-2.762251571E0,2.036337582E0,3.523571994E0
1.235184446E1,-8.098444111E-1,-2.705908386E0,2.270069211E0,3.623672500E0
1.236178846E1,-7.637709099E-1,-2.692702450E0,2.426131396E0,3.704066149E0
1.237173246E1,-7.770034513E-1,-2.856935534E0,2.445994388E0,3.840404088E0
1.238167546E1,-8.254654670E-1,-2.943288969E0,2.303912895E0,3.827839837E0
1.239161946E1,-9.173687866E-1,-2.950010344E0,2.318792889E0,3.862761575E0
1.240156346E1,-8.696136993E-1,-3.084539573E0,2.174263752E0,3.872729687E0
1.241150646E1,-9.642065189E-1,-3.138396522E0,1.982985101E0,3.835551702E0
1.242145046E1,-9.686593929E-1,-3.337661446E0,1.557852616E0,3.808567936E0
1.243139446E1,-6.994448865E-1,-3.737200522E0,1.257554969E0,4.004664204E0
1.244133846E1,-3.803906874E-1,-3.871932065E0,1.061796183E0,4.032860787E0
1.245128146E1,-1.361972208E-1,-3.799210244E0,5.952491847E-1,3.847969562E0
1.246122546E1,-2.198642255E-1,-3.575387015E0,-7.540540069E-2,3.582934350E0
1.247116946E1,-4.107356170E-1,-3.424196144E0,-8.308674172E-1,3.547416475E0
1.248111346E1,-6.052023152E-1,-3.636312078E0,-1.505449870E0,3.981885820E0
1.249105646E1,-5.784650445E-1,-4.059346436E0,-2.025546838E0,4.573374606E0
1.250100046E1,-5.002268140E-1,-4.384989570E0,-2.557048508E0,5.100672257E0
1.251094446E1,-2.838864130E-1,-4.265665441E0,-3.253356875E0,5.372227108E0
1.252088746E1,8.126781911E-2,-3.949077305E0,-3.963944435E0,5.595951349E0
1.253083146E1,3.027409060E-1,-3.754180251E0,-4.258687958E0,5.685239181E0
1.254077546E1,5.678001617E-1,-3.953376178E0,-4.664650785E0,6.140891399E0
1.255071946E1,5.502276707E-1,-4.331786340E0,-5.042462193E0,6.670348443E0
1.256066246E1,4.342506333E-1,-4.388667469E0,-5.223299616E0,6.836068654E0
1.257060646E1,7.620120674E-1,-4.324778452E0,-5.711319344E0,7.204411128E0
1.258055046E1,9.417205395E-1,-4.160364103E0,-6.051949477E0,7.404158258E0
1.259049346E1,9.468982489E-1,-3.888955649E0,-6.081603631E0,7.280555958E0
1.260043746E1,9.355140124E-1,-3.895569434E0,-6.238805439E0,7.414400919E0
1.261038146E1,8.549795803E-1,-3.765460115E0,-6.472649626E0,7.536900765E0
1.262032546E1,8.703096642E-1,-3.344369956E0,-6.796896445E0,7.624962334E0
1.263026846E1,1.033306063E0,-2.999765471E0,-6.957113078E0,7.646419860E0
1.264021246E1,1.318397587E0,-2.597259518E0,-6.635829628E0,7.246941703E0
1.265015646E1,1.709879931E0,-2.019779729E0,-5.946099086E0,6.508401791E0
1.266009946E1,1.819190119E0,-1.496215947E0,-4.882523303E0,5.420991483E0
1.267004346E1,1.581912593E0,-1.081454229E0,-3.673290747E0,4.143073209E0
1.267998746E1,1.298945801E0,-7.472250438E-1,-2.462121009E0,2.882298618E0
1.268993146E1,1.017112492E0,-5.008619678E-1,-1.611894630E0,1.970681311E0
1.269987446E1,6.697022201E-1,-4.340563595E-1,-1.166459004E0,1.413340934E0
1.270981846E1,3.712449843E-1,-3.179973149E-1,-1.151719050E0,1.251160222E0
1.271976246E1,2.715492265E-1,-1.917933512E-1,-1.233150738E0,1.277178302E0
1.272970546E1,2.503978010E-1,-7.804863453E-3,-1.562654057E0,1.582607872E0
1.273964946E1,1.752884156E-1,4.152400196E-1,-1.484668865E0,1.551577243E0
1.274959346E1,-4.657775044E-2,6.344837093E-1,-1.044616771E0,1.223095770E0
1.275953746E1,-5.460116089E-1,8.033244002E-1,-4.094430169E-1,1.054088399E0
1.276948046E1,-5.699596846E-1,1.095691030E0,-4.617955506E-1,1.318578024E0
1.277942446E1,-4.031722435E-1,1.356194428E0,-3.857817471E-1,1.466505622E0
1.278936846E1,9.390986480E-2,1.905861935E0,-2.163387930E-1,1.920398722E0
1.279931146E1,5.154011426E-1,2.314852450E0,1.662346051E-1,2.377354443E0
1.280925546E1,5.543388114E-1,2.529339430E0,7.123230135E-1,2.685563916E0
1.281919946E1,3.381330426E-1,2.682824748E0,9.014558816E-1,2.850351784E0
1.282914346E1,5.217002749E-2,2.625094019E0,6.801153803E-1,2.712267916E0
1.283908646E1,-3.799991432E-1,2.688418779E0,1.009307190E0,2.896669792E0
1.284903046E1,-5.104212883E-1,2.956180910E0,1.685234209E0,3.440864689E0
1.285897446E1,-6.096485014E-1,3.361586498E0,2.540316993E0,4.257363680E0
1.286891746E1,-5.575764513E-1,3.748290351E0,3.108842940E0,4.901578978E0
1.287886146E1,-5.913119620E-1,3.721666809E0,2.950203887E0,4.785828731E0
1.288880546E1,-6.750949609E-1,3.309355659E0,2.431066300E0,4.161450642E0
1.289874946E1,-4.012447089E-1,3.159534207E0,1.841973795E0,3.679201161E0
1.290869246E1,-2.740429178E-1,3.000239096E0,1.695179154E0,3.456901288E0
1.291863646E1,-2.787133630E-1,2.803154014E0,2.502174728E0,3.767788733E0
1.292858046E1,-2.590418678E-1,2.791659558E0,3.123170665E0,4.196982342E0
1.293852446E1,-4.098281291E-1,2.654121351E0,3.552223270E0,4.453157240E0
1.294846746E1,-2.462981719E-1,2.583392261E0,3.344241318E0,4.233028272E0
1.295841146E1,-1.278359308E-1,2.431748232E0,2.876086335E0,3.768502898E0
1.296835546E1,-1.999122101E-1,2.157059489E0,2.864955575E0,3.591774071E0
1.297829846E1,-9.943774939E-2,2.279666830E0,3.474699131E0,4.156958356E0
1.298824246E1,1.786499798E-2,2.428728729E0,3.790093850E0,4.501539047E0
1.299818646E1,-6.070873478E-2,2.162713162E0,3.925315097E0,4.482087949E0
1.300813046E1,-4.106676796E-2,1.834051110E0,3.838117324E0,4.254006882E0
1.301807346E1,-8.396075428E-2,1.575692471E0,3.790442344E0,4.105765377E0
1.302801746E1,-1.385112381E-1,1.462635972E0,4.110803688E0,4.365454880E0
1.303796146E1,-1.699700806E-1,1.455076107E0,4.333331759E0,4.574265016E0
1.304790446E1,-2.254596089E-1,1.179175236E0,4.230308497E0,4.397362420E0
1.305784846E1,-2.210896923E-1,9.638357323E-1,4.082170165E0,4.200234902E0
1.306779246E1,-9.937836360E-2,7.887344277E-1,3.947497679E0,4.026750052E0
1.307773646E1,-1.182242686E-1,5.991080546E-1,4.022083885E0,4.068177260E0
1.308767946E1,-7.486252327E-2,4.409215754E-1,3.928722562E0,3.954096256E0
1.309762346E1,-9.398405135E-2,1.880523026E-1,3.835080573E0,3.840838407E0
1.310756746E1,-1.501693618E-1,-1.398496109E-1,3.799123705E0,3.804661572E0
1.311751146E1,-1.801322490E-1,-4.219432676E-1,3.805541024E0,3.833096168E0
1.312745446E1,-2.200737386E-1,-6.402443862E-1,3.784070048E0,3.844155493E0
1.313739846E1,-3.272111381E-1,-8.738827515E-1,3.760740827E0,3.874778673E0
1.314734246E1,-3.806107985E-1,-1.117516932E0,3.798409175E0,3.977640121E0
1.315728546E1,-4.216526610E-1,-1.311742140E0,3.870749758E0,4.108669139E0
1.316722946E1,-4.196024079E-1,-1.433295228E0,3.761099846E0,4.046760859E0
1.317717346E1,-3.506557685E-1,-1.582279944E0,3.532671350E0,3.886687042E0
1.318711746E1,-3.222842011E-1,-1.704972655E0,3.307798546E0,3.735281794E0
1.319706046E1,-3.040672007E-1,-1.848045251E0,3.140253013E0,3.656352978E0
1.320700446E1,-3.562734810E-1,-1.899501334E0,2.927593288E0,3.507967869E0
1.321694846E1,-4.155794504E-1,-1.937838019E0,2.583284672E0,3.255961020E0
1.322689146E1,-5.235883409E-1,-2.084505483E0,2.271235145E0,3.126950103E0
1.323683546E1,-6.953885999E-1,-2.256949813E0,1.915526798E0,3.040827301E0
1.324677946E1,-7.538312280E-1,-2.407650687E0,1.763363535E0,3.078066651E0
1.325672346E1,-8.152351785E-1,-2.459589749E0,1.762314545E0,3.133678778E0
1.326666646E1,-8.525485273E-1,-2.565593922E0,1.918148689E0,3.314876401E0
1.327661046E1,-6.887729871E-1,-2.549942679E0,2.001878332E0,3.314231850E0
1.328655446E1,-4.621898722E-1,-2.685365363E0,1.781580974E0,3.255585566E0
1.329649846E1,-5.543265688E-1,-2.762149245E0,1.660263090E0,3.270048918E0
1.330644537E1,-6.157842406E-1,-2.634486401E0,1.521192767E0,3.103826068E0
1.331638938E1,-6.585059716E-1,-2.650044672E0,1.342003381E0,3.042587707E0
1.332633337E1,-8.065500898E-1,-2.745361304E0,1.531704014E0,3.245558338E0
1.333627637E1,-6.078744196E-1,-2.824808593E0,1.450231981E0,3.232990519E0
1.334622038E1,-3.528934979E-1,-3.011243556E0,1.339439231E0,3.314546579E0
1.335616437E1,-2.910732257E-1,-3.085530676E0,1.164059014E0,3.310627820E0
1.336610838E1,-3.614356222E-1,-3.152142157E0,6.842689499E-1,3.245744889E0
1.337605137E1,-5.121049941E-1,-3.413998016E0,2.805119848E-1,3.463570549E0
1.338599537E1,-5.915732595E-1,-3.522309499E0,9.460064024E-2,3.572894123E0
1.339593938E1,-4.640837853E-1,-3.582418876E0,-3.558103815E-1,3.629834678E0
1.340588337E1,-2.462790222E-1,-3.772636403E0,-7.673988149E-1,3.857763565E0
1.341582638E1,-1.162642819E-1,-4.078291415E0,-1.323133686E0,4.289132896E0
1.342577037E1,1.256091557E-2,-4.131536161E0,-1.887518342E0,4.542298352E0
1.343571437E1,9.742586866E-2,-4.043685254E0,-2.548122441E0,4.780565888E0
1.344565738E1,-4.202686250E-2,-3.912888887E0,-3.051825571E0,4.962469649E0
1.345560137E1,-1.424370769E-1,-3.854220264E0,-3.680209173E0,5.330970054E0
1.346554538E1,4.022884369E-3,-4.045536482E0,-4.329191930E0,5.925224416E0
1.347548937E1,2.912905960E-1,-4.345388133E0,-4.810067530E0,6.488759349E0
1.348543237E1,5.880448303E-1,-4.437176555E0,-5.334534123E0,6.963590081E0
1.349537638E1,5.933575373E-1,-4.353811632E0,-5.715746856E0,7.209543051E0
1.350532037E1,5.848972741E-1,-4.152161629E0,-5.968098650E0,7.293884597E0
1.351526438E1,5.845553581E-1,-4.094125675E0,-6.121481057E0,7.387563897E0
1.352520737E1,5.176659154E-1,-4.204294235E0,-6.198908132E0,7.508031036E0
1.353515137E1,5.871536415E-1,-4.097511213E0,-6.246267071E0,7.493343703E0
1.354509538E1,7.039727511E-1,-3.853616831E0,-6.281804693E0,7.403175705E0
1.355503837E1,8.184375523E-1,-3.619811236E0,-6.194022784E0,7.220719608E0
1.356498238E1,8.744582637E-1,-3.380673564E0,-6.010528970E0,6.951265317E0
1.357492637E1,7.758788855E-1,-3.051559523E0,-5.417962781E0,6.266444307E0
1.358487037E1,6.160748472E-1,-2.582492375E0,-4.701003217E0,5.398911588E0
1.359481338E1,3.864821704E-1,-2.167185697E0,-3.813026337E0,4.402866358E0
1.360475737E1,4.004355273E-1,-1.812525755E0,-2.934025518E0,3.471902067E0
1.361470138E1,5.425853598E-1,-1.531416185E0,-2.010349925E0,2.584790364E0
1.362464537E1,6.893357816E-1,-1.414377732E0,-1.270948163E0,2.022611535E0
1.363458837E1,7.294218070E-1,-1.250235279E0,-9.004691640E-1,1.704696202E0
1.364453238E1,5.181331810E-1,-9.972981781E-1,-8.817718148E-1,1.428491226E0
1.365447637E1,1.947548928E-1,-6.252041781E-1,-1.035697136E0,1.225348232E0
1.366442038E1,-1.194255059E-1,-3.587828135E-1,-9.601014081E-1,1.031882877E0
1.367436337E1,-1.884590495E-1,-2.362029541E-1,-9.769957682E-1,1.022657998E0
1.368430737E1,-1.137868166E-1,-1.611059940E-1,-1.111342857E0,1.128709673E0
1.369425138E1,1.248789116E-1,-5.917616129E-2,-1.275317349E0,1.282782484E0
1.370419437E1,2.498020428E-1,1.585694718E-1,-1.372551867E0,1.404081182E0
1.371413838E1,1.220903745E-1,4.823397428E-1,-1.045421201E0,1.157783734E0
1.372408237E1,4.290920734E-2,9.713552517E-1,-3.608293390E-1,1.037096927E0
1.373402637E1,2.822242688E-1,1.375021877E0,-3.230211695E-1,1.440374388E0
1.374396938E1,3.316609423E-1,1.504723061E0,-4.015398837E-1,1.592301714E0
1.375391337E1,4.546764924E-1,1.707675238E0,-2.212866704E-1,1.780969742E0
1.376385738E1,5.728303020E-1,2.146377795E0,5.523607349E-1,2.289142760E0
1.377380137E1,5.598384101E-1,2.751379843E0,1.431509489E0,3.151623313E0
1.378374437E1,5.446657991E-1,3.217989407E0,2.011927503E0,3.834053851E0
1.379368838E1,1.826909540E-1,3.053562779E0,1.995712005E0,3.652463283E0
1.380363237E1,-8.097224236E-2,2.862311465E0,1.603555623E0,3.281885748E0
1.381357638E1,3.246624830E-1,2.734490161E0,6.767940887E-1,2.835646735E0
1.382351937E1,6.707396623E-1,2.525672057E0,1.493478280E-1,2.617482723E0
1.383346337E1,3.492064996E-1,2.496077544E0,1.134198380E0,2.763829635E0
1.384340738E1,4.852963508E-1,2.820416164E0,2.187804149E0,3.602325205E0
1.385335037E1,3.102730700E-1,2.986974102E0,3.007942802E0,4.250412164E0
1.386329438E1,1.529758061E-1,3.162791691E0,2.897986497E0,4.292432715E0
1.387323837E1,1.429176815E-1,3.079751873E0,2.135087553E0,3.750186118E0
1.388318237E1,1.998738743E-1,2.646518217E0,1.336731824E0,2.971676329E0
1.389312538E1,1.061354791E-1,2.293416558E0,1.674663759E0,2.841746462E0
1.390306937E1,2.512311388E-1,2.549582491E0,2.923869781E0,3.887480220E0
1.391301338E1,3.049153394E-1,2.852180579E0,3.811466593E0,4.770239512E0
1.392295737E1,-2.388953045E-4,2.803959761E0,4.041014538E0,4.918535239E0
1.393290037E1,2.366422992E-2,2.805152008E0,3.605503099E0,4.568269955E0
1.394284438E1,-7.475698102E-2,2.630582215E0,3.403249079E0,4.302052497E0
1.395278837E1,-1.599061453E-1,2.580709559E0,3.926732170E0,4.701580302E0
1.396273238E1,-5.261558533E-2,2.895864542E0,4.421139396E0,5.285382995E0
1.397267537E1,-5.223142326E-2,2.741032611E0,4.686650934E0,5.429611853E0
1.398261937E1,-1.171188524E-1,2.428422335E0,4.768716606E0,5.352719863E0
1.399256338E1,-1.400089841E-1,2.333961736E0,4.659842328E0,5.213550654E0
1.400250637E1,-2.587512063E-1,2.075548718E0,4.491743064E0,4.954857255E0
1.401245038E1,-4.074977579E-1,1.827722669E0,4.413946736E0,4.794741950E0
1.402239437E1,-4.008671980E-1,1.739510404E0,4.192754170E0,4.556948374E0
1.403233837E1,-4.033821951E-1,1.470126840E0,3.912721657E0,4.199211936E0
1.404228138E1,-3.568356907E-1,1.057497017E0,3.598871187E0,3.767957732E0
1.405222537E1,-2.669622320E-1,6.389153141E-1,3.304972587E0,3.376732949E0
1.406216938E1,-2.091005613E-1,2.800295895E-1,3.153258390E0,3.172566484E0
1.407211337E1,-1.217800335E-1,3.573525846E-2,3.214361502E0,3.216866060E0
1.408205637E1,-5.358267825E-2,-2.725550938E-1,3.340547047E0,3.352075768E0
1.409200038E1,-9.469887346E-2,-5.162003839E-1,3.397577865E0,3.437872316E0
1.410194437E1,-1.156988561E-1,-7.333683121E-1,3.258857936E0,3.342359997E0
1.411188838E1,-1.519097856E-1,-1.155717376E0,3.094702034E0,3.306953268E0
1.412183137E1,-2.633489816E-1,-1.461157211E0,3.086278535E0,3.424828211E0
1.413177537E1,-3.210317275E-1,-1.610935979E0,3.097024548E0,3.505672139E0
1.414171938E1,-3.693501209E-1,-1.798237499E0,3.075112692E0,3.581395773E0
1.415166237E1,-4.168444955E-1,-2.036537265E0,2.981109930E0,3.634316961E0
1.416160638E1,-4.625329210E-1,-2.304309921E0,2.879074847E0,3.716564662E0
1.417155037E1,-5.138023677E-1,-2.457899319E0,2.713476437E0,3.697055086E0
1.418149437E1,-5.095968674E-1,-2.634491664E0,2.529167522E0,3.687400663E0
1.419143738E1,-5.280825108E-1,-2.799307716E0,2.462112823E0,3.765234970E0
1.420138137E1,-5.676757987E-1,-2.885517309E0,2.473070505E0,3.842465833E0
1.421132538E1,-5.862856954E-1,-2.907689366E0,2.658951151E0,3.983517239E0
1.422126937E1,-5.209509543E-1,-3.000250205E0,2.692589014E0,4.064840315E0
1.423121237E1,-5.780948427E-1,-3.147273765E0,2.652304037E0,4.156229361E0
1.424115638E1,-7.088208237E-1,-3.333012909E0,2.499730300E0,4.226115662E0
1.425110037E1,-8.934756017E-1,-3.282373683E0,2.382528855E0,4.153157761E0
1.426104438E1,-9.598876923E-1,-3.086881968E0,2.198319197E0,3.909326279E0
1.427098737E1,-9.841662088E-1,-3.167723817E0,2.049223530E0,3.899022234E0
1.428093137E1,-1.054889159E0,-3.235017668E0,1.927511251E0,3.910681536E0
1.429087538E1,-8.696367958E-1,-3.155487934E0,1.744364762E0,3.708932553E0
1.430081937E1,-4.913151457E-1,-3.129564303E0,1.409220780E0,3.467198654E0
1.431075783E1,-4.648226541E-1,-3.272927506E0,1.221151228E0,3.524106253E0
1.432070183E1,-4.174313367E-1,-3.275586820E0,1.245574171E0,3.529188710E0
1.433064583E1,-3.126513518E-1,-3.130254859E0,9.770796758E-1,3.294075143E0
1.434058983E1,-3.933764762E-1,-3.303524816E0,4.749462309E-1,3.360594469E0
1.435053283E1,-4.820035279E-1,-3.553786815E0,-2.993400192E-1,3.598795990E0
1.436047683E1,-4.133591165E-1,-3.625913390E0,-1.276736614E0,3.866286339E0
1.437042083E1,-2.725856455E-1,-3.511217331E0,-1.820936975E0,3.964689338E0
1.438036383E1,-2.374135470E-1,-3.214472891E0,-2.108437259E0,3.851585237E0
1.439030783E1,-3.608755320E-2,-3.047305089E0,-2.598945855E0,4.005232849E0
1.440025183E1,1.165632208E-1,-3.010061249E0,-3.123044950E0,4.339062740E0
1.441019583E1,2.329157225E-1,-2.943999406E0,-3.570117504E0,4.633262482E0
1.442013883E1,3.857393548E-1,-2.813446283E0,-3.943963330E0,4.859950780E0
1.443008283E1,5.577107911E-1,-2.867174009E0,-4.122640792E0,5.052513753E0
1.444002683E1,5.607823335E-1,-3.148234463E0,-4.411982072E0,5.448985489E0
1.444997083E1,5.213622328E-1,-3.245786485E0,-4.795921069E0,5.814448158E0
1.445991383E1,4.312339085E-1,-3.008550913E0,-5.164549717E0,5.992488219E0
1.446985783E1,3.305585229E-1,-2.839047148E0,-5.601728489E0,6.288785233E0
1.447980183E1,5.573374464E-1,-2.661580644E0,-6.034570382E0,6.618963382E0
1.448974583E1,9.429409996E-1,-2.369728569E0,-6.235166717E0,6.736620459E0
1.449968883E1,1.119983872E0,-2.009357652E0,-6.245718602E0,6.655890842E0
1.450963283E1,1.287831998E0,-1.697350810E0,-6.327307141E0,6.676400728E0
1.451957683E1,1.300809747E0,-1.509596715E0,-6.279520186E0,6.588122799E0
1.452952083E1,1.372872295E0,-1.347898983E0,-6.164087963E0,6.457367143E0
1.453946383E1,1.572487905E0,-1.204553322E0,-5.905804753E0,6.229140928E0
1.454940783E1,1.623839030E0,-1.216670507E0,-5.314971678E0,5.689118056E0
1.455935183E1,1.435022788E0,-1.480910275E0,-4.687235363E0,5.120796910E0
1.456929583E1,1.071944756E0,-1.781718530E0,-3.971133294E0,4.482575836E0
1.457923883E1,7.908729737E-1,-1.939478747E0,-3.405378343E0,3.997956919E0
1.458918283E1,5.758805021E-1,-2.058119338E0,-3.044207526E0,3.719501717E0
1.459912683E1,4.082009952E-1,-2.101537253E0,-2.660932480E0,3.415208419E0
1.460906983E1,2.891742694E-1,-2.039036365E0,-2.342326616E0,3.118939729E0
1.461901383E1,2.086510932E-1,-1.877190113E0,-2.038047454E0,2.778671522E0
1.462895783E1,1.017988551E-1,-1.712848855E0,-1.808820959E0,2.493200246E0
1.463890183E1,-4.171250157E-2,-1.619285218E0,-1.728314302E0,2.368732757E0
1.464884483E1,3.093381733E-2,-1.296678543E0,-1.686306589E0,2.127430858E0
1.465878883E1,1.104061758E-1,-7.469157261E-1,-1.528291287E0,1.704625144E0
1.466873283E1,1.792243957E-1,-5.009923607E-1,-1.448079329E0,1.542740572E0
1.467867683E1,3.367375680E-1,-2.228350496E-1,-1.260771961E0,1.323855576E0
1.468861983E1,5.133188760E-1,4.595736086E-2,-1.151209173E0,1.261305240E0
1.469856383E1,3.722611573E-1,2.261901820E-1,-6.004739277E-1,7.418283531E-1
1.470850783E1,2.542231956E-1,6.001605535E-1,5.611222029E-2,6.541946991E-1
1.471845183E1,2.707637262E-1,1.034018692E0,5.295039690E-1,1.192846220E0
1.472839483E1,3.619894266E-2,1.111080902E0,7.610969782E-1,1.347248954E0
1.473833883E1,-2.358947327E-1,1.141599859E0,9.496381811E-1,1.503565508E0
1.474828283E1,-4.281535222E-1,1.272772202E0,1.179244306E0,1.787143433E0
1.475822683E1,-5.094468498E-1,1.640152177E0,1.203635309E0,2.097229890E0
1.476816983E1,-7.432889906E-1,2.038352240E0,1.897719103E0,2.882480906E0
1.477811383E1,-6.210257578E-1,2.372683752E0,2.446111917E0,3.463923309E0
1.478805783E1,-5.842330304E-1,2.493278482E0,2.655425280E0,3.689044489E0
1.479800183E1,-3.133668683E-1,2.372582595E0,2.675407555E0,3.589589468E0
1.480794483E1,-1.796957726E-1,2.505909637E0,2.663107352E0,3.661149335E0
1.481788883E1,-1.946137556E-1,2.642488900E0,2.806651819E0,3.859781928E0
1.482783283E1,-1.976440752E-1,2.913164114E0,3.659783387E0,4.681837542E0
1.483777683E1,-2.205514196E-1,3.360225266E0,4.523203715E0,5.639071609E0
1.484771983E1,-3.382272193E-1,3.715443617E0,4.698280754E0,5.999396717E0
1.485766383E1,-4.324738106E-1,3.566883409E0,4.218136933E0,5.540971940E0
1.486760783E1,-5.673655674E-1,3.165665013E0,3.854571389E0,5.020065662E0
1.487755183E1,-3.975258797E-1,2.983620139E0,3.466191432E0,4.590697006E0
1.488749483E1,-6.533380562E-1,2.967712789E0,4.295533603E0,5.261727734E0
1.489743883E1,-7.773186162E-1,3.179731659E0,4.973387865E0,5.953948649E0
1.490738283E1,-8.944509172E-1,3.064316393E0,5.152126722E0,6.060898214E0
1.491732683E1,-9.567693722E-1,2.698632696E0,5.231212068E0,5.963522932E0
1.492726983E1,-9.477652448E-1,2.525718250E0,5.180290421E0,5.840626720E0
1.493721383E1,-9.991967690E-1,2.316335889E0,5.301019052E0,5.870656618E0
1.494715783E1,-7.864332560E-1,2.284453946E0,5.376484387E0,5.894386436E0
1.495710183E1,-4.556068575E-1,2.119586438E0,5.358286682E0,5.780264738E0
1.496704483E1,-3.095448723E-1,1.747618153E0,5.249592791E0,5.541499048E0
1.497698883E1,-3.068870205E-1,1.353396535E0,4.997664335E0,5.186763020E0
1.498693283E1,-2.679422436E-1,8.357723540E-1,4.634302859E0,4.716680131E0
1.499687683E1,-2.061398420E-1,2.956100804E-1,4.205481219E0,4.220894602E0
1.500681983E1,-2.867837449E-1,-2.002110028E-1,3.831027575E0,3.846960053E0
1.501676383E1,-4.078673019E-1,-6.511845267E-1,3.485951220E0,3.569629243E0
1.502670783E1,-4.668794853E-1,-1.056832189E0,3.214338113E0,3.415675663E0
1.503665083E1,-4.875078774E-1,-1.357618809E0,3.213314850E0,3.522241486E0
1.504659483E1,-4.582199782E-1,-1.461857708E0,3.276624700E0,3.617079337E0
1.505653883E1,-3.844018408E-1,-1.515377857E0,3.259518671E0,3.615051423E0
1.506648283E1,-2.716917524E-1,-1.650547357E0,3.090463387E0,3.514126767E0
1.507642583E1,-2.531902850E-1,-1.801495568E0,2.932869816E0,3.451263096E0
1.508636983E1,-3.255884627E-1,-1.954116082E0,2.806885707E0,3.435576354E0
1.509631383E1,-4.691841654E-1,-2.094457444E0,2.681771665E0,3.434935957E0
1.510625783E1,-5.942714571E-1,-2.157070599E0,2.493214163E0,3.349959551E0
1.511620083E1,-5.536197136E-1,-2.250042497E0,2.288245865E0,3.256571075E0
1.512614483E1,-4.447144450E-1,-2.463096909E0,2.133042051E0,3.288538537E0
1.513608883E1,-4.698238508E-1,-2.635404999E0,1.986268752E0,3.333370293E0
1.514603283E1,-5.801239727E-1,-2.711170295E0,1.893541267E0,3.357452416E0
1.515597583E1,-6.451630640E-1,-2.760978048E0,1.898602617E0,3.412319894E0
1.516591983E1,-5.994623959E-1,-2.670005897E0,2.019310198E0,3.400867585E0
1.517586383E1,-4.109181232E-1,-2.722770002E0,2.062228761E0,3.440220581E0
1.518580783E1,-4.014470956E-1,-2.784302006E0,2.119985364E0,3.522475746E0
1.519575083E1,-3.273941559E-1,-2.830900222E0,2.063509447E0,3.518416439E0
1.520569483E1,-2.804920312E-1,-2.830538279E0,1.947964665E0,3.447490256E0
1.521563883E1,-3.740167107E-1,-2.923151743E0,1.714829599E0,3.409596042E0
1.522558283E1,-6.412438215E-1,-3.247259983E0,1.498094949E0,3.633205130E0
1.523552583E1,-8.973023850E-1,-3.440427430E0,1.381235421E0,3.814381177E0
1.524546983E1,-8.359490130E-1,-3.314502379E0,1.072419404E0,3.582571723E0
1.525541383E1,-5.128273445E-1,-3.498677393E0,5.918884975E-1,3.585256947E0
1.526535783E1,-2.530391344E-1,-3.611615778E0,4.953655851E-1,3.654200924E0
1.527530083E1,-2.121686319E-1,-3.429374439E0,3.218614474E-1,3.450973683E0
1.528524483E1,-3.490300964E-1,-3.505229198E0,-3.896979198E-1,3.544053922E0
1.529518883E1,-4.210157530E-1,-3.977916357E0,-1.087546443E0,4.145338355E0
1.530513283E1,-1.970302637E-1,-4.321656039E0,-1.993805228E0,4.763485187E0
1.531507600E1,3.189305305E-2,-3.998875117E0,-2.528249509E0,4.731180080E0
1.532502000E1,3.057735644E-1,-3.918515663E0,-3.012719100E0,4.952245839E0
1.533496400E1,6.231680314E-1,-4.276311466E0,-3.758316279E0,5.727138850E0
1.534490800E1,6.272425175E-1,-4.589988273E0,-4.142544129E0,6.214667922E0
1.535485100E1,6.344571045E-1,-4.547771376E0,-4.298947792E0,6.290128173E0
1.536479500E1,7.293166302E-1,-4.442330875E0,-4.691904657E0,6.502320791E0
1.537473900E1,7.105403437E-1,-4.441015837E0,-4.905293530E0,6.655027713E0
1.538468300E1,5.308508751E-1,-4.387185785E0,-4.944880350E0,6.631820522E0
1.539462600E1,4.768800513E-1,-4.480278136E0,-5.026025085E0,6.749906289E0
1.540457000E1,6.094574802E-1,-4.573266991E0,-5.288302528E0,7.018002067E0
1.541451400E1,6.878138244E-1,-4.556234052E0,-5.552820039E0,7.215688947E0
1.542445800E1,6.046636404E-1,-4.474136220E0,-5.733823523E0,7.297961717E0
1.543440100E1,6.174656805E-1,-4.183831903E0,-5.707850776E0,7.103891450E0
1.544434500E1,8.308786730E-1,-3.651552261E0,-5.325195535E0,6.510138306E0
1.545428900E1,1.034218082E0,-3.138178421E0,-4.687826225E0,5.735284261E0
1.546423300E1,1.132520010E0,-2.691997275E0,-4.053385785E0,4.995937072E0
1.547417600E1,1.217000874E0,-2.215798863E0,-3.570768299E0,4.375070511E0
1.548412000E1,1.189685460E0,-1.673639181E0,-3.078917183E0,3.700831072E0
1.549406400E1,1.076014418E0,-1.361124215E0,-2.627072424E0,3.148329030E0
1.550400800E1,9.575863744E-1,-1.094597601E0,-2.254352187E0,2.682763381E0
1.551395100E1,7.816573964E-1,-8.219126987E-1,-1.908982302E0,2.220527459E0
1.552389500E1,5.704235150E-1,-6.688349319E-1,-1.610495391E0,1.834780248E0
1.553383900E1,3.239797474E-1,-5.895420098E-1,-1.505611545E0,1.649056937E0
1.554378300E1,2.420761898E-1,-5.334894311E-1,-1.419699283E0,1.535824830E0
1.555372600E1,-1.560950764E-2,-2.467606866E-1,-1.154574684E0,1.180752809E0
1.556367000E1,-3.458059417E-1,1.307291240E-1,-7.716139264E-1,8.556049933E-1
1.557361400E1,-3.020977123E-1,4.480966938E-1,-4.521474986E-1,7.046211998E-1
1.558355800E1,-3.212031971E-1,7.903850967E-1,-1.897653906E-1,8.740085802E-1
1.559350100E1,-3.974488427E-1,1.040139558E0,-9.351663955E-2,1.117408271E0
1.560344500E1,-3.143314031E-1,1.138906631E0,-4.807744431E-1,1.275561293E0
1.561338900E1,8.917442411E-2,1.320695397E0,-7.826217484E-1,1.537753299E0
1.562333300E1,2.811969861E-1,1.293887667E0,-7.430746901E-1,1.518346810E0
1.563327700E1,2.470638648E-1,1.455597094E0,4.736712456E-2,1.477175378E0
1.564322000E1,1.712441888E-1,1.973556905E0,1.078569798E0,2.255562954E0
1.565316400E1,5.945156515E-3,2.392851384E0,1.768640063E0,2.975543776E0
1.566310800E1,-8.698405713E-2,2.374783487E0,1.678454947E0,2.909359697E0
1.567305200E1,-1.341175854E-2,2.149277430E0,9.561402118E-1,2.352398234E0
1.568299500E1,1.837577420E-1,1.986295649E0,2.192383542E-1,2.006789169E0
1.569293900E1,2.301185607E-1,2.313481863E0,1.042008839E0,2.547731404E0
1.570288300E1,6.099381944E-1,2.929442763E0,1.698790248E0,3.440864398E0
1.571282700E1,3.182852172E-1,2.871430782E0,2.288426983E0,3.685555354E0
1.572277000E1,3.221874297E-2,2.797524315E0,2.635669293E0,3.843687417E0
1.573271400E1,-4.307643771E-2,3.058186757E0,2.286686413E0,3.818808266E0
1.574265800E1,-1.304376768E-1,2.847623844E0,1.638399035E0,3.287906164E0
1.575260200E1,-3.090800552E-1,2.625542500E0,2.125039405E0,3.391872104E0
1.576254500E1,6.436995059E-2,3.142322928E0,2.871337227E0,4.257101636E0
1.577248900E1,1.441827266E-1,3.366171885E0,3.477022522E0,4.841651313E0
1.578243300E1,-1.258285360E-1,3.172974032E0,3.655097720E0,4.841831923E0
1.579237700E1,-2.739391663E-1,3.137130600E0,3.336230340E0,4.587707919E0
1.580232000E1,-3.092227273E-1,3.011533577E0,2.912826438E0,4.201132114E0
1.581226400E1,-3.789934221E-1,2.670311122E0,2.964678669E0,4.007931775E0
1.582220800E1,-2.715789011E-1,2.680527377E0,3.467582484E0,4.391253853E0
1.583215200E1,-1.668429896E-1,2.729592533E0,3.656200798E0,4.565776632E0
1.584209500E1,-2.929224077E-1,2.523485198E0,3.708238093E0,4.494976178E0
1.585203900E1,-3.148804566E-1,2.415404094E0,3.706056789E0,4.434882588E0
1.586198300E1,-3.616260222E-1,2.364923912E0,3.782966971E0,4.475989007E0
1.587192700E1,-4.297835067E-1,2.272011656E0,4.027017181E0,4.643664308E0
1.588187000E1,-4.130897060E-1,2.208403890E0,4.209245072E0,4.771313752E0
1.589181400E1,-3.501102233E-1,2.062449785E0,4.138404300E0,4.637096768E0
1.590175800E1,-4.044764650E-1,1.771892284E0,4.045478010E0,4.434985435E0
1.591170200E1,-3.120658994E-1,1.452897434E0,4.001423918E0,4.268452817E0
1.592164500E1,-1.710021141E-1,1.155271819E0,4.010852553E0,4.177419407E0
1.593158900E1,-7.399651408E-2,8.129974490E-1,3.944320010E0,4.027915177E0
1.594153300E1,2.331752658E-2,3.981310666E-1,3.814148126E0,3.834941718E0
1.595147700E1,6.909651082E-2,2.957521677E-2,3.627689774E0,3.628468288E0
1.596142000E1,3.557040352E-2,-2.933045232E-1,3.526184449E0,3.538540598E0
1.597136400E1,3.059232166E-2,-6.015475130E-1,3.561533207E0,3.612106599E0
1.598130800E1,1.040274482E-2,-7.598678935E-1,3.581778606E0,3.661508626E0
1.599125200E1,5.846716812E-2,-9.980945688E-1,3.555571970E0,3.693467641E0
1.600119500E1,1.071879048E-1,-1.273205481E0,3.428755803E0,3.659085651E0
1.601113900E1,1.434394724E-1,-1.472156408E0,3.293558822E0,3.610449984E0
1.602108300E1,1.346891325E-1,-1.537380930E0,3.134005848E0,3.493375723E0
1.603102700E1,1.423360846E-1,-1.762917393E0,2.948854934E0,3.438587314E0
1.604097000E1,4.977849802E-2,-1.999429080E0,2.821075730E0,3.458129960E0
1.605091400E1,-5.675482929E-2,-2.123804619E0,2.718543634E0,3.450253130E0
1.606085800E1,-1.070402626E-1,-2.218799654E0,2.581871985E0,3.405964250E0
1.607080200E1,-1.408114779E-1,-2.322139251E0,2.289365022E0,3.263947116E0
1.608074500E1,-2.660986165E-1,-2.458969944E0,2.106552994E0,3.248831663E0
1.609068900E1,-2.690914956E-1,-2.501421314E0,2.073194629E0,3.260008404E0
1.610063300E1,-2.336308004E-1,-2.451979598E0,2.140466845E0,3.263186420E0
