"Time (s)","Linear Acceleration x (m/s^2)","Linear Acceleration y (m/s^2)","Linear Acceleration z (m/s^2)","Absolute acceleration (m/s^2)"
8.266666671E-3,1.669750088E-2,2.103477816E-2,-2.366543591E-2,3.579554839E-2
1.821066660E-2,1.136258354E-2,2.518277924E-2,-4.791442394E-2,5.530888443E-2
2.815466665E-2,3.901061285E-3,6.525730211E-3,-4.252446055E-2,4.319876363E-2
3.809766658E-2,-5.123750623E-3,-9.339008387E-4,-1.543021739E-2,1.628547205E-2
4.804166663E-2,-1.958822725E-2,4.645448383E-3,-2.800406992E-2,3.448922687E-2
5.798566667E-2,-2.744208855E-2,-4.242616338E-3,-2.396130502E-2,3.667713396E-2
6.792966661E-2,-1.988166612E-2,-1.230202097E-2,-3.683336556E-2,4.362702357E-2
7.787366665E-2,3.795190137E-3,1.230539225E-2,-2.949686408E-2,3.218526273E-2
8.781666658E-2,8.832593830E-3,1.210511598E-2,-2.635398567E-2,3.031635049E-2
9.776066663E-2,1.506636526E-2,1.354243924E-2,-3.353845954E-2,3.918190004E-2
1.077046666E-1,2.036712206E-2,1.733068581E-2,-2.799939215E-2,3.871870727E-2
1.176486666E-1,1.014528461E-3,1.778792894E-2,-2.201067388E-2,2.831800573E-2
1.275926667E-1,2.861755248E-4,9.695629156E-3,-2.320818365E-2,2.515366592E-2
1.375356666E-1,-1.135684596E-3,4.882383957E-3,-3.024355352E-2,3.065615733E-2
1.474796666E-1,-2.089240302E-2,-2.118871068E-3,-3.653106451E-2,4.213669177E-2
1.574236666E-1,-1.768111219E-2,-3.486827170E-3,-4.042238653E-2,4.425775666E-2
1.673676666E-1,-2.836054908E-3,7.756619356E-3,-2.051378667E-2,2.211388240E-2
1.773116667E-1,1.528507853E-3,1.999542187E-2,-2.425600469E-2,3.147232110E-2
1.872556666E-1,2.260900849E-2,1.902495766E-2,-2.799822271E-2,4.070647066E-2
1.971986666E-1,2.378990851E-2,1.751988435E-2,-2.276028693E-2,3.729526452E-2
2.071389583E-1,6.472712411E-3,1.786121557E-2,-2.859873176E-2,3.433375140E-2
2.170829583E-1,5.883578025E-4,9.659778415E-3,-2.665336311E-2,2.835593851E-2
2.270269583E-1,-1.097813825E-2,1.250134706E-3,-3.443717659E-2,3.616630320E-2
2.369709583E-1,-1.167768451E-2,-3.752213102E-3,-2.126632333E-2,2.455002906E-2
2.469139583E-1,-1.307388998E-2,3.971561347E-3,-3.503768563E-2,3.760770284E-2
2.568579583E-1,-8.854283346E-3,9.503561826E-3,-2.605577767E-2,2.911390683E-2
2.668019583E-1,6.384245865E-4,9.623247022E-3,-1.901982307E-2,2.132529341E-2
2.767459583E-1,1.094312805E-2,1.904271858E-2,-4.207247078E-2,4.746019364E-2
2.866899583E-1,1.914711879E-2,1.512278175E-2,-2.860107064E-2,3.759430712E-2
2.966329582E-1,8.310720697E-3,1.345870986E-2,-4.057733774E-2,4.355140971E-2
3.065769583E-1,-7.341910154E-5,6.394880489E-3,-2.381220102E-2,2.465605006E-2
3.165209583E-1,-8.803439979E-4,-4.617884243E-4,-2.650659800E-2,2.652523311E-2
3.264649583E-1,-3.169791137E-2,-8.315466992E-3,-2.590784311E-2,4.177464436E-2
3.364089583E-1,-4.883540609E-2,-3.519499857E-2,-4.432072520E-2,7.475233438E-2
3.463529582E-1,-7.306529017E-2,-5.771925442E-2,-3.159776866E-2,9.832836795E-2
3.562959583E-1,-7.302572097E-2,-2.640989510E-2,-2.171831310E-2,8.063450630E-2
3.662399583E-1,-3.912185613E-2,1.324118430E-2,9.868345857E-3,4.246448915E-2
3.761839583E-1,1.846327778E-2,2.143050218E-2,-5.314943612E-2,6.020815235E-2
3.861279583E-1,8.032958767E-2,3.562946954E-2,-2.336255014E-2,9.092915102E-2
3.960719582E-1,9.668535534E-2,6.909909639E-2,-5.165371835E-2,1.295795110E-1
4.060149583E-1,8.633803116E-2,8.474278282E-2,4.778344631E-3,1.210719928E-1
4.159589583E-1,5.031688040E-2,5.587468172E-2,-2.261644542E-2,7.851924677E-2
4.259029583E-1,-9.230286721E-4,-3.821977694E-3,-4.446982920E-2,4.464331086E-2
4.358469583E-1,-4.550323321E-2,-3.777400440E-2,-4.042647958E-2,7.163602370E-2
4.457909582E-1,-8.630863977E-2,-4.327521564E-2,-1.168566048E-2,9.725471838E-2
4.557349583E-1,-1.013506386E-1,-4.670178907E-2,-1.617807627E-2,1.127596523E-1
4.656779583E-1,-6.736980977E-2,-5.038495478E-2,-3.713391244E-2,9.195793815E-2
4.756219583E-1,-1.426577180E-2,-1.414054545E-2,-3.339227915E-2,3.896808409E-2
4.855659583E-1,1.970746477E-2,2.978209400E-2,-1.468060434E-2,3.861188204E-2
4.955099582E-1,6.245111369E-2,6.186483895E-2,-1.572959483E-2,8.930184798E-2
5.054539583E-1,7.953671437E-2,6.429559959E-2,-2.695683360E-2,1.057671212E-1
5.153969583E-1,6.928187669E-2,5.031055810E-2,-3.578788340E-2,9.280034102E-2
5.253409583E-1,3.554856783E-2,2.198618867E-2,-2.875309825E-2,5.073296587E-2
5.352849583E-1,-2.045557033E-2,-8.236314878E-3,-1.632893443E-2,2.743904773E-2
5.452289582E-1,-6.718336581E-2,-2.940494859E-2,-1.827664196E-2,7.557970154E-2
5.551729583E-1,-7.803344090E-2,-5.390747738E-2,-2.695917249E-2,9.860036003E-2
5.651169582E-1,-7.703992588E-2,-3.512531164E-2,-3.399512708E-2,9.123928081E-2
5.750599583E-1,-4.154752786E-2,-1.312325784E-2,-2.366777480E-2,4.958407538E-2
5.850039583E-1,7.584012290E-3,2.743647887E-2,-2.890804946E-2,4.057034556E-2
5.949479582E-1,5.221570887E-2,3.944739529E-2,-1.768256485E-2,6.778827589E-2
6.048919583E-1,7.434576645E-2,4.376937845E-2,-2.367186785E-2,8.946177287E-2
6.148359582E-1,6.073499244E-2,3.428143051E-2,-2.052957416E-2,7.270088857E-2
6.247789583E-1,1.052275892E-2,3.414451431E-2,-2.487054706E-2,4.353298087E-2
6.347229583E-1,-3.593748990E-2,-4.208930894E-3,-3.340280414E-2,4.924393976E-2
6.446669583E-1,-4.502692267E-2,-3.230350475E-2,-2.876303852E-2,6.243598777E-2
6.546109583E-1,-4.999561245E-2,-3.570953071E-2,-4.807288349E-2,7.801111443E-2
6.645549582E-1,-6.466118761E-2,-3.013274878E-2,-3.355366230E-2,7.883463697E-2
6.744979583E-1,-4.076331574E-2,-6.786698755E-3,-7.059343457E-3,4.192304283E-2
6.844419583E-1,1.403476110E-2,1.144498360E-2,-5.900132954E-2,6.171806102E-2
6.943859583E-1,5.324045168E-2,2.590914046E-2,-2.517284811E-2,6.433895816E-2
7.043299583E-1,5.215614036E-2,4.612251730E-2,-2.367537618E-2,7.353960168E-2
7.142739582E-1,5.251020754E-2,3.838649567E-2,-6.034677386E-2,8.872754962E-2
7.242179583E-1,2.563914528E-2,2.640974435E-2,2.003489971E-2,4.190748828E-2
7.341609583E-1,-6.264898712E-3,1.118258066E-2,-6.094552875E-2,6.227886110E-2
7.441049583E-1,-2.579755914E-2,-1.849154084E-2,8.764976263E-4,3.175247059E-2
7.540489583E-1,-5.743422093E-2,-4.604286726E-2,-4.238412738E-2,8.494144814E-2
7.639929582E-1,-6.870044419E-2,-3.978562474E-2,-1.259665668E-2,8.038235333E-2
7.739369583E-1,-4.937003346E-2,-2.069995654E-2,-9.602297544E-3,5.438834915E-2
7.838799583E-1,-1.552541737E-2,-7.842879491E-3,-4.283319354E-2,4.623020454E-2
7.938239583E-1,2.154549133E-2,1.714483115E-2,-7.712477446E-4,2.754538536E-2
8.037679583E-1,3.311430800E-2,3.335413063E-2,-3.909272969E-2,6.113343552E-2
8.137119582E-1,5.705291851E-2,4.152893098E-2,-1.319482684E-2,7.178990928E-2
8.236559583E-1,4.872654738E-2,4.829568068E-2,-1.918120623E-2,7.123670307E-2
8.335999583E-1,3.525666386E-2,2.754252818E-2,-3.819167376E-2,5.882369547E-2
8.435429583E-1,-2.337908680E-3,-1.089139846E-2,-7.654005289E-3,1.351562704E-2
8.534869583E-1,-3.788376303E-2,-1.392204231E-2,-3.804081559E-2,5.546265784E-2
8.634309582E-1,-4.947710146E-2,-2.051011389E-2,-1.768198013E-2,5.640302086E-2
8.733749583E-1,-6.549786936E-2,-2.912019376E-2,-2.546637833E-2,7.606900157E-2
8.833189583E-1,-3.728072324E-2,-2.232118844E-2,-3.609544694E-2,5.648866319E-2
8.932619583E-1,1.252491865E-4,1.272810940E-2,-1.633828998E-2,2.071135378E-2
9.032059583E-1,3.587016469E-2,3.864123328E-2,-3.579782367E-2,6.372831241E-2
9.131499582E-1,7.552176028E-2,6.245910793E-2,-1.139856219E-2,9.866409509E-2
9.230939583E-1,1.240330022E-1,1.011421214E-1,-2.352451801E-2,1.617631519E-1
9.330379583E-1,1.186207372E-1,8.417310870E-2,-3.954238057E-2,1.507301940E-1
9.429819583E-1,3.097400780E-2,1.309200721E-3,-6.139751852E-2,6.878050920E-2
9.529249583E-1,-7.548138709E-2,-6.834670134E-2,-3.161004782E-2,1.066203850E-1
9.628689582E-1,-1.985148535E-1,-9.639506849E-2,-1.738903463E-2,2.213651617E-1
9.728129583E-1,-2.602610305E-1,-1.452880514E-1,-3.520082295E-2,3.001391674E-1
9.827569582E-1,-2.097748915E-1,-1.512534539E-1,-1.349771261E-2,2.589696906E-1
9.927009583E-1,-9.140969588E-2,-5.383399889E-2,-3.804783225E-2,1.127007963E-1
1.002643958E0,4.373208418E-2,5.225794586E-2,-1.888943017E-2,7.071208287E-2
1.012587958E0,1.606671239E-1,1.289085659E-1,-1.934025049E-2,2.068946311E-1
1.022531958E0,2.345562685E-1,1.673501077E-1,-2.936881006E-2,2.896294678E-1
1.032475958E0,2.438011184E-1,1.577671973E-1,-4.044460595E-2,2.931982948E-1
1.042419958E0,1.597289747E-1,1.120911606E-1,-3.460440695E-2,1.981798139E-1
1.052363958E0,3.534061708E-2,4.327328331E-2,-2.068101704E-2,5.957550445E-2
1.062306958E0,-1.094257348E-1,-6.281363649E-2,-2.397066057E-2,1.284295018E-1
1.072250958E0,-1.897696481E-1,-1.316863862E-1,-2.127450943E-2,2.319621271E-1
1.082194958E0,-2.196392905E-1,-1.338006481E-1,-2.576517105E-2,2.584721946E-1
1.092138958E0,-1.795118594E-1,-1.160836395E-1,-3.564638078E-2,2.167269791E-1
1.102082958E0,-9.790168583E-2,-5.248178002E-2,-2.846483052E-2,1.146705014E-1
1.112025958E0,3.142313791E-2,2.120172073E-2,-3.131067038E-2,4.916588897E-2
1.121969958E0,1.425565703E-1,9.639109422E-2,-2.292985618E-2,1.736070191E-1
1.131913958E0,1.799459055E-1,1.309290987E-1,-2.532487571E-2,2.239738984E-1
1.141857958E0,1.672183809E-1,1.304063576E-1,-3.505288839E-2,2.149337340E-1
1.151801958E0,1.120633315E-1,7.653034103E-2,-1.843451679E-2,1.369485844E-1
1.161745958E0,1.760666982E-2,1.018595930E-2,-2.846190691E-2,3.498326363E-2
1.171688958E0,-9.159385577E-2,-4.946848596E-2,-2.860925674E-2,1.079585804E-1
1.181632958E0,-1.665177017E-1,-9.952810714E-2,-2.007407606E-2,1.950306582E-1
1.191576958E0,-1.843350814E-1,-1.166176364E-1,-2.186975598E-2,2.192199389E-1
1.201520958E0,-1.312157311E-1,-8.371453168E-2,-3.175213516E-2,1.588517831E-1
1.211465583E0,-3.929019199E-2,-3.053228720E-2,-2.756377459E-2,5.688322615E-2
1.221409583E0,4.644814325E-2,3.258822761E-2,-2.367537618E-2,6.148126566E-2
1.231352583E0,1.086971717E-1,9.073341971E-2,-3.250934958E-2,1.452738325E-1
1.241296583E0,1.560144944E-1,1.121646071E-1,-3.385596335E-2,1.951093227E-1
1.251240583E0,1.493432873E-1,1.082957603E-1,-2.322747946E-2,1.859325280E-1
1.261184583E0,8.493130985E-2,6.758844081E-2,-2.577043355E-2,1.115600285E-1
1.271128583E0,-3.875580216E-3,-1.211552676E-2,-2.097922504E-2,2.453434315E-2
1.281071583E0,-1.228792826E-1,-5.665599307E-2,-5.285999894E-2,1.452700903E-1
1.291015583E0,-1.552259426E-1,-7.897086835E-2,7.011981010E-3,1.743004853E-1
1.300959583E0,-1.230197437E-1,-8.935747851E-2,-4.313374043E-2,1.580478911E-1
1.310903583E0,-8.983158720E-2,-6.257345754E-2,-3.385362446E-2,1.145915334E-1
1.320847583E0,-4.501893757E-2,-1.463063349E-2,-2.666973531E-2,5.433263253E-2
1.330791583E0,2.210028246E-2,3.858650242E-2,-1.380001366E-2,4.655943547E-2
1.340734583E0,1.116091673E-1,8.191605605E-2,-1.245456934E-2,1.390034631E-1
1.350678583E0,1.306630595E-1,7.842143107E-2,-6.125426173E-2,1.642401917E-1
1.360622583E0,8.476901307E-2,6.346991336E-2,-7.665114999E-3,1.061742411E-1
1.370566583E0,2.844726146E-2,4.505968992E-2,-1.229084730E-3,5.330227940E-2
1.380510583E0,-1.784718225E-2,1.099257356E-2,-3.610480249E-2,4.174823769E-2
1.390453583E0,-5.709385816E-2,-4.941014171E-2,-1.110561669E-2,7.631779259E-2
1.400397583E0,-1.047935888E-1,-6.393802408E-2,-4.373775780E-2,1.303179137E-1
1.410341583E0,-9.746148186E-2,-5.195656301E-2,-1.574830592E-2,1.115626910E-1
1.420285583E0,-6.387171300E-2,-2.429209298E-2,-1.515130520E-2,6.999473946E-2
1.430229583E0,4.616376758E-4,5.748306345E-3,-3.565924466E-2,3.612253957E-2
1.440173583E0,4.598831456E-2,2.203758021E-2,-2.997282743E-2,5.915192644E-2
1.450116583E0,6.250784081E-2,5.480604367E-2,-3.461259305E-2,9.004978725E-2
1.460060583E0,7.012326362E-2,7.194163348E-2,-7.368076444E-3,1.007331091E-1
1.470004583E0,6.594212070E-2,4.879552625E-2,-2.533013821E-2,8.585442660E-2
1.479948583E0,2.279089345E-2,1.580618422E-2,-3.954881251E-2,4.830495683E-2
1.489892583E0,-2.731026124E-2,-7.560888380E-3,-2.951966822E-2,4.091977779E-2
1.499836583E0,-5.912397489E-2,-3.387916035E-2,-2.158499658E-2,7.147974531E-2
1.509779583E0,-7.326845351E-2,-4.913928771E-2,-2.862036645E-2,9.274729782E-2
1.519723583E0,-5.985028130E-2,-3.884224502E-2,-3.984702051E-2,8.172246456E-2
1.529667583E0,-2.944309711E-2,-2.861963098E-2,-1.679437280E-2,4.436248643E-2
1.539611583E0,-1.766078398E-3,9.696647851E-3,-2.472787499E-2,2.661976360E-2
1.549555583E0,3.218031580E-2,4.375359553E-2,-3.400740623E-2,6.408161613E-2
1.559498583E0,6.108640096E-2,4.264865907E-2,-2.861802757E-2,7.980882160E-2
1.569442583E0,5.605582207E-2,3.509400163E-2,-2.906475484E-2,7.223990664E-2
1.579386583E0,1.901872672E-2,3.695914465E-2,-2.127918720E-2,4.669576156E-2
1.589330583E0,2.864669720E-3,5.711587658E-3,-2.082895160E-2,2.178700968E-2
1.599274583E0,-3.442116070E-2,-1.346284859E-2,-2.412268817E-2,4.413579817E-2
1.609218583E0,-5.478680268E-2,-2.276218727E-2,-3.923949480E-2,7.112980296E-2
1.619161583E0,-5.996453955E-2,-3.536701178E-2,-2.891097307E-2,7.538180079E-2
1.629105583E0,-5.482104544E-2,-1.668037036E-2,-2.397066057E-2,6.211420406E-2
1.639049583E0,-1.859763583E-2,-2.811432648E-3,-3.369984269E-2,3.859346589E-2
1.648993583E0,1.257630106E-2,1.235185477E-2,-4.417805314E-2,4.756502963E-2
1.658937583E0,2.965083771E-2,2.873318117E-2,-2.067867815E-2,4.617765269E-2
1.668880583E0,3.797935587E-2,3.991792713E-2,-2.876128435E-2,6.215371153E-2
1.678824583E0,3.686289400E-2,4.143437967E-2,-2.965941668E-2,6.289166694E-2
1.688768583E0,2.144279961E-2,1.781748022E-2,-2.232525408E-2,3.571656795E-2
1.698712583E0,-7.963898582E-3,1.230756668E-3,-1.633653581E-2,1.821595029E-2
1.708656583E0,-3.560622686E-2,-1.072906971E-2,-3.220295548E-2,4.919295345E-2
1.718600583E0,-4.269961207E-2,-1.931740067E-2,-3.115513444E-2,5.627664917E-2
1.728543583E0,-3.902746928E-2,-1.984297399E-2,-1.693587542E-2,4.694369874E-2
1.738487583E0,-2.679897705E-2,-1.792948181E-2,-3.040844500E-2,4.432070641E-2
1.748431583E0,-1.929769373E-2,-7.471782295E-4,-2.981144428E-2,3.552015581E-2
1.758375583E0,1.109083420E-2,1.862360112E-2,-2.621949971E-2,3.401921938E-2
1.768319583E0,3.004273821E-2,2.804172965E-2,-1.993315816E-2,4.567532720E-2
1.778263583E0,3.757893124E-2,2.673965522E-2,-2.921385884E-2,5.459519011E-2
1.788206583E0,3.012839078E-2,1.503820726E-2,-2.083129048E-2,3.959558399E-2
1.798150583E0,2.861517705E-3,5.442551784E-3,-2.008226216E-2,2.100254525E-2
1.808094583E0,-7.097450858E-3,4.514817931E-3,-2.696911275E-2,2.825049437E-2
1.818038583E0,-3.062106438E-2,-9.372803466E-3,-2.756786764E-2,4.225501573E-2
1.827982583E0,-2.593316887E-2,-2.438376635E-2,-3.160946310E-2,4.760520419E-2
1.837925583E0,-3.595098417E-2,-1.536785774E-2,-3.191000998E-2,5.046675194E-2
1.847869583E0,-2.368444850E-2,-5.329549774E-3,-2.876654685E-2,3.764135251E-2
1.857813583E0,-6.887343954E-3,3.533536373E-3,-2.801868796E-2,2.906833778E-2
1.867757583E0,1.605902147E-2,1.950347460E-2,-2.278133690E-2,3.401862730E-2
1.877701583E0,2.797896344E-2,2.261835034E-2,-3.296075463E-2,4.879368313E-2
1.887645583E0,1.385680474E-2,1.986825863E-2,-2.891974390E-2,3.772413453E-2
1.897588583E0,1.269703693E-2,1.027517502E-2,-3.326013207E-2,3.705442422E-2
1.907532583E0,-2.226080680E-3,5.666317418E-4,-2.038807154E-2,2.051706528E-2
1.917476583E0,-1.762211926E-2,-6.121422658E-3,-2.787250757E-2,3.353934378E-2
1.927420583E0,-2.916663344E-2,-7.306698952E-3,-3.625566065E-2,4.710152105E-2
1.937364583E0,-3.568481709E-2,-1.824885855E-2,-3.041780055E-2,5.031569933E-2
1.947308583E0,-2.610525973E-2,-1.611889148E-2,-3.850157619E-2,4.923082994E-2
1.957251583E0,-1.200951400E-2,-1.754644350E-3,-2.547924221E-2,2.822231363E-2
1.967195583E0,3.694435302E-3,1.852581101E-2,-2.383325100E-2,3.041181315E-2
1.977139583E0,1.623152347E-2,2.170287279E-2,-2.024072170E-2,3.382549123E-2
1.987083583E0,2.780603204E-2,2.303970161E-2,-2.757546902E-2,4.543577621E-2
1.997027583E0,2.517131321E-2,1.790446669E-2,-3.176675320E-2,4.430904586E-2
2.006970583E0,9.559740778E-3,1.522136672E-2,-2.158675075E-2,2.809032674E-2
2.016914583E0,2.099287463E-3,-2.824511225E-3,-2.832157373E-2,2.853938350E-2
2.026858583E0,-1.071272948E-2,-7.480731276E-3,-3.176324487E-2,3.434570771E-2
2.036802583E0,-9.647229742E-3,-6.994448500E-3,-2.352919579E-2,2.637450295E-2
2.046746583E0,-2.422252025E-2,-1.235580621E-2,-2.472729027E-2,3.675371163E-2
2.056690583E0,-3.569980058E-2,-1.127066349E-2,-3.146386743E-2,4.890274604E-2
2.066633583E0,-1.217190214E-2,1.960096322E-3,-3.281048119E-2,3.505031891E-2
2.076577583E0,4.794990923E-3,2.632699711E-3,-2.502608299E-2,2.561694509E-2
2.086521583E0,7.507020906E-3,1.217946698E-2,-2.726965964E-2,3.079495276E-2
2.096465583E0,1.764718006E-2,1.316110485E-2,-2.233051658E-2,3.135744913E-2
2.106409583E0,1.831886069E-2,1.626214826E-2,-2.652121603E-2,3.610281184E-2
2.116353583E0,1.203950839E-2,1.691248655E-2,-3.026343405E-2,3.669955592E-2
2.126296583E0,-1.231159578E-2,2.142735017E-3,-3.310693502E-2,3.538694464E-2
2.136240583E0,-2.437287591E-2,1.796885915E-3,-1.783985496E-2,3.025766521E-2
2.146184583E0,-1.676272474E-2,-1.407360854E-3,-2.337833762E-2,2.880132419E-2
2.156128583E0,-1.839312946E-2,-3.481231201E-3,-3.355775535E-2,3.842589135E-2
2.166072583E0,-8.531855084E-3,-2.694191406E-3,-3.370802879E-2,3.487524084E-2
2.176016583E0,-2.042596880E-4,5.977115203E-3,-2.906826317E-2,2.967712169E-2
2.185959583E0,1.099284765E-2,1.334149602E-2,-1.904028833E-2,2.571713039E-2
2.195903583E0,1.713400466E-2,7.201257208E-3,-3.116507471E-2,3.628627981E-2
2.205847292E0,9.468798302E-3,1.352993625E-2,-2.861861229E-2,3.304152366E-2
2.215791292E0,4.182047406E-3,-2.008577962E-3,-2.787016869E-2,2.825367602E-2
2.225735292E0,-7.710686736E-3,-4.466413949E-3,-2.607390404E-2,2.755452804E-2
2.235678292E0,-1.440772209E-2,7.092243182E-3,-2.801985741E-2,3.229542968E-2
2.245622292E0,-1.611719213E-2,-9.321114994E-3,-2.098390281E-2,2.805300776E-2
2.255566292E0,-1.950274827E-2,-1.212277640E-2,-2.831865013E-2,3.645908450E-2
2.265510292E0,-1.197005443E-2,-3.340811231E-3,-2.816896141E-2,3.078853049E-2
2.275454292E0,-9.351077406E-3,5.166873839E-3,-1.619327903E-2,1.940003916E-2
2.285398292E0,1.030727989E-2,1.482515847E-2,-3.190942526E-2,3.666383454E-2
2.295341292E0,1.491747139E-2,1.252577746E-2,-2.173059225E-2,2.918295210E-2
2.305285292E0,1.223200969E-2,1.622105330E-2,-2.637035787E-2,3.328874293E-2
2.315229292E0,8.428368503E-3,1.547808233E-2,-2.951206684E-2,3.437398024E-2
2.325173292E0,8.244638024E-3,2.546334509E-3,-3.310342669E-2,3.420957080E-2
2.335117292E0,6.484406842E-3,1.601301120E-3,-2.097864032E-2,2.201624507E-2
2.345061292E0,-1.697892554E-2,5.456740418E-3,-3.474941790E-2,3.905869907E-2
2.355004292E0,-1.144164886E-2,-4.912465140E-3,-2.891038835E-2,3.147783660E-2
2.364948292E0,-1.645423844E-2,-1.229334607E-2,-2.397007585E-2,3.156632472E-2
2.374892292E0,-9.731776826E-3,-4.623662937E-3,-3.175388932E-2,3.353200302E-2
2.384836292E0,-6.942143328E-3,4.034090010E-3,-2.696443498E-2,2.813446268E-2
2.394780292E0,-4.347057659E-3,-1.650244142E-3,-2.651653826E-2,2.692112586E-2
2.404723292E0,6.727614468E-3,6.492734556E-3,-3.370218158E-2,3.497504027E-2
2.414667292E0,1.307695976E-2,8.006487326E-3,-3.025934100E-2,3.392253578E-2
2.424611292E0,2.184172589E-3,6.567263715E-3,-2.636860371E-2,2.726174653E-2
2.434555292E0,-2.483376442E-3,6.570991315E-3,-2.831338763E-2,2.917178439E-2
2.444499292E0,-8.577043097E-4,-2.520889984E-3,-4.328225970E-2,4.336409284E-2
2.454443292E0,-6.746289013E-3,-5.750690913E-4,-3.864249408E-2,3.923117980E-2
2.464386292E0,-1.380504775E-2,3.206983083E-3,-1.948467672E-2,2.409391439E-2
2.474330292E0,-1.173360765E-2,-1.248782538E-3,-1.634121358E-2,2.015619676E-2
2.484274292E0,-1.056133227E-2,-2.675539702E-3,-2.981319845E-2,3.174156666E-2
2.494218292E0,-1.984873898E-3,-3.562256251E-3,-2.202880025E-2,2.240306752E-2
2.504162292E0,4.846327649E-3,5.945681850E-3,-2.053191304E-2,2.191797156E-2
2.514105292E0,-6.234392691E-3,5.956174862E-3,-2.741642475E-2,2.874028562E-2
2.524049292E0,-3.292256501E-3,7.586314632E-3,-3.370218158E-2,3.470199080E-2
2.533993292E0,8.269379055E-3,6.689223843E-3,-3.160653949E-2,3.334818862E-2
2.543937292E0,1.403267803E-3,5.040409528E-3,-2.591778338E-2,2.644061996E-2
2.553881292E0,-8.945810543E-3,4.118586844E-4,-2.187735736E-2,2.363928762E-2
2.563825292E0,-1.553309184E-2,7.998442836E-4,-3.774377704E-2,4.082290286E-2
2.573768292E0,-1.031162876E-2,-3.592616091E-3,-2.023019671E-2,2.298907212E-2
2.583712292E0,-5.847288743E-3,5.420976472E-3,-1.888299823E-2,2.049744847E-2
2.593656292E0,-8.661206458E-3,5.248753130E-3,-3.639774799E-2,3.778044422E-2
2.603600292E0,-3.229618203E-3,1.278744950E-3,-3.954238057E-2,3.969465309E-2
2.613544292E0,2.792109428E-3,3.869052348E-3,-3.145860493E-2,3.181837936E-2
2.623488292E0,2.074135300E-3,5.573744117E-3,-2.876362324E-2,2.937200508E-2
2.633431292E0,6.317605879E-3,3.578098551E-3,-2.726673603E-2,2.821683588E-2
2.643375292E0,-2.121497747E-3,4.915822721E-3,-1.603891253E-2,1.690895565E-2
2.653319292E0,-2.169874320E-3,-1.067148834E-3,-3.205502093E-2,3.214609662E-2
2.663263292E0,-1.065435782E-3,6.790499445E-3,-2.846132219E-2,2.927956449E-2
2.673207292E0,-1.427815145E-2,6.410233998E-3,-2.082661271E-2,2.605195781E-2
2.683151292E0,-1.233682103E-2,8.612880134E-3,-2.651478410E-2,3.048626958E-2
2.693094292E0,-8.290218897E-3,6.914460417E-3,-3.804081559E-2,3.954290256E-2
2.703038292E0,-2.318676822E-3,2.277682358E-3,-3.564404190E-2,3.579192397E-2
2.712982292E0,2.870407300E-3,5.943626189E-3,-2.741057754E-2,2.819407192E-2
2.722926292E0,5.226341849E-3,8.729468132E-3,-2.920625746E-2,3.092771796E-2
2.732870292E0,-3.863456380E-4,4.988734759E-3,-2.770820081E-2,2.815636926E-2
2.742813292E0,3.621527832E-4,3.538652686E-3,-2.381453991E-2,2.407873603E-2
2.752757292E0,-5.422223574E-3,1.056709270E-2,-2.067107677E-2,2.384024688E-2
2.762701292E0,-6.980004050E-3,3.103062529E-3,-2.860399425E-2,2.960638344E-2
2.772645292E0,-2.469973527E-3,-5.810565487E-3,-3.174687266E-2,3.236861697E-2
2.782589292E0,-8.763852501E-3,-3.258283264E-3,-3.548909068E-2,3.670009643E-2
2.792533292E0,-5.531794913E-3,3.595443768E-3,-2.890220225E-2,2.964566184E-2
2.802476292E0,-1.129679323E-2,3.290666789E-3,-3.369282603E-2,3.568826910E-2
2.812420292E0,-1.706436798E-3,-1.056153327E-4,-3.040084362E-2,3.044888133E-2
2.822364292E0,8.206256535E-3,6.963170464E-3,-2.156920910E-2,2.410516896E-2
2.832308292E0,3.249215512E-3,4.807736026E-4,-2.336547375E-2,2.359520943E-2
2.842252292E0,1.353666969E-3,3.891344857E-3,-2.710769176E-2,2.741900676E-2
2.852196292E0,-7.399687953E-3,2.218013350E-4,-2.126983166E-2,2.252133025E-2
2.862139292E0,-9.292358570E-3,-6.752455998E-3,-2.890454113E-2,3.110331314E-2
2.872083292E0,-2.075577918E-2,1.420932789E-3,-3.429333508E-2,4.011052543E-2
2.882027292E0,-9.513986316E-3,8.030008664E-4,-2.486119151E-2,2.663155251E-2
2.891971292E0,3.971885685E-3,7.030838281E-3,-2.381337047E-2,2.514528138E-2
2.901915292E0,-5.290359724E-4,4.579553003E-3,-2.695917249E-2,2.735048749E-2
2.911858292E0,7.657294348E-4,5.848220643E-3,-2.621072888E-2,2.686615594E-2
2.921802292E0,1.031990622E-2,1.376038964E-2,-1.752936780E-2,2.455865475E-2
2.931746292E0,1.564484674E-2,1.307532894E-2,-3.264675915E-2,3.849073057E-2
2.941690292E0,1.356575958E-2,2.450951803E-3,-3.294555187E-2,3.571339225E-2
2.951634292E0,2.761384137E-3,9.158895873E-3,-3.010146618E-2,3.158494708E-2
2.961578292E0,-3.675431851E-3,1.015460361E-3,-3.534057140E-2,3.554568815E-2
2.971521292E0,-9.409056203E-3,-3.062342154E-4,-4.162808239E-2,4.267928493E-2
2.981465292E0,1.095729841E-2,-3.076222439E-2,-7.066652477E-2,7.784686609E-2
2.991409292E0,1.151581714E-3,-1.341010944E-2,-1.662889659E-2,2.139339566E-2
3.001353292E0,-6.074338867E-2,6.002139915E-2,3.920441151E-2,9.396442681E-2
3.011297292E0,-3.789342008E-2,2.161942663E-2,-2.082135022E-2,4.834086799E-2
3.021241292E0,5.629054209E-2,-4.594459292E-2,-4.417220592E-2,8.503360820E-2
3.031184292E0,4.660861278E-2,-1.818179373E-2,-1.065912330E-1,1.177481693E-1
3.041128292E0,-2.954811858E-2,4.495078553E-2,5.073161244E-2,7.394160488E-2
3.051072292E0,-3.410504560E-2,3.178840160E-2,1.674934924E-2,4.953985579E-2
3.061016292E0,3.721203673E-2,-1.809592189E-2,-8.623532116E-2,9.564898684E-2
3.070960292E0,4.736818437E-2,-2.795664352E-2,-5.659520030E-2,7.891980426E-2
3.080903292E0,-1.898913433E-2,1.566166663E-2,-1.034080088E-2,2.669844915E-2
3.090847292E0,-6.167905281E-2,3.840660461E-2,1.884849966E-2,7.506423098E-2
3.100791292E0,-1.197443071E-2,-2.139023862E-2,-3.668660045E-2,4.412296399E-2
3.110735292E0,2.815916732E-2,-3.340436644E-2,-6.527714610E-2,7.854868684E-2
3.120679292E0,-1.474539880E-3,1.391441809E-2,-1.513200939E-2,2.060977940E-2
3.130623292E0,-3.607655313E-2,3.415869380E-2,-4.057382941E-3,4.984773219E-2
3.140566292E0,-9.639125867E-3,1.105380031E-2,-1.528520644E-2,2.118340824E-2
3.150510292E0,4.460439739E-2,-7.594349985E-3,-5.899489760E-2,7.434799501E-2
3.160454292E0,3.238315936E-2,-1.230948530E-3,-3.624162734E-2,4.861727879E-2
3.170398292E0,-1.690045408E-2,2.789567716E-2,-2.112014294E-3,3.268416676E-2
3.180342292E0,-2.444518039E-2,1.548495281E-2,-1.857660413E-2,3.438663736E-2
3.190286292E0,1.119480500E-2,-1.021835196E-2,-3.833376110E-2,4.122154310E-2
3.200229292E0,5.880700098E-3,-1.016434744E-2,-4.836290538E-2,4.976813448E-2
3.210173042E0,-2.707876632E-2,6.671773558E-3,-7.648158073E-3,2.891827225E-2
3.220117042E0,-3.006121175E-2,1.273809078E-2,-1.752702892E-2,3.705579781E-2
3.230061042E0,8.779110080E-3,-2.663680818E-5,-4.132987440E-2,4.225200588E-2
3.240005042E0,2.597742498E-2,-3.742816444E-3,-4.552115858E-2,5.254532483E-2
3.249948042E0,-2.104632184E-4,5.852286285E-3,-3.204917371E-2,3.257979566E-2
3.259892042E0,-2.498146143E-2,2.295583518E-2,-1.228967786E-2,3.608434516E-2
3.269836042E0,-2.708841423E-3,9.068542686E-3,-3.893485487E-2,4.006868118E-2
3.279780042E0,1.946425715E-2,2.462623394E-3,-4.207656384E-2,4.642584457E-2
3.289724042E0,9.720356483E-4,4.873211137E-3,-2.785555065E-2,2.829531307E-2
3.299668042E0,-1.401486229E-2,1.122848131E-3,-1.633010387E-2,2.154876900E-2
3.309611042E0,-1.654280548E-2,6.289447881E-3,-2.097045422E-2,2.744050870E-2
3.319555042E0,1.058964559E-2,8.267414756E-4,-3.968271375E-2,4.107970138E-2
3.329499042E0,9.033664959E-3,5.853053732E-3,-2.621131361E-2,2.833546014E-2
3.339443042E0,-5.039495900E-3,3.808259577E-3,-2.351925552E-2,2.435271525E-2
3.349387042E0,1.423066109E-4,8.348353012E-3,-2.726322770E-2,2.851313441E-2
3.359331042E0,8.518068446E-3,1.043111295E-3,-3.070782244E-2,3.188441516E-2
3.369274042E0,9.427447524E-3,-6.165404683E-3,-3.879101336E-2,4.039346109E-2
3.379218042E0,-1.158200031E-2,1.461164374E-4,-2.472085834E-2,2.729990692E-2
3.389162042E0,-1.131544037E-2,1.137328212E-2,-2.711529315E-2,3.150602894E-2
3.399106042E0,6.787265204E-3,1.096166555E-2,-2.966175556E-2,3.234261621E-2
3.409050042E0,5.907167885E-3,-5.385925155E-4,-2.966292500E-2,3.025018734E-2
3.418994042E0,-3.322725976E-3,3.915994526E-3,-2.083129048E-2,2.145502702E-2
3.428937042E0,-9.832257573E-3,3.596622348E-3,-1.693879902E-2,1.991310859E-2
3.438881042E0,-6.592333652E-3,-5.449513625E-4,-2.083187521E-2,2.185687214E-2
3.448825042E0,3.006857559E-3,-1.424619276E-4,-2.472378194E-2,2.490636227E-2
3.458769042E0,8.231235109E-4,-2.103864737E-3,-3.056281149E-2,3.064619431E-2
3.468713042E0,-3.210002622E-3,7.225367837E-3,-3.131067038E-2,3.229346895E-2
3.478656042E0,-4.394886056E-3,1.016005796E-2,-2.397592306E-2,2.640807997E-2
3.488600042E0,-1.513697952E-3,4.214234501E-3,-3.295724630E-2,3.326005318E-2
3.498544042E0,-4.226531927E-3,1.906215143E-3,-3.071250021E-2,3.106050382E-2
3.508488042E0,-7.910707192E-3,4.847392025E-3,-3.131125510E-2,3.265687054E-2
3.518432042E0,-1.150066006E-2,3.593959124E-3,-2.622066915E-2,2.885663207E-2
3.528376042E0,-1.861470239E-3,-1.901583052E-3,-2.158148825E-2,2.174492411E-2
3.538319042E0,-8.133668834E-3,-3.846019800E-3,-2.861685812E-2,2.999788336E-2
3.548263042E0,5.312195420E-3,6.676711715E-3,-3.056281149E-2,3.173142521E-2
3.558207042E0,-1.886750311E-3,9.145058985E-3,-2.696852803E-2,2.853933137E-2
3.568151042E0,2.974770963E-5,3.995863837E-3,-2.771521747E-2,2.800180516E-2
3.578095042E0,7.969572209E-4,-5.568837938E-3,-2.786432147E-2,2.842652824E-2
3.588038042E0,-7.049293555E-3,7.060649944E-4,-1.798369646E-2,1.932884906E-2
3.597982042E0,-2.141999546E-4,8.655601353E-3,-2.411917984E-2,2.562616149E-2
3.607926042E0,-4.551116349E-3,5.884994147E-4,-2.546520889E-2,2.587539092E-2
3.617870042E0,-7.469087094E-4,1.503230979E-2,-1.977820694E-2,2.485368545E-2
3.627814042E0,-1.483429475E-3,2.069352460E-3,-2.621657610E-2,2.633992492E-2
3.637758042E0,-5.218840968E-3,4.007836925E-3,-2.516875505E-2,2.601471293E-2
3.647701042E0,-5.989330402E-3,7.424529484E-3,-2.666564226E-2,2.832052602E-2
3.657645042E0,1.146903941E-3,-5.359484777E-3,-2.457058489E-2,2.517445347E-2
3.667589042E0,-9.924314674E-3,-7.672944786E-3,-2.382272601E-2,2.692375119E-2
3.677533042E0,-9.111789241E-4,2.058749814E-3,-2.606747210E-2,2.616451413E-2
3.687477042E0,1.908549462E-3,1.253971942E-3,-2.771463275E-2,2.780855759E-2
3.697420042E0,-2.380501991E-3,-1.732406658E-3,-1.304572284E-2,1.337381423E-2
3.707364042E0,1.877157222E-3,5.023621623E-3,-2.232759297E-2,2.296261965E-2
3.717308042E0,4.161097929E-3,4.782917337E-3,-3.564930439E-2,3.620861690E-2
3.727252042E0,1.123834848E-3,1.188620171E-3,-2.861393452E-2,2.866065371E-2
3.737196042E0,-2.227277532E-3,4.847583887E-3,-2.382506490E-2,2.441502718E-2
3.747140042E0,-1.589273214E-3,1.699411003E-3,-3.235849142E-2,3.244203684E-2
3.757083042E0,-4.043185171E-3,5.721409153E-3,-2.891623557E-2,2.975282421E-2
3.767027042E0,-3.133824365E-3,8.296431564E-3,-2.412795067E-2,2.570621783E-2
3.776971042E0,-6.547684679E-3,4.575724904E-3,-2.427763939E-2,2.555803606E-2
3.786915042E0,-7.155283475E-3,9.985888596E-3,-2.412912011E-2,2.707638251E-2
3.796859042E0,7.728831377E-3,9.572252906E-3,-2.667499781E-2,2.937547222E-2
3.806802042E0,6.684080120E-3,6.903044642E-3,-4.014698267E-2,4.128085718E-2
3.816746042E0,-4.635544661E-3,4.052074766E-4,-3.805017114E-2,3.833364046E-2
3.826690042E0,-8.310072022E-3,6.580493040E-4,-3.191234887E-2,3.298315231E-2
3.836634042E0,2.941670241E-3,2.819468002E-3,-2.532604516E-2,2.565173263E-2
3.846578042E0,-3.694289122E-3,-9.448780725E-4,-2.697145164E-2,2.723967273E-2
3.856522042E0,3.701031692E-3,-7.036050525E-3,-2.801927269E-2,2.912530316E-2
3.866465042E0,-1.777261198E-3,-2.736323336E-3,-2.712055564E-2,2.731612456E-2
3.876409042E0,-8.375104023E-3,9.390541543E-3,-3.370802879E-2,3.597993667E-2
3.886353042E0,-3.175695911E-3,5.565836672E-3,-1.948818505E-2,2.051470055E-2
3.896297042E0,6.425505280E-3,6.941860104E-3,-2.352861106E-2,2.535886587E-2
3.906241042E0,2.995711304E-3,-4.588099988E-4,-2.906709373E-2,2.922465963E-2
3.916184042E0,-1.600181926E-3,3.658895195E-4,-3.625156760E-2,3.628871189E-2
3.926128042E0,3.855343368E-3,6.389933196E-3,-2.098214865E-2,2.226983342E-2
3.936072042E0,4.822125658E-4,3.867229661E-3,-2.966234028E-2,2.991725966E-2
3.946016042E0,1.117156232E-3,2.458982589E-3,-2.487113178E-2,2.501735057E-2
3.955960042E0,-7.161834184E-4,1.230354672E-3,-2.921268940E-2,2.924735737E-2
3.965904042E0,-4.749866864E-3,4.613179062E-3,-3.115805805E-2,3.185384180E-2
3.975847042E0,5.511000752E-3,7.514174609E-3,-2.127801776E-2,2.322903332E-2
3.985791042E0,-2.151574362E-3,1.621688716E-5,-2.711763203E-2,2.720285835E-2
3.995735042E0,-5.388391949E-3,6.713553742E-3,-3.340572774E-2,3.449708999E-2
4.005679042E0,-5.578499548E-3,-7.213180047E-4,-3.056339622E-2,3.107669778E-2
4.015623042E0,-5.000511417E-3,3.050620314E-3,-3.550312400E-2,3.598309620E-2
4.025566042E0,1.404519472E-3,6.043956187E-3,-3.071483910E-2,3.133533824E-2
4.035510042E0,4.195075734E-3,9.784767218E-4,-3.296309352E-2,3.324336944E-2
4.045454042E0,-3.151923325E-4,-1.213100818E-3,-2.637737453E-2,2.640713629E-2
4.055398042E0,3.363574259E-3,2.497245306E-3,-2.757371485E-2,2.789013476E-2
4.065342042E0,-8.123290027E-3,7.964524417E-3,-1.545068264E-2,1.918710724E-2
4.075286042E0,-1.007390290E-2,3.176445086E-3,-1.964372098E-2,2.230356691E-2
4.085229042E0,-3.315142868E-3,-6.678296858E-3,-2.443434477E-2,2.554656582E-2
4.095173042E0,-7.196287075E-3,-1.191121226E-2,-2.428465605E-2,2.798942737E-2
4.105117042E0,-1.056880575E-2,5.793585721E-4,-2.712757230E-2,2.911941775E-2
4.115061042E0,-6.577880066E-3,-6.344804568E-3,-2.278718412E-2,2.455159488E-2
4.125005042E0,-1.431039336E-2,-4.867500965E-3,-2.009161770E-2,2.514265351E-2
4.134948042E0,-9.790970748E-3,5.634747022E-3,-2.248605251E-2,2.516418168E-2
4.144892042E0,-1.385361618E-2,3.355168886E-3,-2.098916531E-2,2.537173427E-2
4.154836042E0,1.694925092E-3,3.591076629E-3,-1.814507961E-2,1.857451255E-2
4.164780042E0,4.978264589E-3,-1.309872237E-3,-3.835364163E-2,3.869755431E-2
4.174724042E0,-9.392428184E-3,-1.176264730E-2,-2.503134549E-2,2.920866028E-2
4.184668042E0,-2.919021416E-2,-1.901301198E-2,-3.655737698E-2,5.049757459E-2
4.194611042E0,-3.779449250E-2,-1.532365188E-2,-2.607975125E-2,4.840858803E-2
4.204555042E0,-3.543199810E-2,-2.277098094E-2,-2.937348783E-2,5.134925364E-2
4.214499417E0,-1.519455632E-2,-7.319014650E-3,-2.922321439E-2,3.374075839E-2
4.224443417E0,1.547406237E-2,1.708892629E-2,-2.622885525E-2,3.492035016E-2
4.234387417E0,3.669683307E-2,3.600841936E-2,-2.278718412E-2,5.623628351E-2
4.244330417E0,5.442294141E-2,3.615867453E-2,-1.320769072E-2,6.666145355E-2
4.254274417E0,4.990921070E-2,3.713265164E-2,-1.724987090E-2,6.455479205E-2
4.264218417E0,2.567453007E-2,2.838337149E-2,-2.847477078E-2,4.770335253E-2
4.274162417E0,-7.734523276E-3,-8.373820377E-3,-2.847418606E-2,3.067120783E-2
4.284106417E0,-2.635734782E-2,-1.366546375E-2,-2.458052516E-2,3.854422007E-2
4.294050417E0,-2.407697026E-2,-3.606329639E-3,-2.652647853E-2,3.600500206E-2
4.303993417E0,2.445474607E-2,3.582128105E-2,-1.305390894E-2,4.529462794E-2
4.313937417E0,2.886198437E-2,-1.866592035E-2,-3.116624415E-2,4.639790403E-2
4.323881417E0,7.334308773E-3,-1.939702330E-2,-4.718469143E-2,5.154058307E-2
4.333825417E0,-4.882318175E-2,4.232968432E-3,-3.236667752E-2,5.873008524E-2
4.343769417E0,-6.779318472E-2,-1.413711935E-2,1.583367527E-2,7.103857622E-2
4.353712417E0,-4.313802534E-2,-3.194425731E-2,-4.104628444E-2,6.757308836E-2
4.363656417E0,-1.686072956E-2,-3.152052146E-2,-4.613394678E-2,5.836238960E-2
4.373600417E0,-1.041490520E-2,4.032016075E-3,-2.951908350E-2,3.156111048E-2
4.383544417E0,2.864066726E-3,3.644645804E-2,9.399399161E-3,3.774779313E-2
4.393488417E0,3.244448204E-2,3.172054192E-2,-3.535752833E-2,5.752383857E-2
4.403432417E0,6.723108457E-2,2.042529272E-2,-4.149535060E-2,8.160315825E-2
4.413375417E0,3.712303114E-2,2.736554027E-2,-2.068744898E-2,5.054663966E-2
4.423319417E0,7.132716877E-3,2.843966465E-2,-1.814215600E-2,3.447938514E-2
4.433263417E0,-1.336522750E-2,-1.412111716E-3,-2.622300804E-2,2.946641336E-2
4.443207417E0,-2.834079646E-2,-3.430724049E-2,-2.727258325E-2,5.219177417E-2
4.453151417E0,-4.446562652E-2,-3.613140732E-2,-2.936705589E-2,6.438240838E-2
4.463094417E0,-5.164331214E-2,-1.545984632E-2,-4.668416977E-3,5.410945069E-2
4.473038417E0,-4.270050743E-2,-7.838471239E-3,-2.981670678E-2,5.266698177E-2
4.482982417E0,-8.731857268E-3,-1.293573123E-2,-2.891857445E-2,3.286126021E-2
4.492926417E0,3.664117489E-2,1.105900342E-2,-5.092281640E-2,6.370251552E-2
4.502870417E0,2.971475509E-2,4.297832326E-2,-1.380059838E-2,5.404220070E-2
4.512813417E0,3.479819647E-2,4.017434124E-2,-1.754281640E-2,5.597001500E-2
4.522757417E0,2.613876245E-2,2.867237013E-2,-1.963904321E-2,4.348599464E-2
4.532701417E0,1.204244114E-2,7.729882048E-4,-6.394690454E-2,6.507552919E-2
4.542645417E0,-1.856560405E-2,-6.807474643E-3,1.463908911E-2,2.460337974E-2
4.552589417E0,-3.755624587E-2,-8.513198812E-3,-4.119480371E-2,5.639111642E-2
4.562533417E0,-4.526936285E-2,-2.593618384E-2,-1.993959010E-2,5.585327294E-2
4.572476417E0,-3.272912267E-2,-3.758546367E-2,-4.224320948E-2,6.533262047E-2
4.582420417E0,-1.199194495E-2,-6.122455057E-3,-1.619854152E-2,2.106380656E-2
4.592364417E0,-9.630400725E-3,1.044963218E-2,-2.862387478E-2,3.195724704E-2
4.602308417E0,2.380029646E-2,1.544626982E-2,-2.623060942E-2,3.864047403E-2
4.612252417E0,3.969958845E-2,2.299230719E-2,-1.769776762E-2,4.917229394E-2
4.622195417E0,2.763489135E-2,2.211872860E-2,-4.060131133E-2,5.386456958E-2
4.632139417E0,1.728784125E-2,2.966169161E-2,-1.964547515E-2,3.955540542E-2
4.642083417E0,-2.071193419E-5,1.781322272E-2,-2.069212675E-2,2.730339616E-2
4.652027417E0,-3.306643392E-2,-3.649308502E-2,-1.620263457E-2,5.184264339E-2
4.661971417E0,-3.210834023E-2,-1.716474823E-2,-7.473092437E-2,8.312812491E-2
4.671914417E0,3.551416062E-3,3.311082708E-2,3.124752045E-2,4.566559930E-2
4.681858417E0,4.331964534E-4,2.516970523E-3,-6.575018585E-2,6.579977005E-2
4.691802417E0,6.737947594E-3,-3.232465066E-2,-2.129438996E-2,3.929038078E-2
4.701746417E0,9.031408299E-3,-1.645927252E-3,-7.937361360E-2,7.990272804E-2
4.711690417E0,-5.541936178E-3,2.340989431E-2,4.007915497E-2,4.674478443E-2
4.721634417E0,-3.175561608E-2,2.115175445E-3,-3.132119536E-2,4.465322383E-2
4.731577417E0,-2.454779902E-2,-2.973125977E-2,-5.003228545E-2,6.316464068E-2
4.741521417E0,-1.263631725E-2,-1.877583886E-2,-4.524166167E-2,5.058672345E-2
4.751465417E0,-2.233289201E-3,2.641701682E-2,2.808417678E-3,2.665958680E-2
4.761409417E0,2.459494220E-2,3.063013670E-2,-2.967403471E-2,4.923073016E-2
4.771353417E0,1.346304959E-2,1.803952823E-3,-2.413496733E-2,2.769484786E-2
4.781296417E0,8.267506119E-3,-7.573861890E-3,-6.365162015E-2,6.463160055E-2
4.791240417E0,2.398096628E-2,3.167647767E-2,-5.722669959E-3,4.014019099E-2
4.801184417E0,1.632022756E-2,3.111318980E-2,-1.694698513E-2,3.900744432E-2
4.811128417E0,-1.528934517E-2,-2.141702618E-2,-2.981846094E-2,3.976925570E-2
4.821072417E0,-3.797833261E-2,-4.079434253E-2,-4.763200343E-2,7.331670943E-2
4.831015417E0,-5.147622795E-2,-1.439765849E-2,-2.682468653E-2,5.980517052E-2
4.840959417E0,-3.263658134E-2,-9.291682485E-3,-1.527877450E-3,3.396787033E-2
4.850903417E0,-1.987882474E-2,-2.242083779E-2,-3.730523586E-2,4.784916157E-2
4.860847417E0,-1.660710658E-2,-1.111119895E-2,-3.116741359E-2,3.702245806E-2
4.870791417E0,3.735292722E-3,6.076686890E-3,-3.595628321E-2,3.665696165E-2
4.880735417E0,4.819354626E-2,4.150894994E-2,3.112472892E-3,6.368122419E-2
4.890678417E0,6.736526904E-2,5.658745731E-2,-5.332017481E-2,1.028749767E-1
4.900622417E0,5.782884403E-2,2.135261544E-2,-3.400916040E-2,7.040406508E-2
4.910566417E0,3.189014772E-2,7.781218775E-3,-2.891915917E-2,4.374753312E-2
4.920510417E0,7.596848756E-3,2.891111925E-2,-2.308188379E-2,3.776689406E-2
4.930454417E0,-4.237405920E-2,-1.440443303E-2,-1.440052271E-2,4.701514265E-2
4.940397417E0,-8.066411236E-2,-5.102298194E-2,-2.667616725E-2,9.910429662E-2
4.950341417E0,-6.684402631E-2,-5.344679901E-2,-5.541757107E-2,1.019597536E-1
4.960285417E0,-3.250238774E-2,-1.530256536E-2,-2.233694851E-2,4.230263567E-2
4.970229417E0,-1.212739935E-2,6.323599275E-3,-4.841494560E-4,1.368561740E-2
4.980173417E0,-3.614026951E-3,1.689635189E-3,-4.659061432E-2,4.676110991E-2
4.990116417E0,3.594086118E-2,1.525523032E-2,-3.326948762E-2,5.129645564E-2
5.000060417E0,6.590611464E-2,4.448441983E-2,-2.383909822E-2,8.301073520E-2
5.010004417E0,4.092342895E-2,4.018820554E-2,-4.678357244E-3,5.754742330E-2
5.019948417E0,3.617051058E-5,1.465517809E-3,-3.895707428E-2,3.898464682E-2
5.029892417E0,-1.427831590E-2,-1.416842936E-2,-3.416645050E-2,3.964796382E-2
5.039835417E0,-2.914666154E-2,-6.864238316E-3,-3.730874419E-2,4.783918937E-2
5.049779417E0,-5.640398721E-2,-3.382243322E-2,-1.021508574E-2,6.655610219E-2
5.059723417E0,-6.983852249E-2,-4.552055558E-2,-3.431496978E-2,9.015019331E-2
5.069667417E0,-3.879016369E-2,-1.274147577E-2,-2.218959868E-2,4.646934789E-2
5.079611417E0,1.487758242E-2,1.808075110E-2,-2.338769317E-2,3.309441359E-2
5.089555417E0,4.717774786E-2,3.567981955E-2,-6.323763728E-3,5.948764076E-2
5.099498417E0,5.116754064E-2,3.157096284E-2,-2.877648711E-2,6.665530077E-2
5.109442417E0,4.597836516E-2,2.463663559E-2,-4.479318023E-2,6.875611152E-2
5.119386417E0,1.800668333E-2,2.036493392E-2,1.140207052E-4,2.718426344E-2
5.129330417E0,-1.694584309E-2,8.584945975E-4,-4.179765165E-2,4.511033467E-2
5.139274417E0,-6.106688588E-2,-4.030781765E-2,-1.215811551E-2,7.417347563E-2
5.149217417E0,-6.244711200E-2,-4.706674213E-2,-6.499706447E-2,1.016835208E-1
5.159161417E0,-3.547194189E-2,-1.939482146E-2,-4.221689701E-3,4.064776039E-2
5.169105417E0,-1.443309353E-2,-9.611223685E-4,-3.610480249E-2,3.889466169E-2
5.179049417E0,8.685216587E-4,5.012808843E-3,-7.813049555E-3,9.323428860E-3
5.188993417E0,2.010227060E-2,8.863200350E-3,-5.122394800E-2,5.573643739E-2
5.198936417E0,4.890882519E-2,3.061215651E-2,-3.026928127E-2,6.515678550E-2
5.208880917E0,5.247999388E-2,4.600006381E-2,-1.365441799E-2,7.110976556E-2
5.218824917E0,1.948688770E-2,2.506019784E-2,-3.475935817E-2,4.707404049E-2
5.228768917E0,3.163471576E-3,-1.260077257E-2,-1.634647608E-2,2.088047657E-2
5.238712917E0,-1.308833443E-2,-4.122277899E-3,-3.415651023E-2,3.680984738E-2
5.248655917E0,-2.109727484E-2,-1.653609945E-2,-1.619327903E-2,3.131708602E-2
5.258599917E0,-4.643913489E-2,-2.842198596E-2,-2.786958396E-2,6.116466501E-2
5.268543917E0,-4.540709219E-2,-2.597314463E-2,-2.682351708E-2,5.878698268E-2
5.278487917E0,-1.251337040E-2,-4.846916939E-3,-3.371095240E-2,3.628367890E-2
5.288431917E0,1.803409215E-4,-6.576198991E-3,-1.904204249E-2,2.014642148E-2
5.298375917E0,7.674105093E-3,6.716066217E-3,-2.772574246E-2,2.954173707E-2
5.308318917E0,1.686648541E-2,2.588455018E-2,-1.949403226E-2,3.653088504E-2
5.318262917E0,3.963169679E-2,1.705334050E-2,-4.584041655E-2,6.295102543E-2
5.328206917E0,3.749654945E-2,2.533378358E-2,-1.066532135E-2,4.649237454E-2
5.338150917E0,1.368660509E-2,2.960334279E-2,-3.506750643E-2,4.788957163E-2
5.348094917E0,-2.501329221E-4,3.316869624E-3,-1.201661289E-2,1.246848731E-2
5.358037917E0,-5.135262329E-3,-7.829988208E-3,-1.336615026E-2,1.631973061E-2
5.367981917E0,-2.136627417E-2,-1.489295420E-2,-1.501740396E-2,3.006393485E-2
5.377925917E0,-4.608360590E-2,-2.810683931E-2,-2.355375409E-2,5.889373889E-2
5.387869917E0,-6.615111298E-2,-3.351413878E-2,-5.633792281E-2,9.312963434E-2
5.397813917E0,-4.821950242E-2,-2.667796710E-2,-1.218267381E-2,5.643803578E-2
5.407756917E0,8.073533876E-3,1.964725672E-2,-5.110408008E-2,5.534278315E-2
5.417700917E0,3.804032223E-2,4.440664273E-2,2.029568553E-2,6.189451418E-2
5.427644917E0,7.795639470E-2,-5.727188304E-2,-1.129799008E-2,9.739051618E-2
5.437588917E0,2.684282386E-1,-3.142760738E-1,2.230742007E-1,4.696650603E-1
5.447532917E0,1.233487775E-1,-1.303209974E-1,2.902008212E-1,3.411964242E-1
5.457475917E0,-2.701229079E-1,2.575723894E-1,3.212208849E-1,4.924355572E-1
5.467419917E0,-4.191737704E-1,4.908040625E-1,3.042481720E-2,6.461586083E-1
5.477363917E0,1.472375953E-2,5.589632281E-1,-6.320430815E-2,5.627179258E-1
5.487307917E0,2.579287224E-1,5.238114122E-1,3.643856156E-1,6.882459576E-1
5.497251917E0,4.689226669E-2,3.722616689E-1,6.503980762E-1,7.508630316E-1
5.507194917E0,9.546497748E-2,1.013872705E-2,8.883218658E-1,8.934943161E-1
5.517138917E0,1.916638902E-1,-1.721291649E-1,1.039427952E0,1.070875325E0
5.527082917E0,2.608351357E-1,-3.077543818E-1,9.591082585E-1,1.040498140E0
5.537026917E0,1.736441602E-1,-3.776424960E-1,9.834373534E-1,1.067668103E0
5.546970917E0,-1.654140763E-2,-3.021584868E-1,8.195469153E-1,8.736306518E-1
5.556914917E0,-3.414898194E-1,-3.584910740E-1,4.842991447E-1,6.925870404E-1
5.566857917E0,-6.761319646E-1,-3.955018660E-1,1.123606807E-1,7.913286815E-1
5.576801917E0,-6.635329691E-1,-2.143520553E-1,-8.138914883E-2,7.020306248E-1
5.586745917E0,-2.839811013E-1,-1.299251318E-2,-7.422046244E-2,2.938073320E-1
5.596689917E0,-2.662091106E-2,-2.810917363E-2,3.569023490E-2,5.265540252E-2
5.606633917E0,-8.790393379E-2,-2.411952337E-1,1.673970133E-1,3.064702308E-1
5.616576917E0,-1.732024214E-1,-3.953658452E-1,2.365011621E-1,4.921849550E-1
5.626520917E0,2.030087493E-2,-3.213525935E-1,3.784996247E-1,4.969321692E-1
5.636464917E0,2.692054797E-1,-4.391931385E-2,5.034400052E-1,5.725839111E-1
5.646408917E0,3.824472262E-1,2.325431818E-1,5.452049124E-1,7.054010269E-1
5.656352917E0,3.275817785E-1,2.412812608E-1,4.395539117E-1,5.989441624E-1
5.666295917E0,4.075216949E-2,2.321999502E-1,4.219906300E-1,4.833773350E-1
5.676239917E0,-2.460177248E-1,2.125018501E-1,3.828739268E-1,5.022690524E-1
5.686183917E0,-2.508016243E-1,3.201028973E-2,3.479783285E-1,4.301337356E-1
5.696127917E0,-6.757583275E-2,-2.201375829E-1,5.048708189E-1,5.549068321E-1
5.706071917E0,1.310733057E-1,-3.681825051E-1,7.477606487E-1,8.437325147E-1
5.716014917E0,4.582861979E-1,-4.490901357E-1,8.294386500E-1,1.048654692E0
5.725958917E0,5.759780775E-1,-4.823897365E-1,8.886633432E-1,1.163689452E0
5.735902917E0,4.539019556E-1,-3.123605990E-1,9.768849635E-1,1.121561573E0
5.745846917E0,3.181425451E-1,-2.240881079E-1,1.009716495E0,1.082107924E0
5.755790917E0,1.852642771E-1,-1.328159952E-1,9.539352268E-1,9.807932289E-1
5.765733917E0,-2.670423388E-3,4.202276945E-2,1.081527904E0,1.082347288E0
5.775677917E0,-1.016644422E-1,-1.106702507E-2,1.162790753E0,1.167279090E0
5.785621917E0,-2.006477898E-1,-2.516606534E-1,1.014255103E0,1.064098696E0
5.795565917E0,-3.248939596E-1,-4.752043855E-1,8.472264647E-1,1.024289010E0
5.805509917E0,-3.010900909E-1,-5.367156324E-1,6.155820000E-1,8.704367361E-1
5.815452917E0,-1.820877041E-1,-3.268640327E-1,4.563102776E-1,5.900975320E-1
5.825396917E0,-1.379209799E-1,4.747909874E-2,4.714867258E-1,4.935343900E-1
5.835340917E0,-8.248506323E-2,1.043108189E-1,3.529934853E-1,3.772120535E-1
5.845284917E0,-8.517595187E-2,-3.176149070E-2,1.402197397E-1,1.671086786E-1
5.855228917E0,-1.957574710E-1,-2.345584247E-1,1.424440205E-2,3.058456229E-1
5.865172917E0,-5.732639462E-2,-3.471550405E-1,-3.629542172E-2,3.537234729E-1
5.875115917E0,1.716113940E-2,-2.370353052E-1,1.097990155E-2,2.379092240E-1
5.885059917E0,-5.467029691E-2,-6.625538528E-2,7.299488604E-2,1.127247570E-1
5.895003917E0,-9.278230235E-2,-8.159730971E-2,-1.962033212E-2,1.251064907E-1
5.904947917E0,-1.864900728E-1,-2.789004922E-1,-3.033821994E-1,4.523326107E-1
5.914891917E0,-2.963466834E-1,-3.626332051E-1,-5.026307505E-1,6.869948104E-1
5.924834917E0,-3.106868336E-1,-3.092475414E-1,-6.368208414E-1,7.731113338E-1
5.934778917E0,-2.095168465E-1,-2.339681482E-1,-6.268145013E-1,7.010954446E-1
5.944722917E0,-3.007354572E-2,-2.168276203E-1,-4.210919130E-1,4.745914393E-1
5.954666917E0,1.267872235E-1,-3.504189563E-1,-2.598169345E-1,4.542832645E-1
5.964610917E0,2.866290495E-1,-4.376699388E-1,-1.572386456E-1,5.462922103E-1
5.974553917E0,3.910720155E-1,-3.383286685E-1,-1.287352234E-1,5.328943300E-1
5.984497917E0,3.878227177E-1,-1.724460840E-1,-2.079977399E-1,4.726596789E-1
5.994441917E0,1.974511170E-1,3.835656524E-2,-2.358544600E-1,3.099766056E-1
6.004385917E0,-5.683215871E-2,8.358477831E-2,-1.874512088E-1,2.129654083E-1
6.014329917E0,-2.828640273E-1,-3.918529111E-1,-2.099419391E-1,5.269121176E-1
6.024272917E0,-2.688804111E-1,-9.334986234E-1,-3.952776253E-1,1.048790139E0
6.034216917E0,-1.906228848E-1,-9.268936086E-1,-4.333394909E-1,1.040793909E0
6.044160917E0,-1.874786907E-1,-5.185854632E-1,-2.144653451E-1,5.916709612E-1
6.054104917E0,-2.875046700E-2,-1.467218435E-1,5.684663057E-2,1.599544564E-1
6.064048917E0,4.075100005E-2,-9.404778600E-2,4.550683290E-1,4.664684492E-1
6.073991917E0,-2.020096064E-2,-3.025302601E-1,5.987133676E-1,6.711112677E-1
6.083935917E0,-1.214911079E-1,-4.201423252E-1,5.181393206E-1,6.780472095E-1
6.093879917E0,-2.370790131E-1,-3.563082719E-1,3.755999905E-1,5.694184717E-1
6.103823917E0,-4.508521941E-1,-2.822217107E-1,2.914147031E-1,6.064975879E-1
6.113767917E0,-4.238228551E-1,-1.477205479E-1,2.285460252E-1,5.036670114E-1
6.123710917E0,-2.661694957E-1,-1.835435146E-1,1.019725174E-1,3.390174280E-1
6.133654917E0,-2.253437975E-1,-2.637714064E-1,-5.175370574E-3,3.469610445E-1
6.143598917E0,-1.541216411E-1,-1.193118507E-1,-1.222126544E-2,1.952899313E-1
6.153542917E0,-1.405767122E-1,-6.975962162E-2,1.026583958E-1,1.875285659E-1
6.163486917E0,-2.031866509E-1,-1.346707320E-1,1.857484996E-1,3.064694541E-1
6.173429917E0,-1.361202568E-1,-2.291494578E-1,2.144957507E-1,3.421207760E-1
6.183373917E0,1.714286685E-2,-2.579452407E-1,3.613316149E-1,4.442861251E-1
6.193317917E0,1.497827147E-1,-1.329803020E-1,3.667402893E-1,4.178720643E-1
6.203261917E0,9.931583494E-2,1.685647023E-1,3.296554935E-1,3.833411513E-1
6.213205208E0,-5.338274002E-2,3.423474598E-1,5.303851444E-1,6.335297164E-1
6.223148208E0,-5.082838386E-2,2.348464000E-1,6.580614370E-1,7.005577857E-1
6.233092208E0,-6.661615849E-2,1.923593616E-1,7.960071945E-1,8.216247868E-1
6.243036208E0,-5.171716064E-2,2.056553453E-1,1.141494609E0,1.161024861E0
6.252980208E0,9.994645715E-3,1.541770434E-1,1.397008578E0,1.405526029E0
6.262924208E0,1.763227880E-3,1.632425666E-1,1.457753547E0,1.466866268E0
6.272867208E0,-1.210376564E-1,3.270686853E-1,1.524338715E0,1.563723939E0
6.282811208E0,-2.419846809E-1,3.127903694E-1,1.553089474E0,1.602648220E0
6.292755208E0,-3.404175863E-1,1.611510175E-1,1.413142215E0,1.462472121E0
6.302699208E0,-4.405428220E-1,1.028776664E-1,1.426425042E0,1.496445854E0
6.312643208E0,-4.866228282E-1,1.000049293E-1,1.625851641E0,1.700057741E0
6.322586208E0,-4.362723081E-1,1.670222068E-1,1.794073404E0,1.853895716E0
6.332530208E0,-3.731716418E-1,1.321400571E-1,2.088999068E0,2.126178538E0
6.342474208E0,-1.992334945E-1,-4.910199344E-2,2.274552563E0,2.283789472E0
6.352418208E0,-2.369126599E-1,-1.568065363E-1,2.308813739E0,2.326228015E0
6.362362208E0,-2.995663065E-1,-5.858734667E-2,2.096016312E0,2.118125782E0
6.372305208E0,-4.350267050E-1,-4.343311787E-2,2.102362295E0,2.147338326E0
6.382249208E0,-6.987185892E-1,-2.495170641E-1,2.282009225E0,2.399590076E0
6.392193208E0,-6.604108483E-1,-5.159448606E-1,2.267002931E0,2.416949291E0
6.402137208E0,-5.334922086E-1,-7.713173264E-1,2.170973816E0,2.364883012E0
6.412081208E0,-7.013606536E-1,-8.666298652E-1,2.080630241E0,2.360503397E0
6.422024208E0,-8.707202849E-1,-9.631931233E-1,1.780224274E0,2.203427619E0
6.431968208E0,-1.093162840E0,-1.294396960E0,1.902957915E0,2.547884870E0
6.441912208E0,-1.171708196E0,-1.470886393E0,1.531466763E0,2.425241704E0
6.451856208E0,-8.622624336E-1,-1.228347396E0,1.034627680E0,1.822851685E0
6.461800208E0,-1.050779151E0,-1.563475299E0,1.411848811E0,2.354125931E0
6.471743208E0,-9.981157650E-1,-1.887116346E0,1.400132014E0,2.553000752E0
6.481687208E0,-9.201038218E-1,-2.040481796E0,1.194611301E0,2.537174248E0
6.491631208E0,-9.551532018E-1,-2.252528733E0,1.428408272E0,2.833117280E0
6.501575208E0,-9.345388430E-1,-2.355859559E0,1.338404420E0,2.866140872E0
6.511519208E0,-9.469235381E-1,-2.360835539E0,1.077547120E0,2.762483742E0
6.521462208E0,-1.089906380E0,-2.471626242E0,9.230135424E-1,2.854607889E0
6.531406208E0,-1.063398612E0,-2.604651568E0,7.361821385E-1,2.908090532E0
6.541350208E0,-8.961542112E-1,-2.829876959E0,4.723089174E-1,3.005723156E0
6.551294208E0,-9.063989715E-1,-2.972086506E0,2.484341232E-1,3.117142411E0
6.561238208E0,-9.214239769E-1,-2.883121705E0,1.246976845E-1,3.029350165E0
6.571181208E0,-8.381039312E-1,-2.823782991E0,-8.391923904E-2,2.946728868E0
6.581125208E0,-7.727830772E-1,-3.095807742E0,-3.887123716E-1,3.214392100E0
6.591069208E0,-6.862135877E-1,-3.435982377E0,-6.158825469E-1,3.557551868E0
6.601013208E0,-6.614238784E-1,-3.444107668E0,-7.877146733E-1,3.594419784E0
6.610957208E0,-5.879749560E-1,-3.369296637E0,-9.728106967E-1,3.555873314E0
6.620900208E0,-5.535149753E-1,-3.596922895E0,-1.453318434E0,3.918720149E0
6.630844208E0,-4.581686689E-1,-3.688627701E0,-1.458071051E0,3.992726392E0
6.640788208E0,-3.378657152E-1,-3.481902900E0,-1.395237895E0,3.766230188E0
6.650732208E0,-2.755301571E-1,-3.177071176E0,-1.438485217E0,3.498419335E0
6.660676208E0,1.189455226E-1,-3.214729584E0,-1.761450473E0,3.667607136E0
6.670619208E0,5.003852735E-1,-3.469635442E0,-2.057072686E0,4.064517629E0
6.680563208E0,6.332056542E-1,-3.514338575E0,-2.427633985E0,4.317977742E0
6.690507208E0,5.940353027E-1,-3.236130393E0,-2.695136061E0,4.253137224E0
6.700451208E0,5.589765671E-1,-3.005795120E0,-2.934750280E0,4.237926181E0
6.710395208E0,6.183455403E-1,-2.699504516E0,-3.231710483E0,4.256010865E0
6.720338208E0,7.167148572E-1,-2.503464332E0,-3.540162803E0,4.394743055E0
6.730282208E0,8.010127035E-1,-2.529901348E0,-3.535310783E0,4.420457501E0
6.740226208E0,8.846115151E-1,-2.526642694E0,-3.380937274E0,4.312446833E0
6.750170208E0,1.051320603E0,-2.217068294E0,-3.272237535E0,4.090012874E0
6.760114208E0,1.289569206E0,-1.909031711E0,-3.219205627E0,3.958620426E0
6.770057208E0,1.459328202E0,-1.885424162E0,-3.194849635E0,3.986417849E0
6.780001208E0,1.670765859E0,-1.502846689E0,-3.189560244E0,3.901704919E0
6.789945208E0,1.861460080E0,-1.141055483E0,-3.246733149E0,3.912584489E0
6.799889208E0,1.910556080E0,-1.033395964E0,-3.231844969E0,3.893963746E0
6.809833208E0,1.918618805E0,-8.956811714E-1,-3.280903108E0,3.904826256E0
6.819776208E0,2.016813729E0,-5.961803538E-1,-3.365088980E0,3.968222836E0
6.829720208E0,1.943433219E0,-3.808016735E-1,-3.263881863E0,3.817704469E0
6.839664208E0,1.886145562E0,5.904226005E-2,-3.067044119E0,3.601081879E0
6.849608208E0,1.908867112E0,8.958197504E-1,-2.919151663E0,3.601071106E0
6.859551208E0,2.019148230E0,2.003569493E0,-2.641269171E0,3.881694620E0
6.869495208E0,2.178220855E0,2.879989936E0,-2.416320938E0,4.344835440E0
6.879439208E0,2.378882093E0,3.316170005E0,-2.204397962E0,4.638473228E0
6.889383208E0,2.574465317E0,3.495001833E0,-2.063629754E0,4.806399613E0
6.899327208E0,2.646546868E0,3.735539913E0,-1.807698440E0,4.922016092E0
6.909270208E0,2.580353463E0,4.087470959E0,-1.334815838E0,5.014715960E0
6.919214208E0,2.536561911E0,4.356980823E0,-6.292891891E-1,5.080692187E0
6.929158208E0,2.574553610E0,4.513384486E0,1.031289504E-1,5.197076235E0
6.939102208E0,2.495647774E0,4.640950851E0,3.645813511E-1,5.282007400E0
6.949046208E0,2.162531898E0,4.553581170E0,7.353516877E-2,5.041532813E0
6.958989208E0,1.646523595E0,4.385211765E0,-2.656892931E-1,4.691664200E0
6.968933208E0,1.209571110E0,4.331606830E0,-3.544623059E-1,4.511266289E0
6.978877208E0,1.073061136E0,4.294170617E0,-2.899388659E-1,4.435699047E0
6.988821208E0,1.157112376E0,4.101056380E0,-2.958698429E-1,4.271429672E0
6.998765208E0,1.260983923E0,3.725276880E0,-3.207139313E-1,3.945963217E0
7.008708208E0,1.091328861E0,3.515306874E0,3.338862464E-2,3.680963991E0
7.018652208E0,9.008109337E-1,3.812395715E0,6.747309718E-1,3.975057649E0
7.028596208E0,7.941508497E-1,3.796200097E0,1.253251126E0,4.075837231E0
7.038540208E0,6.257283810E-1,3.409243644E0,1.666945288E0,3.846190951E0
7.048484208E0,3.397561200E-1,3.230855035E0,1.697222025E0,3.665299589E0
7.058427208E0,-4.837065294E-2,3.250171897E0,1.834218779E0,3.732333802E0
7.068371208E0,-2.440429008E-1,3.333604063E0,2.031069533E0,3.911229530E0
7.078315208E0,-1.926281874E-1,3.099433601E0,2.351530426E0,3.895290697E0
7.088259208E0,-9.968494043E-2,2.825456464E0,2.680791671E0,3.896124395E0
7.098203208E0,-2.179511628E-1,2.670186576E0,3.179689267E0,4.157862780E0
7.108146208E0,-3.465143318E-1,2.849387949E0,3.838256196E0,4.792837832E0
7.118090208E0,-3.400228992E-1,3.020687394E0,4.477755647E0,5.412066475E0
7.128034208E0,-3.983610083E-1,2.888792920E0,4.897903819E0,5.700287523E0
7.137978208E0,-5.595228432E-1,2.723438923E0,4.915089955E0,5.646972167E0
7.147922208E0,-7.408667815E-1,2.324879841E0,4.775589423E0,5.362854110E0
7.157865208E0,-9.598112400E-1,1.859999299E0,4.791910756E0,5.229076755E0
7.167809208E0,-1.008043606E0,1.566946791E0,4.896230931E0,5.238754765E0
7.177753208E0,-1.040196130E0,1.244734218E0,5.008748317E0,5.264877108E0
7.187697208E0,-1.051384631E0,8.096575195E-1,4.863713980E0,5.041494681E0
7.197641208E0,-9.882420105E-1,2.375057137E-1,4.548022807E0,4.660208438E0
7.207584208E0,-9.795473470E-1,-3.047446007E-1,4.308490448E0,4.428935788E0
7.217528333E0,-9.642836291E-1,-6.686115682E-1,4.101599586E0,4.266146213E0
7.227472333E0,-9.279216953E-1,-1.030722617E0,3.950091212E0,4.186484010E0
7.237416333E0,-9.415864921E-1,-1.468365074E0,3.751275355E0,4.136997450E0
7.247359333E0,-9.388289452E-1,-1.831960146E0,3.555404155E0,4.108330132E0
7.257303333E0,-9.820826997E-1,-2.012284768E0,3.474907876E0,4.133855484E0
7.267247333E0,-1.085881303E0,-2.099221171E0,3.587557994E0,4.296095912E0
7.277191333E0,-1.030237006E0,-2.251076285E0,3.705353662E0,4.456274059E0
7.287135333E0,-8.865850966E-1,-2.493029391E0,3.907673171E0,4.719230688E0
7.297078333E0,-8.009625636E-1,-2.630585724E0,4.020989871E0,4.871332653E0
7.307022333E0,-8.417949861E-1,-2.764496318E0,4.081984809E0,5.001365680E0
7.316966333E0,-9.541353478E-1,-2.857383431E0,4.257191656E0,5.215236824E0
7.326910333E0,-1.014376433E0,-2.858980306E0,4.230977418E0,5.206140399E0
7.336854333E0,-1.001294019E0,-2.918088639E0,4.022380339E0,5.069257797E0
7.346797333E0,-9.873647819E-1,-3.061703272E0,3.685925995E0,4.892337538E0
7.356741333E0,-9.867666118E-1,-3.115601152E0,3.335128140E0,4.669449496E0
7.366685333E0,-9.635663219E-1,-3.127216061E0,2.933138495E0,4.394455801E0
7.376629333E0,-1.003002575E0,-3.145047730E0,2.572219402E0,4.184931546E0
7.386573333E0,-9.837362923E-1,-3.281726396E0,2.242147002E0,4.094470467E0
7.396516333E0,-1.070883194E0,-3.397284919E0,1.905154130E0,4.039547981E0
7.406460333E0,-1.178115867E0,-3.178509591E0,1.681813881E0,3.784095420E0
7.416404333E0,-1.150435002E0,-2.917850658E0,1.432446797E0,3.448080188E0
7.426348333E0,-1.061925845E0,-3.032903396E0,1.180279483E0,3.423338892E0
7.436292333E0,-8.589096402E-1,-3.185919768E0,9.347899809E-1,3.429525163E0
7.446235333E0,-5.973303549E-1,-3.196708465E0,5.808667883E-1,3.303506439E0
7.456179333E0,-4.723386651E-1,-3.278218067E0,2.233694851E-1,3.319595071E0
7.466123333E0,-4.580514322E-1,-3.280828264E0,-1.938477704E-1,3.318316165E0
7.476067333E0,-6.079168850E-1,-3.142235219E0,-6.291908097E-1,3.261761210E0
7.486011333E0,-6.571171117E-1,-3.082919310E0,-1.154181898E0,3.356833362E0
7.495954333E0,-7.445718697E-1,-3.236105250E0,-1.696095997E0,3.728740550E0
7.505898333E0,-8.207267372E-1,-3.323231102E0,-2.029514466E0,3.979495735E0
7.515842333E0,-6.660133579E-1,-3.146987836E0,-2.355445576E0,3.986882253E0
7.525786333E0,-4.527162865E-1,-3.205903212E0,-2.587147343E0,4.144405725E0
7.535730333E0,-2.747271882E-1,-3.373063413E0,-2.763527142E0,4.369223510E0
7.545673333E0,-9.538577512E-2,-3.334816775E0,-3.041621887E0,4.514594675E0
7.555617333E0,1.734225690E-2,-3.288431398E0,-3.296015822E0,4.655942666E0
7.565561333E0,7.441137403E-2,-3.341494880E0,-3.501158366E0,4.840375501E0
7.575505333E0,1.202399500E-1,-3.273327456E0,-3.717902664E0,4.954990463E0
7.585448333E0,9.057644024E-2,-3.051049646E0,-3.906926773E0,4.957941593E0
7.595392333E0,1.373423249E-1,-2.835758089E0,-4.111135225E0,4.996180510E0
7.605336333E0,2.113585733E-1,-2.807777992E0,-4.217167172E0,5.070777915E0
7.615280333E0,3.323428738E-1,-2.816181611E0,-4.129939871E0,5.009763865E0
7.625224333E0,5.391436887E-1,-2.632555650E0,-3.985656316E0,4.806920162E0
7.635167333E0,8.251333451E-1,-2.395128874E0,-3.919033141E0,4.666509201E0
7.645111333E0,8.825497869E-1,-2.350995845E0,-3.838903483E0,4.587292833E0
7.655055333E0,7.815141396E-1,-2.272399911E0,-3.853406039E0,4.541288783E0
7.664999333E0,7.062177895E-1,-2.141954961E0,-3.868785386E0,4.478193272E0
7.674943333E0,7.708403398E-1,-1.921947625E0,-3.831232228E0,4.355045108E0
7.684886333E0,8.927942549E-1,-1.811822335E0,-3.740484610E0,4.251000691E0
7.694830333E0,1.051955026E0,-1.714701837E0,-3.501758291E0,4.038455508E0
7.704774333E0,1.115124544E0,-1.281227860E0,-3.077296042E0,3.514939332E0
7.714718333E0,9.194226211E-1,-6.720871532E-1,-2.530618801E0,2.775080290E0
7.724661333E0,7.103276512E-1,-7.077996075E-2,-2.057165072E0,2.177499325E0
7.734605333E0,6.072675517E-1,4.550332457E-1,-1.770400952E0,1.926174619E0
7.744549333E0,6.116883391E-1,7.430916470E-1,-1.657961188E0,1.917076712E0
7.754493333E0,6.836545537E-1,9.922070074E-1,-1.680139092E0,2.067540970E0
7.764437333E0,7.820694058E-1,1.225981613E0,-1.816042124E0,2.326515091E0
7.774380333E0,8.123940164E-1,1.338051687E0,-1.721806204E0,2.327011594E0
7.784324333E0,9.708175271E-1,1.457919023E0,-1.602724149E0,2.374181806E0
7.794268333E0,1.092667508E0,1.551189129E0,-1.357732538E0,2.333141153E0
7.804212333E0,1.063446998E0,1.538875478E0,-1.035850479E0,2.138233726E0
7.814156333E0,9.798096677E-1,1.478927484E0,-9.133876368E-1,1.995377273E0
7.824099333E0,8.881610674E-1,1.312651382E0,-9.795115328E-1,1.863149638E0
7.834043333E0,6.937253594E-1,1.200517573E0,-8.985194099E-1,1.652221065E0
7.843987333E0,5.402504204E-1,1.286298566E0,-4.715230516E-1,1.472673930E0
7.853931333E0,4.411168724E-1,1.594569038E0,4.287061572E-2,1.655014320E0
7.863875333E0,4.864268003E-1,2.012016966E0,3.210261726E-1,2.094726976E0
7.873818333E0,5.108241615E-1,2.181618964E0,3.210109699E-1,2.263504069E0
7.883762333E0,5.509351107E-1,2.238099559E0,3.268499994E-1,2.327971231E0
7.893706333E0,7.328917640E-1,2.362787924E0,1.341596854E-1,2.477477736E0
7.903650333E0,6.349733406E-1,2.313663127E0,6.245410582E-2,2.400026817E0
7.913594333E0,4.447032622E-1,2.212309245E0,2.780742806E-1,2.273631125E0
7.923537333E0,3.264933193E-1,2.105202287E0,5.994360834E-1,2.213096965E0
7.933481333E0,3.564991104E-1,2.043669114E0,7.583791924E-1,2.208803762E0
7.943425333E0,3.561773673E-1,1.968511342E0,7.542474767E-1,2.137940242E0
7.953369333E0,4.709116521E-1,1.817801113E0,6.758779031E-1,1.995737861E0
7.963312333E0,4.530515512E-1,1.817913964E0,8.289866602E-1,2.048727843E0
7.973256333E0,3.640203108E-1,2.139005041E0,1.162228324E0,2.461428047E0
7.983200333E0,2.576866476E-1,2.275899469E0,1.378269421E0,2.673153082E0
7.993144333E0,2.664115705E-1,2.183986502E0,1.243106353E0,2.527070551E0
8.003088333E0,2.384322050E-1,1.937246865E0,9.834385228E-1,2.185618142E0
8.013031333E0,2.382897522E-1,1.703779823E0,8.224359515E-1,1.906842570E0
8.022975333E0,2.270391977E-1,1.613849062E0,9.019306755E-1,1.862668659E0
8.032919333E0,1.291673326E-1,1.684423785E0,1.094181864E0,2.012759707E0
8.042863333E0,-3.736663163E-3,1.769083282E0,1.425048316E0,2.271658496E0
8.052807333E0,-4.785975248E-2,1.893806146E0,1.808370724E0,2.618968680E0
8.062750333E0,-5.314417362E-2,2.145977261E0,1.764386798E0,2.778687367E0
8.072694333E0,-7.611094035E-2,2.146265529E0,1.671111429E0,2.721187609E0
8.082638333E0,-1.930429012E-2,2.141177866E0,1.705302438E0,2.737347570E0
8.092582333E0,3.220112823E-2,2.157377577E0,1.733601208E0,2.767794803E0
8.102525333E0,5.891946852E-3,1.997367936E0,1.811592540E0,2.696549817E0
8.112469333E0,1.693521760E-2,1.792665687E0,1.968309613E0,2.662363574E0
8.122413333E0,5.988747507E-2,1.641084223E0,2.209909548E0,2.753260639E0
8.132357333E0,-1.738852300E-2,1.606226047E0,2.605887669E0,3.061195031E0
8.142301333E0,-7.107582986E-3,1.850816832E0,3.033318549E0,3.553392025E0
8.152244333E0,-2.356764123E-2,2.182529376E0,3.248973218E0,3.914053765E0
8.162188333E0,-1.316120535E-1,2.138918502E0,3.325243714E0,3.955949930E0
8.172132333E0,-2.137406559E-1,1.948950067E0,3.274215063E0,3.816356340E0
8.182076333E0,-4.316295458E-1,1.805984475E0,3.261755231E0,3.753256077E0
8.192020333E0,-7.225688703E-1,1.753277673E0,3.393881840E0,3.887740001E0
8.201963333E0,-8.259298090E-1,1.743593515E0,3.501027389E0,3.997433072E0
8.211907917E0,-8.073385868E-1,1.690142362E0,3.571547148E0,4.032905383E0
8.221851917E0,-7.547119649E-1,1.564185151E0,3.607319244E0,4.003625540E0
8.231795917E0,-5.968121454E-1,1.291069309E0,3.684701296E0,3.949692183E0
8.241739917E0,-4.760646571E-1,1.120075089E0,3.759993553E0,3.952057348E0
8.251682917E0,-5.011864883E-1,9.277391160E-1,3.718983521E0,3.865582258E0
8.261626917E0,-5.957590619E-1,5.422397894E-1,3.550215336E0,3.640464501E0
8.271570917E0,-6.207570782E-1,1.054276371E-1,3.291760218E0,3.351438448E0
8.281514917E0,-5.788731802E-1,-2.732538360E-1,3.084127929E0,3.149858235E0
8.291457917E0,-6.130153647E-1,-5.770921183E-1,3.105673749E0,3.217768262E0
8.301401917E0,-6.096225178E-1,-6.466400707E-1,3.297969961E0,3.415609588E0
8.311345917E0,-6.446809611E-1,-6.644144368E-1,3.486104125E0,3.606935272E0
8.321289917E0,-7.396825741E-1,-7.429624236E-1,3.667883534E0,3.814773007E0
8.331233917E0,-6.771970350E-1,-9.952528220E-1,3.757476912E0,3.945599669E0
8.341176917E0,-5.924920763E-1,-1.413095437E0,3.807332611E0,4.104103701E0
8.351120917E0,-6.144920790E-1,-1.502897560E0,3.790235645E0,4.123370931E0
8.361064917E0,-7.231849475E-1,-1.504081621E0,3.641275487E0,4.005514345E0
8.371008917E0,-8.663626474E-1,-1.795896274E0,3.417745496E0,3.956868957E0
8.380952917E0,-7.992576617E-1,-2.211923329E0,3.156953831E0,3.936721366E0
8.390895917E0,-7.050427915E-1,-2.478215470E0,2.889402492E0,3.871341371E0
8.400839917E0,-6.998471019E-1,-2.595480795E0,2.669735756E0,3.788640327E0
8.410783917E0,-8.080985056E-1,-2.705233033E0,2.498566996E0,3.770165247E0
8.420727917E0,-9.687370147E-1,-2.733036543E0,2.342981358E0,3.727935326E0
8.430670917E0,-1.097335413E0,-2.747278606E0,2.068293200E0,3.609642851E0
8.440614917E0,-1.329045074E0,-2.860516954E0,1.824609903E0,3.643915388E0
8.450558917E0,-1.385040497E0,-3.069892298E0,1.532903132E0,3.700319974E0
8.460502917E0,-1.331955672E0,-3.183701334E0,1.293146825E0,3.685415690E0
8.470446917E0,-1.311492172E0,-3.094911949E0,1.184647938E0,3.563970037E0
8.480389917E0,-1.197822299E0,-2.955431882E0,1.058535483E0,3.360037684E0
8.490333917E0,-9.508717243E-1,-2.957594767E0,1.078535592E0,3.288580676E0
8.500277917E0,-6.190558308E-1,-2.872407267E0,1.072716150E0,3.128046286E0
8.510221917E0,-3.714835507E-1,-2.657287034E0,9.299996495E-1,2.839731282E0
8.520165917E0,-2.532809168E-1,-2.506658666E0,6.278874654E-1,2.596484461E0
8.530108917E0,-1.898009124E-1,-2.608791981E0,1.575467938E-1,2.620427633E0
8.540052917E0,-2.703476237E-1,-2.763589999E0,-2.146299443E-1,2.785064368E0
8.549996917E0,-3.370348258E-1,-2.804118805E0,-7.338492456E-1,2.918083183E0
8.559940917E0,-5.329858397E-1,-2.780722926E0,-1.078588801E0,3.029826348E0
8.569883917E0,-5.900781995E-1,-2.745642555E0,-1.360040726E0,3.120329486E0
8.579827917E0,-4.938572958E-1,-2.783343648E0,-1.555574541E0,3.226563039E0
8.589771917E0,-3.129020512E-1,-2.805609845E0,-1.659835659E0,3.274814302E0
8.599715917E0,9.990888879E-2,-2.593437778E0,-1.810952562E0,3.164719652E0
8.609659917E0,5.953532651E-1,-2.361933646E0,-1.827684662E0,3.045259805E0
8.619602917E0,1.034955416E0,-2.214163982E0,-1.788831083E0,3.028790434E0
8.629546917E0,1.195168540E0,-2.225078394E0,-1.960868447E0,3.197562629E0
8.639490917E0,1.189483000E0,-2.418255197E0,-2.156204041E0,3.451382893E0
8.649434917E0,1.183127369E0,-2.589066399E0,-2.364567232E0,3.700572035E0
8.659378917E0,1.058950050E0,-2.316193217E0,-2.544089032E0,3.599793776E0
8.669321917E0,9.251704341E-1,-1.943233244E0,-2.770964507E0,3.508609422E0
8.679265917E0,7.268447198E-1,-1.804691656E0,-2.740309018E0,3.360730386E0
8.689209917E0,6.359007820E-1,-1.851438391E0,-2.778849770E0,3.399146946E0
8.699153917E0,5.582230072E-1,-1.891020532E0,-2.792973720E0,3.418811749E0
8.709096917E0,7.390825036E-1,-1.983645691E0,-2.771571448E0,3.487506483E0
8.719040917E0,1.042345420E0,-1.995314394E0,-2.626806668E0,3.459461920E0
8.728984917E0,1.386226312E0,-1.702060157E0,-2.498878945E0,3.326113069E0
8.738928917E0,1.612014498E0,-1.424846002E0,-2.312585485E0,3.158611799E0
8.748872917E0,1.802053830E0,-1.365759888E0,-2.108728743E0,3.091833597E0
8.758815917E0,1.933943481E0,-1.491539344E0,-2.004114454E0,3.159319823E0
8.768759917E0,1.977525849E0,-1.768035461E0,-2.047328301E0,3.350837365E0
8.778703917E0,1.908944733E0,-2.146855513E0,-2.141929234E0,3.583422865E0
8.788647917E0,1.732313505E0,-2.469440553E0,-2.210173257E0,3.739506993E0
8.798590917E0,1.445767193E0,-2.542687454E0,-2.245733684E0,3.687658071E0
8.808534917E0,1.146680505E0,-2.446823523E0,-2.203132625E0,3.486490341E0
8.818478917E0,8.841919774E-1,-2.472061860E0,-2.068260748E0,3.342242932E0
8.828422917E0,7.593138698E-1,-2.511614181E0,-1.986075794E0,3.290784162E0
8.838366917E0,6.557925712E-1,-2.131635211E0,-1.835127875E0,2.888187474E0
8.848309917E0,5.719917382E-1,-1.645523429E0,-1.657028703E0,2.404301567E0
8.858253917E0,6.404407796E-1,-1.421366324E0,-1.344937660E0,2.058957000E0
8.868197917E0,9.364140451E-1,-1.206397533E0,-1.182232161E0,1.931305039E0
8.878141917E0,1.198633966E0,-8.533835828E-1,-1.192631141E0,1.894031669E0
8.888085917E0,1.305562803E0,-5.694112158E-1,-1.288097462E0,1.920395385E0
8.898028917E0,1.244655865E0,-3.847140455E-1,-1.376243945E0,1.895051587E0
8.907972917E0,1.312025145E0,-2.207779992E-1,-1.496098125E0,2.002114509E0
8.917916917E0,1.329713704E0,-3.572642916E-1,-1.591364910E0,2.104333287E0
8.927860917E0,1.075443292E0,-5.212798601E-1,-1.562125615E0,1.966862325E0
8.937803917E0,8.558133933E-1,-4.730186963E-1,-1.539147373E0,1.823496062E0
8.947747917E0,5.776818100E-1,-3.188100779E-1,-1.297179065E0,1.455345205E0
8.957691917E0,3.207349813E-1,-1.665094060E-1,-1.066544853E0,1.126105782E0
8.967635917E0,1.743183259E-1,-8.502319336E-2,-7.879086547E-1,8.114282903E-1
8.977579917E0,2.488753322E-1,9.795021772E-2,-5.627851510E-1,6.231053701E-1
8.987522917E0,4.342080582E-1,4.970092374E-1,-4.601288749E-1,8.045330331E-1
8.997466917E0,4.976620790E-1,8.028957993E-1,-3.668624230E-1,1.013359387E0
9.007410917E0,5.076128706E-1,1.094377161E0,-3.085703608E-1,1.245209968E0
9.017354917E0,5.272945985E-1,1.552741565E0,-3.522561514E-1,1.677238909E0
9.027298917E0,5.656727985E-1,1.796803762E0,-4.624750701E-1,1.939683650E0
9.037241917E0,4.965356129E-1,1.920364199E0,-5.269989852E-1,2.052333843E0
9.047185917E0,3.109025958E-1,2.199213821E0,-5.713384581E-1,2.293388211E0
9.057129917E0,6.860684305E-2,2.533802610E0,-3.780458808E-1,2.562768279E0
9.067073917E0,-2.567936133E-1,2.863973243E0,5.379320999E-2,2.875965822E0
9.077016917E0,-4.837533072E-1,3.225069215E0,4.132274079E-1,3.287224604E0
9.086960917E0,-6.220031199E-1,3.383681372E0,6.542695177E-1,3.502035995E0
9.096904917E0,-5.809945500E-1,3.349984453E0,7.245840400E-1,3.476344708E0
9.106848917E0,-4.757967085E-1,3.192920054E0,6.613773930E-1,3.295230043E0
9.116792917E0,-3.763387862E-1,3.087287180E0,7.066944838E-1,3.189418459E0
9.126735917E0,-2.775687523E-1,3.208164330E0,9.050934345E-1,3.344930030E0
9.136679917E0,-3.467673701E-1,3.289837654E0,1.188349518E0,3.515032571E0
9.146623917E0,-5.744044821E-1,3.108604374E0,1.551772681E0,3.521556491E0
9.156567917E0,-8.189350042E-1,2.995782348E0,1.611499650E0,3.498899476E0
9.166510917E0,-9.768071955E-1,2.721202948E0,1.421449939E0,3.221741410E0
9.176454917E0,-1.042049843E0,2.281898128E0,1.100781543E0,2.739461069E0
9.186398917E0,-9.810402873E-1,2.032549464E0,1.048924999E0,2.488762950E0
9.196342917E0,-8.788672104E-1,2.255755811E0,1.566649168E0,2.883614306E0
9.206286917E0,-7.922661459E-1,2.641583167E0,2.153643984E0,3.499118415E0
9.216229417E0,-7.188818353E-1,2.768540837E0,2.623049247E0,3.880978847E0
9.226173417E0,-6.395728335E-1,2.567992449E0,2.689120445E0,3.772930876E0
9.236117417E0,-6.656215945E-1,2.213062366E0,2.354646846E0,3.299251266E0
9.246061417E0,-7.411565110E-1,1.990101601E0,2.099515870E0,2.986265937E0
9.256005417E0,-6.129978231E-1,1.950034726E0,2.076115313E0,2.913529913E0
9.265948417E0,-4.722462791E-1,1.854657283E0,2.195669092E0,2.912684835E0
9.275892417E0,-5.381569710E-1,1.733552676E0,2.393243001E0,3.003735985E0
9.285836417E0,-7.192145419E-1,1.699846401E0,2.676248969E0,3.251008442E0
9.295780417E0,-7.725478730E-1,1.740484550E0,2.868387891E0,3.442929825E0
9.305723417E0,-6.226138616E-1,1.799209891E0,2.998718820E0,3.552058391E0
9.315667417E0,-4.576758948E-1,1.812812269E0,3.013705233E0,3.546572258E0
9.325611417E0,-4.555650499E-1,1.616096147E0,3.100193739E0,3.525692484E0
9.335555417E0,-5.041595051E-1,1.428914495E0,3.249638046E0,3.585543316E0
9.345499417E0,-7.028999332E-1,1.402003269E0,3.655499716E0,3.977732980E0
9.355442417E0,-8.971549621E-1,1.535401647E0,4.071700433E0,4.443094604E0
9.365386417E0,-8.259265199E-1,1.604080703E0,4.282846899E0,4.647365606E0
9.375330417E0,-7.414421475E-1,1.592817796E0,4.312701613E0,4.656844446E0
9.385274417E0,-6.581152314E-1,1.421785569E0,4.218908765E0,4.500420095E0
9.395217417E0,-6.258754385E-1,1.216488073E0,4.099758883E0,4.321988685E0
9.405161417E0,-6.533421493E-1,9.652016419E-1,3.982440348E0,4.149494101E0
9.415105417E0,-7.513990787E-1,6.866245008E-1,3.908420445E0,4.038787461E0
9.425049417E0,-8.936217821E-1,4.288061446E-1,3.873047129E0,3.997865513E0
9.434993417E0,-1.053675277E0,2.119966507E-1,3.930465617E0,4.074767986E0
9.444936417E0,-1.194205796E0,4.853013575E-2,4.124951319E0,4.294613608E0
9.454880417E0,-1.271458040E0,-2.219076812E-2,4.340013957E0,4.522479312E0
9.464824417E0,-1.244058572E0,-1.363851357E-1,4.501405295E0,4.672144290E0
9.474768417E0,-1.166594659E0,-3.228557664E-1,4.567367735E0,4.725042536E0
9.484711417E0,-1.098536285E0,-5.828948951E-1,4.405804489E0,4.577953868E0
9.494655417E0,-1.107819032E0,-9.032001060E-1,4.237977705E0,4.472525961E0
9.504599417E0,-1.082712550E0,-1.069739918E0,4.109765807E0,4.382554614E0
9.514543417E0,-1.036470576E0,-1.276411509E0,3.928552993E0,4.258758764E0
9.524487417E0,-9.241723144E-1,-1.808416332E0,3.796130515E0,4.305237622E0
9.534430417E0,-8.993543923E-1,-2.270261584E0,3.771767507E0,4.493234482E0
9.544374417E0,-9.301862488E-1,-2.286492285E0,3.635231805E0,4.394110115E0
9.554318417E0,-1.051009751E0,-2.302949274E0,3.316280809E0,4.172039700E0
9.564262417E0,-1.205796293E0,-2.461907001E0,3.097241772E0,4.136162155E0
9.574206417E0,-1.202761881E0,-2.525441676E0,2.931185525E0,4.051708329E0
9.584149417E0,-1.126216566E0,-2.576529969E0,2.724240577E0,3.915144589E0
9.594093417E0,-1.039655993E0,-2.706139351E0,2.501289167E0,3.828906145E0
9.604037417E0,-7.595745094E-1,-2.992269341E0,2.342385820E0,3.875229099E0
9.613981417E0,-3.627764618E-1,-3.359619495E0,2.067451494E0,3.961439838E0
9.623924417E0,-2.667713204E-1,-3.476613509E0,1.818364785E0,3.932487625E0
9.633868417E0,-3.242998825E-1,-3.641437747E0,1.283198957E0,3.874511433E0
9.643812417E0,-5.802582394E-1,-3.928306825E0,7.574284351E-1,4.042522971E0
9.653756417E0,-7.161924085E-1,-4.178120343E0,4.218239844E-1,4.259994911E0
9.663700417E0,-5.136635694E-1,-4.255881295E0,-8.493314624E-2,4.287608832E0
9.673643417E0,-2.515543802E-1,-4.276718432E0,-4.574960929E-1,4.308468734E0
9.683587417E0,-5.987695009E-2,-4.238885778E0,-8.233516985E-1,4.318523579E0
9.693531417E0,6.764936149E-3,-4.269915782E0,-1.338821180E0,4.474893150E0
9.703475417E0,-3.535986722E-2,-4.244611956E0,-1.682538643E0,4.566061460E0
9.713418417E0,7.591878623E-2,-4.101679108E0,-2.056199697E0,4.588844338E0
9.723362417E0,2.530794802E-1,-4.087717711E0,-2.487732398E0,4.791899185E0
9.733306417E0,3.452504562E-1,-4.212854558E0,-2.809155012E0,5.075302285E0
9.743250417E0,5.132849622E-1,-4.128226052E0,-3.074725022E0,5.172972622E0
9.753194417E0,8.164009671E-1,-3.800764434E0,-3.476772553E0,5.215387637E0
9.763137417E0,1.024466096E0,-3.595158205E0,-3.837543420E0,5.357371819E0
9.773081417E0,1.120871918E0,-3.628551069E0,-4.105648198E0,5.592770677E0
9.783025417E0,1.154920693E0,-3.616306415E0,-4.325566657E0,5.755175131E0
9.792969417E0,1.106920900E0,-3.493307894E0,-4.438990946E0,5.756137120E0
9.802912417E0,1.025245822E0,-3.487306312E0,-4.554824288E0,5.827422982E0
9.812856417E0,9.590492016E-1,-3.510487014E0,-4.536108520E0,5.815459995E0
9.822800417E0,9.173730259E-1,-3.576609668E0,-4.397259952E0,5.741916498E0
9.832744417E0,9.089701384E-1,-3.711785599E0,-4.184638819E0,5.666990479E0
9.842688417E0,9.622084522E-1,-3.802936674E0,-3.890109889E0,5.524592963E0
9.852631417E0,1.099134748E0,-3.753037705E0,-3.520341911E0,5.261767420E0
9.862575417E0,1.297658244E0,-3.730096155E0,-3.084337844E0,5.011055196E0
9.872519417E0,1.405982007E0,-3.832742856E0,-2.627028278E0,4.854686476E0
9.882463417E0,1.347839341E0,-3.837776724E0,-2.414767333E0,4.730359642E0
9.892406417E0,1.082734185E0,-3.711162871E0,-2.286195831E0,4.491295420E0
9.902350417E0,7.782962707E-1,-3.554460415E0,-2.089193196E0,4.195791002E0
9.912294417E0,6.604039778E-1,-3.438687299E0,-1.947722444E0,4.006785055E0
9.922238417E0,5.939021324E-1,-3.239608317E0,-1.749148662E0,3.729249634E0
9.932182417E0,6.437442371E-1,-2.917023277E0,-1.573690677E0,3.376378798E0
9.942125417E0,6.728895374E-1,-2.543637042E0,-1.377042090E0,2.969699421E0
9.952069417E0,7.123339771E-1,-2.146174312E0,-1.236199330E0,2.577144283E0
9.962013417E0,7.841795929E-1,-1.737661514E0,-1.223127294E0,2.265048686E0
9.971957417E0,8.324059658E-1,-1.391734389E0,-1.376292185E0,2.126970728E0
9.981900417E0,8.489255194E-1,-1.035001609E0,-1.488223095E0,2.001677009E0
9.991844417E0,1.006173228E0,-5.482875645E-1,-1.386765718E0,1.798922726E0
1.000178842E1,1.153577734E0,1.155865896E-1,-9.507458630E-1,1.499339703E0
1.001173242E1,1.213876853E0,8.850485945E-1,-2.117232934E-1,1.517113965E0
1.002167642E1,1.131385797E0,1.439627763E0,1.309252980E-1,1.835675176E0
1.003161942E1,8.837516090E-1,1.598850954E0,2.905379131E-2,1.827070169E0
1.004156342E1,5.135067178E-1,1.666641233E0,-1.232794788E-1,1.748307747E0
1.005150742E1,3.325399250E-1,1.912679788E0,-2.746530747E-1,1.960704232E0
1.006145142E1,3.220891234E-1,2.016067917E0,-5.361988847E-1,2.110871974E0
1.007139542E1,2.713946407E-1,1.892986366E0,-7.640777425E-1,2.059336600E0
1.008133842E1,2.311056438E-1,1.986106199E0,-6.511564600E-1,2.102862903E0
1.009128242E1,1.896477154E-1,2.104241005E0,-2.671885192E-1,2.129597654E0
1.010122642E1,7.455083013E-2,2.106385764E0,2.810651314E-1,2.126362251E0
1.011117042E1,1.662761752E-1,2.364361410E0,5.619196900E-1,2.435899502E0
1.012111342E1,3.795623196E-1,2.337848380E0,3.573070494E-1,2.395260097E0
1.013105742E1,4.408613126E-1,1.921320219E0,1.876032730E-1,1.980157839E0
1.014100142E1,3.202057717E-1,2.007620444E0,3.940216799E-1,2.070827049E0
1.015094542E1,9.820537560E-2,2.234900547E0,5.477718401E-1,2.303145402E0
1.016088842E1,-2.514742368E-1,2.034221182E0,8.409898245E-1,2.215526799E0
1.017083242E1,-3.985898537E-1,1.730039669E0,1.038906380E0,2.056997227E0
1.018077642E1,-5.038534033E-1,1.454335265E0,1.062803366E0,1.870430514E0
1.019072042E1,-6.880006430E-1,1.164481768E0,1.085724451E0,1.734404871E0
1.020066442E1,-9.314026889E-1,1.510746862E0,1.547051055E0,2.354407360E0
1.021060742E1,-9.417829585E-1,2.214738763E0,1.855201074E0,3.038715840E0
1.022055121E1,-7.948504691E-1,2.277046108E0,2.112242043E0,3.205977650E0
1.023049521E1,-6.233503184E-1,2.028632998E0,2.110719135E0,2.993167675E0
1.024043921E1,-5.100116909E-1,1.878136777E0,1.867410060E0,2.697170742E0
1.025038221E1,-2.085432851E-1,1.688701023E0,1.408699501E0,2.208989754E0
1.026032621E1,-2.091943909E-1,1.504979169E0,1.632356669E0,2.230092573E0
1.027027021E1,-3.970888369E-1,1.559682795E0,2.192918562E0,2.720143707E0
1.028021421E1,-5.943376037E-1,1.871859791E0,2.888609902E0,3.493016380E0
1.029015821E1,-6.298424819E-1,1.941927561E0,3.014593425E0,3.640818277E0
1.030010121E1,-5.737241220E-1,1.769340559E0,2.708487593E0,3.285670468E0
1.031004521E1,-4.522034857E-1,1.545150710E0,1.987390101E0,2.557674358E0
1.031998921E1,-5.848537123E-1,1.396357198E0,1.957548252E0,2.474643903E0
1.032993321E1,-6.539822001E-1,1.806925877E0,2.626154996E0,3.254130284E0
1.033987621E1,-6.501253036E-1,2.230063730E0,3.175646210E0,3.934536313E0
1.034982021E1,-7.431667838E-1,2.188571888E0,3.472945551E0,4.171749582E0
1.035976421E1,-8.031524920E-1,2.188293561E0,3.540140584E0,4.238664646E0
1.036970821E1,-7.913691831E-1,2.291694553E0,3.585651217E0,4.328397366E0
1.037965221E1,-6.843543193E-1,2.428236979E0,3.801265540E0,4.562268664E0
1.038959521E1,-6.229591396E-1,2.603074574E0,4.032657405E0,4.840082755E0
1.039953921E1,-6.720851067E-1,2.613739895E0,4.059949869E0,4.875092570E0
1.040948321E1,-6.558199069E-1,2.357477483E0,3.919551204E0,4.620679764E0
1.041942721E1,-6.104083836E-1,1.990568794E0,3.597762555E0,4.156784565E0
1.042937021E1,-7.060863733E-1,1.672397232E0,3.388577830E0,3.844207354E0
1.043931421E1,-7.072604942E-1,1.475180588E0,3.353714976E0,3.731458069E0
1.044925821E1,-7.585288811E-1,1.327574646E0,3.490316459E0,3.810528767E0
1.045920221E1,-8.451717532E-1,1.229523271E0,3.635794015E0,3.930017924E0
1.046914621E1,-8.910738578E-1,1.079719945E0,3.678383380E0,3.935773376E0
1.047908921E1,-9.627902502E-1,8.293380779E-1,3.691629077E0,3.904214640E0
1.048903321E1,-1.006897406E0,5.521496505E-1,3.683371639E0,3.858229938E0
1.049897721E1,-1.010940902E0,3.210916615E-1,3.673578722E0,3.823647734E0
1.050892121E1,-1.038381081E0,1.044920826E-1,3.712791320E0,3.856679044E0
1.051886421E1,-1.102127060E0,-1.621199012E-2,3.766666396E0,3.924630253E0
1.052880821E1,-1.176796954E0,-2.789952171E-1,3.623051763E0,3.819580275E0
1.053875221E1,-1.227546912E0,-5.705233562E-1,3.711583285E0,3.950723833E0
1.054869621E1,-1.155087924E0,-7.521361202E-1,3.740349247E0,3.986245019E0
1.055864021E1,-1.103048874E0,-8.758906853E-1,3.668508017E0,3.929612243E0
1.056858321E1,-1.165865512E0,-1.262139040E0,3.527159765E0,3.923403287E0
1.057852721E1,-1.101939145E0,-1.745562857E0,3.391614582E0,3.970429327E0
1.058847121E1,-1.013002922E0,-1.739864160E0,3.476775477E0,4.017619934E0
1.059841521E1,-1.064623311E0,-1.569794970E0,3.547613325E0,4.022839712E0
1.060835821E1,-1.128593605E0,-1.802109525E0,3.461951616E0,4.062810758E0
1.061830221E1,-1.047077571E0,-2.043132924E0,3.182778059E0,3.924390367E0
1.062824621E1,-8.262495786E-1,-2.466932098E0,2.717804546E0,3.762300346E0
1.063819021E1,-5.507632756E-1,-2.868808891E0,2.314488169E0,3.726963928E0
1.064813421E1,-3.102651031E-1,-3.356229864E0,2.035975055E0,3.937732565E0
1.065807721E1,-3.335821912E-1,-3.609131296E0,1.717303848E0,4.010765301E0
1.066802121E1,-5.416046356E-1,-3.540370379E0,1.265250928E0,3.798475736E0
1.067796521E1,-9.308895957E-1,-3.490103620E0,9.366765851E-1,3.731587028E0
1.068790921E1,-8.999551937E-1,-3.610372660E0,4.074854422E-1,3.743094239E0
1.069785221E1,-8.236636475E-1,-3.735862094E0,-3.849280536E-2,3.825776926E0
1.070779621E1,-6.389832880E-1,-3.724668185E0,-3.637985551E-1,3.796551345E0
1.071774021E1,-1.954999012E-1,-3.804407834E0,-5.462427932E-1,3.848391920E0
1.072768421E1,3.303494118E-1,-3.995611786E0,-6.294451636E-1,4.058355023E0
1.073762821E1,7.438102698E-1,-3.970555882E0,-6.618369842E-1,4.093482127E0
1.074757121E1,9.595196101E-1,-3.822793819E0,-7.779129857E-1,4.017409498E0
1.075751521E1,8.943798736E-1,-3.782326409E0,-9.574154896E-1,4.002818112E0
1.076745921E1,9.092753631E-1,-3.709971793E0,-1.285166545E0,4.030176849E0
1.077740321E1,9.421039706E-1,-3.627263512E0,-1.471697987E0,4.026225955E0
1.078734621E1,1.011659524E0,-3.394981116E0,-1.553422766E0,3.868135735E0
1.079729021E1,1.017860204E0,-3.225152830E0,-1.657003852E0,3.766073810E0
1.080723421E1,9.752761021E-1,-3.149756493E0,-1.737222388E0,3.726938565E0
1.081717821E1,9.441057649E-1,-3.032915091E0,-1.792062255E0,3.647108001E0
1.082712221E1,8.260171518E-1,-2.931582259E0,-1.948208640E0,3.615521509E0
1.083706521E1,6.637791368E-1,-2.866221498E0,-2.076922229E0,3.601310090E0
1.084700921E1,5.714454621E-1,-2.811084008E0,-2.162583354E0,3.592423970E0
1.085695321E1,4.786562893E-1,-2.594690251E0,-2.143229654E0,3.399259139E0
1.086689721E1,4.448497349E-1,-2.365387012E0,-2.022569436E0,3.143840665E0
1.087684021E1,5.028488517E-1,-2.191107826E0,-1.898411998E0,2.942410336E0
1.088678421E1,7.290346482E-1,-2.004147783E0,-1.837803268E0,2.815247895E0
1.089672821E1,9.430064884E-1,-1.908394949E0,-1.768989726E0,2.767771156E0
1.090667221E1,1.167018583E0,-1.859390019E0,-1.710459682E0,2.782972501E0
1.091661521E1,1.343119176E0,-1.802137592E0,-1.725589938E0,2.833607181E0
1.092655921E1,1.404371976E0,-1.647500373E0,-1.699375700E0,2.752162040E0
1.093650321E1,1.385167674E0,-1.535558352E0,-1.739941344E0,2.702595940E0
1.094644721E1,1.265523116E0,-1.552500660E0,-1.735660012E0,2.650343890E0
1.095639121E1,1.217041805E0,-1.528994853E0,-1.732518303E0,2.611634677E0
1.096633421E1,1.245448309E0,-1.435363973E0,-1.723660649E0,2.565622197E0
1.097627821E1,1.180299656E0,-1.315728187E0,-1.623494629E0,2.399996406E0
1.098622221E1,1.003974383E0,-1.201703389E0,-1.374443295E0,2.083542648E0
1.099616621E1,9.505754167E-1,-1.116611198E0,-1.131353783E0,1.852127310E0
1.100610921E1,8.643015039E-1,-9.846769631E-1,-9.176111537E-1,1.599567454E0
1.101605321E1,7.910050477E-1,-7.750566208E-1,-8.918989000E-1,1.421930167E0
1.102599721E1,6.244890636E-1,-6.860023570E-1,-9.457263207E-1,1.324758128E0
1.103594121E1,4.494757596E-1,-6.173794341E-1,-1.026392169E0,1.279322754E0
1.104588521E1,3.898132561E-1,-5.039972448E-1,-1.188863195E0,1.348837757E0
1.105582821E1,4.787822968E-1,-4.998047912E-1,-1.301534071E0,1.474119485E0
1.106577221E1,5.823041801E-1,-4.006494623E-1,-1.396529983E0,1.565213769E0
1.107571621E1,5.799000974E-1,-2.774041897E-1,-1.355533985E0,1.500236512E0
1.108566021E1,5.342752969E-1,-3.763618827E-1,-1.191859016E0,1.359274172E0
1.109560321E1,5.106363197E-1,-5.577413428E-1,-1.007416492E0,1.259647905E0
1.110554721E1,4.773748720E-1,-6.932809711E-1,-9.314941978E-1,1.255470714E0
1.111549121E1,3.659797128E-1,-8.138926578E-1,-1.046122721E0,1.375040056E0
1.112543521E1,2.967413704E-1,-9.553239405E-1,-1.198221079E0,1.560907757E0
1.113537821E1,1.093778698E-1,-8.369646013E-1,-1.024506734E0,1.327436368E0
1.114532221E1,-1.768858749E-1,-3.278650761E-1,-5.884906805E-1,6.964950838E-1
1.115526621E1,-3.626715774E-1,6.350076199E-2,-3.968743537E-1,5.413614989E-1
1.116521021E1,-4.996638002E-1,3.214454180E-1,-3.897182389E-1,7.105430147E-1
1.117515421E1,-4.601084096E-1,6.030911779E-1,-7.736660068E-1,1.083502565E0
1.118509721E1,-1.967959000E-1,5.865283549E-1,-1.361372283E0,1.495352343E0
1.119504121E1,3.251069810E-1,4.568055367E-1,-1.843870486E0,1.927232268E0
1.120498521E1,7.097107700E-1,7.920076990E-1,-1.446884158E0,1.795672392E0
1.121492933E1,1.019211203E0,1.482226483E0,-1.193208481E0,2.158595215E0
1.122487233E1,6.372564590E-1,1.628771156E0,-7.316515696E-1,1.895865315E0
1.123481633E1,4.648287937E-1,1.425352371E0,-1.646798122E-1,1.508248862E0
1.124476033E1,8.370862234E-1,1.519624105E0,-2.321636975E-1,1.750391599E0
1.125470433E1,1.035554464E0,1.333309595E0,-6.248404813E-1,1.800142536E0
1.126464833E1,6.502039486E-1,1.092438809E0,-2.633047986E-1,1.298274679E0
1.127459133E1,3.117092192E-1,1.883471192E0,5.704788443E-1,1.992504073E0
1.128453533E1,-9.472080052E-2,2.547951118E0,1.145823888E0,2.795342432E0
1.129447933E1,-4.134659743E-1,2.277160129E0,1.368068368E0,2.688498359E0
1.130442333E1,-4.258024665E-1,1.724828630E0,1.364160236E0,2.239927385E0
1.131436633E1,-3.004366280E-1,1.518172826E0,1.197645275E0,1.956901914E0
1.132431033E1,-1.871833698E-1,1.759487416E0,1.304414263E0,2.198256162E0
1.133425433E1,-1.960439846E-1,2.303038151E0,1.770949713E0,2.911817449E0
1.134419833E1,-2.090908403E-1,2.412536035E0,2.067937836E0,3.184401984E0
1.135414133E1,-5.351414888E-1,1.827550761E0,2.386794545E0,3.053376229E0
1.136408533E1,-7.769610590E-1,1.339477238E0,2.658858765E0,3.076913663E0
1.137402933E1,-9.280586663E-1,1.448389816E0,2.860032220E0,3.337500599E0
1.138397333E1,-1.038103850E0,1.717253562E0,3.188985463E0,3.767790822E0
1.139391733E1,-1.152196768E0,2.058202368E0,3.727789428E0,4.411368087E0
1.140386033E1,-1.292187004E0,2.378140959E0,4.066025126E0,4.884451044E0
1.141380433E1,-1.468778764E0,2.407740734E0,4.173882281E0,5.037441791E0
1.142374833E1,-1.504764868E0,2.382633959E0,4.258556980E0,5.106522246E0
1.143369233E1,-1.420606478E0,2.401431588E0,4.421620915E0,5.228358055E0
1.144363533E1,-1.421295865E0,2.397863617E0,4.523095834E0,5.313024354E0
1.145357933E1,-1.509933807E0,2.364459643E0,4.648159298E0,5.429176215E0
1.146352333E1,-1.456374773E0,2.299263189E0,4.707243366E0,5.437442303E0
1.147346733E1,-1.379832382E0,2.006374987E0,4.836726741E0,5.415108822E0
1.148341133E1,-1.468194627E0,1.841645474E0,4.983564359E0,5.512092818E0
1.149335433E1,-1.522001875E0,1.676366907E0,4.951384208E0,5.444529483E0
1.150329833E1,-1.551974410E0,1.300973908E0,4.851186905E0,5.256916593E0
1.151324233E1,-1.468463599E0,7.925152373E-1,4.792085588E0,5.074302910E0
1.152318633E1,-1.271449269E0,5.077242601E-1,4.691664922E0,4.887339451E0
1.153312933E1,-1.235735353E0,3.522175598E-1,4.638255869E0,4.812953000E0
1.154307333E1,-1.344221376E0,2.757160985E-1,4.572776409E0,4.774226070E0
1.155301733E1,-1.468893662E0,2.104114705E-1,4.263045888E0,4.513920892E0
1.156296133E1,-1.444585032E0,-1.370762765E-1,4.084473091E0,4.334574518E0
1.157290533E1,-1.390709080E0,-2.225976527E-1,4.089619811E0,4.325345264E0
1.158284833E1,-1.069025388E0,-1.918067998E-1,4.003668079E0,4.148368742E0
1.159279233E1,-6.230041632E-1,-6.824875957E-1,4.117880573E0,4.220291924E0
1.160273633E1,-2.076629685E-1,-1.371937471E0,3.999981995E0,4.233815335E0
1.161268033E1,6.163346280E-2,-2.360964178E0,3.597866928E0,4.303788675E0
1.162262333E1,-1.334305376E-2,-2.682596122E0,3.172997421E0,4.155046645E0
1.163256733E1,-2.293240337E-1,-2.298590759E0,3.255657755E0,3.991918888E0
1.164251133E1,-4.571733266E-1,-2.111198607E0,3.482683211E0,4.098200747E0
1.165245533E1,-6.485185618E-1,-2.298578480E0,3.563733514E0,4.290015840E0
1.166239833E1,-5.493596881E-1,-2.525666209E0,3.189281040E0,4.105155225E0
1.167234233E1,-2.802447671E-1,-2.873644538E0,2.596190647E0,3.882856672E0
1.168228633E1,3.906013146E-3,-3.034951676E0,2.159864983E0,3.725045460E0
1.169223033E1,4.304750861E-1,-3.278465404E0,1.727904558E0,3.730857591E0
1.170217433E1,6.812296403E-1,-3.882205038E0,1.512505705E0,4.221760686E0
1.171211733E1,6.484889603E-1,-4.096983794E0,9.703781819E-1,4.259982154E0
1.172206133E1,5.271735612E-1,-4.231497821E0,1.993105316E-1,4.268865242E0
1.173200533E1,4.126681948E-1,-4.406089248E0,-2.971204162E-1,4.435335167E0
1.174194933E1,3.866176066E-1,-4.320699434E0,-7.222925162E-1,4.397683851E0
1.175189233E1,2.613299746E-1,-4.086417875E0,-1.003117035E0,4.215844897E0
1.176183633E1,1.818655830E-1,-3.885559586E0,-1.328375714E0,4.110380812E0
1.177178033E1,7.082132980E-2,-3.849328483E0,-1.599346213E0,4.168963149E0
1.178172433E1,6.523840830E-2,-3.871361961E0,-1.941223556E0,4.331287151E0
1.179166733E1,2.696690543E-1,-3.630554910E0,-2.401481289E0,4.361279942E0
1.180161133E1,5.285834710E-1,-3.281130565E0,-2.942796634E0,4.439061871E0
1.181155533E1,7.590558614E-1,-2.999347980E0,-3.527201280E0,4.691844304E0
1.182149933E1,8.787132825E-1,-2.798779128E0,-3.990741640E0,4.952910303E0
1.183144333E1,1.035098673E0,-2.622234730E0,-4.242274239E0,5.093567999E0
1.184138633E1,1.174954862E0,-2.369481232E0,-4.240388512E0,4.997584914E0
1.185133033E1,1.113041181E0,-2.065697329E0,-3.974753598E0,4.615694129E0
1.186127433E1,8.782965222E-1,-1.769729984E0,-3.502361723E0,4.021179757E0
1.187121833E1,5.628599954E-1,-1.634842320E0,-3.115854921E0,3.563435516E0
1.188116133E1,3.165800960E-1,-1.694057073E0,-2.937809251E0,3.405991122E0
1.189110533E1,2.945605052E-1,-1.869192876E0,-2.957714927E0,3.511228488E0
1.190104933E1,3.563626510E-1,-2.020660320E0,-2.898382938E0,3.551152788E0
1.191099333E1,3.995457273E-1,-2.035599956E0,-2.840425044E0,3.517288501E0
1.192093633E1,3.279163854E-1,-2.078907359E0,-2.813179066E0,3.513312030E0
1.193088033E1,2.353506493E-1,-2.231494544E0,-2.736566800E0,3.538891871E0
1.194082433E1,2.517941891E-1,-2.357500287E0,-2.771296922E0,3.647093986E0
1.195076833E1,2.517334512E-1,-2.398864660E0,-2.701689620E0,3.621746566E0
1.196071233E1,2.075073778E-1,-2.359424021E0,-2.483839614E0,3.432113089E0
1.197065533E1,7.142856315E-2,-2.315368760E0,-2.170365413E0,3.174353565E0
1.198059933E1,-4.075311966E-2,-2.346662473E0,-1.961306696E0,3.058628702E0
1.199054333E1,-7.317139886E-2,-2.484729268E0,-2.042503179E0,3.217305211E0
1.200048733E1,-1.294986505E-1,-2.601608092E0,-2.197084849E0,3.407684904E0
1.201043033E1,-3.867311887E-2,-2.564975871E0,-2.390654292E0,3.506540286E0
1.202037433E1,7.652426541E-2,-2.457463117E0,-2.528842417E0,3.527041948E0
1.203031833E1,1.234206891E-1,-2.229517601E0,-2.771298383E0,3.558943120E0
1.204026233E1,1.470165431E-1,-1.841677634E0,-2.938983665E0,3.471457237E0
1.205020533E1,3.024603128E-1,-1.416041849E0,-2.880039930E0,3.223551885E0
1.206014933E1,4.902585538E-1,-1.066073129E0,-2.769888912E0,3.008180505E0
1.207009333E1,6.080572182E-1,-6.703961384E-1,-2.621595629E0,2.773432568E0
1.208003733E1,6.091629998E-1,-1.745885038E-1,-2.357177813E0,2.440870326E0
1.208998133E1,4.278182575E-1,2.937027186E-1,-2.266588948E0,2.325234441E0
1.209992433E1,1.769011507E-1,6.196031302E-1,-2.118853489E0,2.214665249E0
1.210986833E1,1.504018617E-1,9.009500974E-1,-1.878139993E0,2.088478305E0
1.211981233E1,2.810917363E-1,1.108333880E0,-1.458841714E0,1.853546789E0
1.212975633E1,5.525212410E-1,1.262817317E0,-1.197063038E0,1.825636113E0
1.213969933E1,7.351598990E-1,1.592437143E0,-8.389630334E-1,1.944267240E0
1.214964333E1,5.617326887E-1,2.189591643E0,-4.922434643E-2,2.261034766E0
1.215958733E1,4.858030121E-1,2.808387857E0,6.393627723E-1,2.920929934E0
1.216953133E1,3.945929529E-1,3.078817488E0,1.052137313E0,3.277470618E0
1.217947533E1,3.359026587E-1,3.012187881E0,1.185561565E0,3.254483469E0
1.218941833E1,3.575233233E-1,2.706200162E0,8.770636368E-1,2.867155885E0
1.219936233E1,3.871847500E-1,2.372826424E0,3.951948141E-1,2.436472083E0
1.220930633E1,2.068464231E-1,2.270935768E0,5.072389412E-1,2.336070643E0
1.221925008E1,-1.762003254E-1,2.234733317E0,8.951831348E-1,2.413800405E0
1.222919308E1,-7.655823773E-1,2.084273933E0,1.415326735E0,2.633147161E0
1.223913708E1,-1.066781811E0,2.017365999E0,1.822001753E0,2.920184822E0
1.224908108E1,-9.270207855E-1,1.920945997E0,1.906962966E0,2.861102727E0
1.225902508E1,-7.731966215E-1,1.829302002E0,2.008084713E0,2.824284519E0
1.226896808E1,-5.916019839E-1,2.022495761E0,2.210158639E0,3.053732670E0
1.227891208E1,-4.218660843E-1,2.375137244E0,2.567608287E0,3.523047010E0
1.228885608E1,-2.003188840E-1,2.553973750E0,2.726535609E0,3.741243910E0
1.229880008E1,-2.435745388E-1,2.418148193E0,2.818456178E0,3.721621214E0
1.230874408E1,-4.349194086E-1,2.354458566E0,3.028531433E0,3.860651846E0
1.231868708E1,-5.238783628E-1,2.365391105E0,3.414623083E0,4.186785690E0
1.232863108E1,-7.295383859E-1,2.610067259E0,3.785378655E0,4.655509523E0
1.233857508E1,-6.553638241E-1,2.804618157E0,4.018079127E0,4.943717692E0
1.234851908E1,-6.704095870E-1,2.834774587E0,4.316619247E0,5.207551987E0
1.235846208E1,-6.962560344E-1,2.870522125E0,4.787185621E0,5.625105857E0
1.236840608E1,-5.594294339E-1,2.843538394E0,5.167554016E0,5.924718255E0
1.237835008E1,-4.905042100E-1,2.972919150E0,5.442970737E0,6.221316026E0
1.238829408E1,-4.774084569E-1,2.973369970E0,5.449443605E0,6.226177272E0
1.239823708E1,-4.608442451E-1,2.705756359E0,5.214610069E0,5.892847619E0
1.240818108E1,-3.793068694E-1,2.376066366E0,4.755869104E0,5.329902064E0
1.241812508E1,-3.047963485E-1,1.985607432E0,4.352732821E0,4.793935825E0
1.242806908E1,-3.000343761E-1,1.538492485E0,4.167963145E0,4.452964915E0
1.243801308E1,-3.502377291E-1,1.129495538E0,4.256326268E0,4.417549087E0
1.244795608E1,-4.342423010E-1,8.034413445E-1,4.386487627E0,4.480553322E0
1.245790008E1,-5.497124579E-1,4.530948937E-1,4.502094097E0,4.558105969E0
1.246784408E1,-6.507284439E-1,3.326937068E-1,4.739041986E0,4.795065334E0
1.247778808E1,-7.300292596E-1,5.093965638E-1,5.262047360E0,5.336812719E0
1.248773108E1,-7.580526254E-1,6.707364464E-1,5.673635209E0,5.763216779E0
1.249767508E1,-7.229944745E-1,5.281193483E-1,5.654203742E0,5.724652916E0
1.250761908E1,-7.414464598E-1,2.725749743E-1,5.483511822E0,5.540121106E0
1.251756308E1,-8.646837656E-1,1.854146236E-1,5.248622738E0,5.322602487E0
1.252750608E1,-9.731626260E-1,-6.139459491E-2,4.911209743E0,5.007074588E0
1.253745008E1,-1.047740573E0,-5.004631877E-1,4.589303857E0,4.733913138E0
1.254739408E1,-1.226856941E0,-7.571723270E-1,4.581929641E0,4.803391210E0
1.255733808E1,-1.126741207E0,-8.632870120E-1,4.483077782E0,4.702424546E0
1.256728108E1,-1.079498336E0,-1.060076809E0,4.596051836E0,4.838674610E0
1.257722508E1,-9.160595950E-1,-1.194490848E0,4.452544792E0,4.700120072E0
1.258716908E1,-7.679730845E-1,-1.536395089E0,3.890456044E0,4.252756842E0
1.259711308E1,-8.138181058E-1,-2.035918044E0,3.330410314E0,3.987341853E0
1.260705708E1,-7.588146637E-1,-2.476961827E0,2.768798991E0,3.791752555E0
1.261700008E1,-6.365360820E-1,-2.999374877E0,2.429480681E0,3.912007697E0
1.262694408E1,-3.672940207E-1,-3.433626534E0,2.113022354E0,4.048402097E0
1.263688808E1,-1.475525866E-1,-4.100835355E0,1.603918735E0,4.405811808E0
1.264683208E1,-5.733808905E-2,-4.861340010E0,1.200316429E0,5.007661518E0
1.265677508E1,-2.132187188E-3,-4.992265601E0,6.975248802E-1,5.040759995E0
1.266671908E1,-3.413619116E-2,-4.842935314E0,-4.401140749E-2,4.843255593E0
1.267666308E1,-1.761008862E-1,-4.715442624E0,-4.706213379E-1,4.742140351E0
1.268660708E1,-1.309038095E-1,-4.707919012E0,-1.246729873E0,4.871957779E0
1.269655008E1,-9.820764139E-2,-4.765251546E0,-1.962040814E0,5.154306082E0
1.270649408E1,1.200934772E-1,-4.927929856E0,-2.650879070E0,5.596970159E0
1.271643808E1,3.383763233E-1,-5.257858415E0,-3.167939579E0,6.147797559E0
1.272638208E1,4.266150467E-1,-5.463691515E0,-3.421018183E0,6.460440448E0
1.273632608E1,3.826472010E-1,-5.436604874E0,-3.802142038E0,6.645252103E0
1.274626908E1,1.945701939E-1,-5.203957611E0,-4.155371751E0,6.662292906E0
1.275621308E1,4.105724797E-2,-5.061950378E0,-4.488833197E0,6.765696623E0
1.276615708E1,-3.826856464E-3,-5.013312069E0,-4.725551875E0,6.889423275E0
1.277610108E1,2.393002242E-1,-4.767814965E0,-4.917408961E0,6.853483423E0
1.278604408E1,6.479948705E-1,-4.499678612E0,-5.020049815E0,6.772584818E0
1.279598808E1,9.546939030E-1,-4.452013865E0,-5.079320701E0,6.821390378E0
1.280593208E1,1.107309155E0,-4.449512426E0,-5.132228647E0,6.882155569E0
1.281587608E1,1.020053349E0,-4.329461487E0,-5.091187626E0,6.760542659E0
1.282581908E1,8.751306935E-1,-4.107086613E0,-4.988413455E0,6.520604495E0
1.283576308E1,7.673498444E-1,-4.052418655E0,-4.700970181E0,6.253802314E0
1.284570708E1,8.918357500E-1,-3.956610857E0,-4.370070984E0,5.962185915E0
1.285565108E1,1.127104904E0,-3.726604198E0,-4.042612875E0,5.612545159E0
1.286559508E1,1.263917617E0,-3.469719057E0,-3.665410747E0,5.203044688E0
1.287553808E1,1.274413077E0,-3.205654120E0,-3.253764426E0,4.742080764E0
1.288548208E1,1.129529013E0,-2.987691556E0,-2.813314721E0,4.256392409E0
1.289542608E1,9.210465391E-1,-2.866040819E0,-2.457406399E0,3.886047209E0
1.290537008E1,6.866028661E-1,-2.756789103E0,-2.177301965E0,3.579378926E0
1.291531308E1,4.987653024E-1,-2.658457646E0,-1.930367616E0,3.323023174E0
1.292525708E1,4.949381536E-1,-2.716982428E0,-1.714950929E0,3.250848193E0
1.293520108E1,5.281329431E-1,-2.866167703E0,-1.657624242E0,3.352843545E0
1.294514508E1,5.412886667E-1,-2.880630206E0,-1.443202458E0,3.267086951E0
1.295508808E1,5.138630325E-1,-2.665285440E0,-1.079554177E0,2.921170812E0
1.296503208E1,3.485572759E-1,-2.587183596E0,-8.522518542E-1,2.746150826E0
1.297497608E1,1.367150648E-1,-2.501109073E0,-6.219864553E-1,2.580911613E0
1.298492008E1,5.278274260E-2,-2.171876918E0,-5.635891432E-1,2.244430459E0
1.299486408E1,-4.129201367E-2,-1.949928306E0,-6.218531388E-1,2.047102039E0
1.300480708E1,-8.848430648E-2,-1.813489961E0,-5.515716532E-1,1.897579142E0
1.301475108E1,8.446251847E-2,-1.610665838E0,-3.731929842E-1,1.655491275E0
1.302469508E1,3.198894739E-2,-1.122849008E0,1.275733817E-1,1.130525610E0
1.303463908E1,1.345360268E-1,-4.944048876E-1,3.515074155E-1,6.213643042E-1
1.304458208E1,6.415221490E-2,-3.492015660E-1,4.088276705E-1,5.414769658E-1
1.305452608E1,-2.139460758E-1,-2.071411228E-1,8.671909055E-1,9.168971778E-1
1.306447008E1,-3.156560898E-1,5.122576064E-1,1.186728669E0,1.330553102E0
1.307441408E1,-3.858940136E-1,1.163249760E0,1.532293267E0,1.962138336E0
1.308435708E1,-4.481209597E-1,1.409860173E0,1.496939978E0,2.104601482E0
1.309430108E1,-4.624539471E-1,1.384479164E0,1.208798400E0,1.895214970E0
1.310424508E1,-3.682851237E-1,1.400257291E0,9.661844858E-1,1.740651278E0
1.311418908E1,-3.477260211E-1,1.438007500E0,1.151983345E0,1.875058554E0
1.312413208E1,-2.638506362E-1,1.626213584E0,1.797462158E0,2.438248960E0
1.313407608E1,-2.948528659E-1,2.199106817E0,2.497213658E0,3.340521674E0
1.314402008E1,-5.039422810E-1,2.997614865E0,3.131779228E0,4.364366373E0
1.315396408E1,-5.891341665E-1,3.504470229E0,3.112036690E0,4.723681087E0
1.316390808E1,-7.677207041E-1,3.271514234E0,2.738497843E0,4.334924555E0
1.317385108E1,-9.837840933E-1,2.779636513E0,2.516265056E0,3.876312696E0
1.318379508E1,-1.183886338E0,2.655922294E0,2.702977177E0,3.970087620E0
1.319373908E1,-1.238874723E0,3.132145849E0,3.297854186E0,4.713914555E0
1.320368308E1,-1.196065211E0,3.637829431E0,3.825221583E0,5.412642156E0
1.321362608E1,-1.233881786E0,3.694357973E0,4.133417210E0,5.679426285E0
1.322357054E1,-1.204871410E0,3.664057117E0,4.046948000E0,5.590600843E0
1.323351454E1,-1.151308284E0,3.579853703E0,3.892011988E0,5.411896212E0
1.324345854E1,-1.096614305E0,3.428811936E0,3.915808986E0,5.319104647E0
1.325340154E1,-1.013531511E0,3.518641541E0,4.264422323E0,5.620799068E0
1.326334554E1,-8.375463992E-1,3.807134975E0,4.600896839E0,6.030258072E0
1.327328954E1,-8.351162964E-1,3.769961886E0,4.881917531E0,6.224399621E0
1.328323354E1,-9.026250324E-1,3.515682265E0,4.880942216E0,6.082626953E0
1.329317654E1,-1.047305028E0,3.208654327E0,4.527035980E0,5.646801323E0
1.330312054E1,-1.186619911E0,2.659687316E0,4.105038334E0,5.033223932E0
1.331306454E1,-1.158472000E0,2.211949641E0,3.840323187E0,4.580705269E0
1.332300854E1,-1.026845036E0,1.927023008E0,3.671091902E0,4.271386678E0
1.333295254E1,-8.537224290E-1,1.552394825E0,3.563423612E0,3.979542626E0
1.334289554E1,-7.061875302E-1,1.194874426E0,3.550748602E0,3.812380012E0
1.335283954E1,-5.998535746E-1,9.830222011E-1,3.594482267E0,3.774448268E0
1.336278354E1,-5.170736656E-1,8.295801526E-1,3.653348526E0,3.781867773E0
1.337272754E1,-5.064714941E-1,6.063673729E-1,3.720555253E0,3.803514974E0
1.338267054E1,-4.676503676E-1,4.258690882E-1,3.850324849E0,3.901930649E0
1.339261454E1,-3.385178259E-1,2.225017583E-1,3.975105600E0,3.995693417E0
1.340255854E1,-2.910492522E-1,-2.724217772E-2,4.081204498E0,4.091660049E0
1.341250254E1,-1.957495773E-1,-2.212516236E-1,3.959561362E0,3.970566252E0
1.342244654E1,-2.303461270E-1,-3.709555471E-1,3.841676817E0,3.866412824E0
1.343238954E1,-3.398414163E-1,-5.117518222E-1,3.772988405E0,3.822672314E0
1.344233354E1,-3.571588225E-1,-6.826296830E-1,3.547227409E0,3.629926721E0
1.345227754E1,-5.077357718E-1,-7.965112245E-1,3.359695801E0,3.489954386E0
1.346222154E1,-6.359892943E-1,-9.179450297E-1,3.090470696E0,3.286048476E0
1.347216454E1,-7.247702739E-1,-1.124224858E0,2.857236081E0,3.154833039E0
1.348210854E1,-7.760766676E-1,-1.421748147E0,2.809218746E0,3.242741549E0
1.349205254E1,-6.368404296E-1,-1.615620768E0,2.742353497E0,3.245966559E0
1.350199654E1,-6.412650177E-1,-1.599333349E0,2.826656313E0,3.310449198E0
1.351193954E1,-6.179530460E-1,-1.543190138E0,2.659338237E0,3.136141200E0
1.352188354E1,-7.343108833E-1,-1.765677863E0,2.434139743E0,3.095459106E0
1.353182754E1,-7.690999161E-1,-1.863509967E0,2.181590020E0,2.970440893E0
1.354177154E1,-7.365869120E-1,-2.025662613E0,1.939045469E0,2.899270017E0
1.355171454E1,-6.058491634E-1,-2.396274344E0,1.856612007E0,3.091309121E0
1.356165854E1,-4.910194959E-1,-2.619205288E0,1.876657432E0,3.259321954E0
1.357160254E1,-4.987879604E-1,-2.401090695E0,1.968523622E0,3.144695725E0
1.358154654E1,-5.114789034E-1,-2.301585703E0,1.731411425E0,2.925182548E0
1.359148954E1,-5.446109815E-1,-2.407837213E0,1.519272980E0,2.898701701E0
1.360143354E1,-4.265345013E-1,-2.587146758E0,1.075050359E0,2.833900722E0
1.361137754E1,-3.309027046E-1,-2.999150344E0,6.872022057E-1,3.094615688E0
1.362132154E1,-2.550428291E-1,-3.121334932E0,3.830095822E-1,3.155071305E0
1.363126554E1,-1.128942391E-1,-2.912605121E0,4.623978138E-2,2.915158969E0
1.364120854E1,-4.832694501E-2,-3.027222826E0,-2.319730783E-1,3.036482347E0
1.365115254E1,3.257323042E-2,-3.367127904E0,-3.961798507E-1,3.390511733E0
1.366109654E1,2.089607763E-1,-3.460024374E0,-6.570931381E-1,3.528059617E0
1.367104054E1,5.291563520E-1,-3.372343036E0,-1.156409687E0,3.604162505E0
1.368098354E1,6.487231413E-1,-3.250233293E0,-1.479359593E0,3.629512774E0
1.369092754E1,6.907302694E-1,-3.286390720E0,-1.991722450E0,3.904411682E0
1.370087154E1,5.936303830E-1,-3.515585201E0,-2.584595618E0,4.403620198E0
1.371081554E1,4.814635375E-1,-3.522893636E0,-3.153809198E0,4.752799088E0
1.372075854E1,4.220746838E-1,-3.456510197E0,-3.708563198E0,5.087145641E0
1.373070254E1,4.141179389E-1,-3.331928836E0,-4.172142150E0,5.355372401E0
1.374064654E1,5.638646932E-1,-3.298357632E0,-4.519535757E0,5.623460671E0
1.375059054E1,7.982468243E-1,-3.266002648E0,-4.772189267E0,5.837616097E0
1.376053354E1,1.055626347E0,-3.210126656E0,-4.906691599E0,5.957758184E0
1.377047754E1,1.294605559E0,-3.195261864E0,-5.042060489E0,6.108033719E0
1.378042154E1,1.296661586E0,-3.203332191E0,-5.045933685E0,6.115890380E0
1.379036554E1,1.103151492E0,-3.262346385E0,-4.720714474E0,5.843371654E0
1.380030954E1,1.072133183E0,-3.137265671E0,-4.432697003E0,5.535404969E0
1.381025254E1,1.036557700E0,-3.049643975E0,-4.165183963E0,5.265314586E0
1.382019654E1,1.021410487E0,-3.068900025E0,-4.017307879E0,5.157537140E0
1.383014054E1,1.015971554E0,-3.051648400E0,-3.900752991E0,5.055752175E0
1.384008454E1,1.012533098E0,-3.040629907E0,-3.660321915E0,4.865039571E0
1.385002754E1,9.673208191E-1,-3.028174168E0,-3.252322503E0,4.547873132E0
1.385997154E1,8.414293890E-1,-3.002200252E0,-2.767036348E0,4.168656848E0
1.386991554E1,6.716158676E-1,-2.925762525E0,-2.181150602E0,3.710602670E0
1.387985954E1,5.461537693E-1,-2.755015057E0,-1.684255970E0,3.274921385E0
1.388980254E1,3.790087710E-1,-2.694978771E0,-1.325584254E0,3.027165644E0
1.389974654E1,2.656502630E-1,-2.745628522E0,-1.093780745E0,2.967389823E0
1.390969054E1,2.561014675E-1,-2.666804547E0,-9.864819986E-1,2.854922273E0
1.391963454E1,3.452086486E-1,-2.650774405E0,-1.058745398E0,2.875189694E0
1.392957754E1,3.942284887E-1,-2.556629555E0,-9.814569014E-1,2.766772205E0
1.393952154E1,2.734543955E-1,-2.174442092E0,-7.353610432E-1,2.311651267E0
1.394946554E1,1.093508264E-1,-1.904096076E0,-6.657148576E-1,2.020078152E0
1.395940954E1,-9.449597508E-2,-1.926158790E0,-6.866680625E-1,2.047078455E0
1.396935354E1,-8.884698004E-2,-1.883643100E0,-7.355797291E-1,2.024125157E0
1.397929654E1,4.109861702E-3,-1.604167827E0,-6.715614885E-1,1.739070482E0
1.398924054E1,1.104827012E-1,-1.318535435E0,-6.931365448E-1,1.493713624E0
1.399918454E1,2.269713700E-1,-1.350593964E0,-7.152010131E-1,1.545034805E0
1.400912854E1,3.301640551E-1,-1.247629759E0,-4.870283327E-1,1.379414701E0
1.401907154E1,3.509321956E-1,-8.628057861E-1,-7.020196348E-2,9.340854063E-1
1.402901554E1,2.925651428E-1,-3.084499812E-1,5.858839917E-1,7.238755456E-1
1.403895954E1,1.992146373E-1,2.754857183E-2,8.700504863E-1,8.929911782E-1
1.404890354E1,2.184600167E-2,6.438369155E-3,8.512331231E-1,8.515377445E-1
1.405884654E1,-7.251614526E-2,-1.621894830E-1,5.805283807E-1,6.071056091E-1
1.406879054E1,-8.179823466E-2,-2.194115049E-1,3.682121797E-1,4.363628867E-1
1.407873454E1,-1.804922548E-1,1.035278767E-1,6.433448723E-1,6.761568605E-1
1.408867854E1,-2.140487310E-1,5.907278252E-1,1.088477905E0,1.256805622E0
1.409862154E1,-1.527819709E-1,7.849284750E-1,1.381007380E0,1.595818418E0
1.410856554E1,-6.796452641E-2,7.816031635E-1,1.710578381E0,1.881914206E0
1.411850954E1,2.905390095E-2,8.895930505E-1,2.026426259E0,2.213283377E0
1.412845354E1,-6.810665030E-2,1.147027245E0,2.206891215E0,2.488107484E0
1.413839754E1,-3.861284870E-1,1.436607091E0,2.418686721E0,2.839538800E0
1.414834054E1,-4.981851125E-1,1.872971932E0,2.434922100E0,3.112082566E0
1.415828454E1,-6.130808901E-1,2.147072445E0,2.326733408E0,3.224821950E0
1.416822854E1,-7.352107698E-1,1.794263731E0,2.302122477E0,3.009931081E0
1.417817254E1,-6.452458021E-1,1.434754109E0,2.399850501E0,2.869519807E0
1.418811554E1,-4.972960433E-1,1.637004620E0,2.506672114E0,3.034879334E0
1.419805954E1,-4.289429694E-1,1.884896743E0,2.680104039E0,3.304509867E0
1.420800354E1,-6.252699593E-1,2.093694967E0,3.231337430E0,3.900777195E0
1.421794792E1,-7.530143720E-1,2.445029597E0,3.688889072E0,4.489220752E0
1.422789092E1,-7.851439449E-1,2.678463895E0,3.822452926E0,4.733050414E0
1.423783492E1,-9.720838147E-1,2.614948515E0,3.945866598E0,4.832469958E0
1.424777892E1,-1.006206703E0,2.583261868E0,4.052155530E0,4.909751343E0
1.425772292E1,-9.400893125E-1,2.799094293E0,4.132271156E0,5.078814988E0
1.426766692E1,-8.898207995E-1,2.867464616E0,4.246205907E0,5.200422962E0
1.427760992E1,-9.359032908E-1,2.778860587E0,4.358344978E0,5.252918435E0
1.428755392E1,-1.080207311E0,2.730690640E0,4.451816229E0,5.333121688E0
1.429749792E1,-1.115007892E0,2.718888620E0,4.466827785E0,5.346788605E0
1.430744192E1,-1.036453181E0,2.617342365E0,4.325028713E0,5.160483467E0
1.431738492E1,-9.123103604E-1,2.223957483E0,4.093681287E0,4.747264850E0
1.432732892E1,-8.401048484E-1,1.658028284E0,3.974347801E0,4.387513464E0
1.433727292E1,-7.884561002E-1,1.361623567E0,3.939232932E0,4.241843686E0
1.434721692E1,-6.962972572E-1,1.204452749E0,3.809119520E0,4.055234619E0
1.435715992E1,-7.186575946E-1,8.845854950E-1,3.634291281E0,3.808809965E0
1.436710392E1,-7.882762983E-1,5.837906885E-1,3.386403251E0,3.525608893E0
1.437704792E1,-8.434023857E-1,4.773789650E-1,3.193493081E0,3.337306747E0
1.438699192E1,-9.175006413E-1,4.170666897E-1,3.091567926E0,3.251698678E0
1.439693592E1,-1.010229295E0,4.609494585E-1,3.103159447E0,3.295851360E0
1.440687892E1,-1.029507273E0,4.114030766E-1,3.095862122E0,3.288388662E0
1.441682292E1,-9.475614694E-1,1.208748114E-1,3.124141595E0,3.266916615E0
1.442676692E1,-7.027952680E-1,-5.037961006E-2,3.075014459E0,3.154706518E0
1.443671092E1,-5.827495918E-1,6.905970991E-2,3.014237330E0,3.070829369E0
1.444665392E1,-5.947501248E-1,9.235501707E-2,2.919676158E0,2.981067935E0
1.445659792E1,-6.236353701E-1,6.631736577E-2,2.833406631E0,2.901984184E0
1.446654192E1,-7.261464161E-1,1.565375644E-1,2.808428203E0,2.905006299E0
1.447648592E1,-7.071423805E-1,2.748045176E-1,2.613076236E0,2.720980574E0
1.448642892E1,-6.851393080E-1,1.460096526E-1,2.451050183E0,2.549192360E0
1.449637292E1,-7.693305156E-1,-5.592335522E-2,2.330908905E0,2.455225689E0
1.450631692E1,-7.231526417E-1,-5.106157082E-1,2.178721961E0,2.351703112E0
1.451626092E1,-6.092417179E-1,-9.974870431E-1,2.267867441E0,2.551348389E0
1.452620492E1,-5.538924862E-1,-1.060017752E0,2.409567696E0,2.690065241E0
1.453614792E1,-5.962766135E-1,-1.065253934E0,2.432016619E0,2.721216011E0
1.454609192E1,-8.061668048E-1,-1.115261076E0,2.465327037E0,2.823393275E0
1.455603592E1,-7.227311305E-1,-1.100561176E0,2.196109242E0,2.560560679E0
1.456597992E1,-6.786899753E-1,-1.274427549E0,1.717275197E0,2.243617561E0
1.457592292E1,-7.886092973E-1,-1.851196316E0,1.441456772E0,2.475203032E0
1.458586692E1,-5.133354675E-1,-2.394783304E0,1.128703240E0,2.696752005E0
1.459581092E1,-3.582150489E-2,-2.582964830E0,9.326776743E-1,2.746430071E0
1.460575492E1,7.993551640E-1,-2.873314170E0,6.672731405E-1,3.056166953E0
1.461569792E1,1.097317287E0,-3.260620286E0,4.987049299E-1,3.476270485E0
1.462564192E1,1.065939666E0,-3.560522223E0,2.473436540E-1,3.724879160E0
1.463558592E1,1.077204327E0,-3.754445130E0,-3.250858945E-1,3.919427029E0
1.464552992E1,6.042350395E-1,-3.760618621E0,-8.600675350E-1,3.904749487E0
1.465547392E1,1.474599083E-1,-4.007181671E0,-1.573351831E0,4.307514986E0
1.466541692E1,3.946329698E-2,-4.239924243E0,-2.164949722E0,4.760832095E0
1.467536092E1,2.479422627E-1,-4.299027314E0,-2.675342651E0,5.069572912E0
1.468530492E1,4.438207711E-1,-4.217858021E0,-2.857607380E0,5.114022203E0
1.469524892E1,6.316954646E-1,-4.071498705E0,-2.969347671E0,5.078697318E0
1.470519192E1,6.379366364E-1,-3.970223760E0,-3.095067485E0,5.074355387E0
1.471513592E1,5.046742062E-1,-3.894617507E0,-3.289377478E0,5.122767394E0
1.472507992E1,5.089809729E-1,-3.817255921E0,-3.492774044E0,5.199035960E0
1.473502392E1,5.892740612E-1,-3.798058927E0,-3.669703773E0,5.314058836E0
1.474496692E1,6.494017106E-1,-3.793797476E0,-3.758167468E0,5.379446495E0
1.475491092E1,7.862027295E-1,-3.640787537E0,-3.690533894E0,5.243423409E0
1.476485492E1,9.633341874E-1,-3.324147946E0,-3.373320106E0,4.832935015E0
1.477479892E1,1.134395943E0,-3.070696290E0,-3.019255995E0,4.453306258E0
1.478474292E1,1.277905180E0,-2.934164389E0,-2.840211328E0,4.278920740E0
1.479468592E1,1.303412635E0,-2.898040876E0,-2.758657288E0,4.208053641E0
1.480462992E1,1.219562539E0,-2.947679644E0,-2.729926994E0,4.198648528E0
1.481457392E1,1.083383518E0,-3.016287364E0,-2.656380715E0,4.162699582E0
1.482451792E1,9.465709510E-1,-3.044924687E0,-2.502852713E0,4.053619940E0
1.483446092E1,8.347265795E-1,-3.037903351E0,-2.223786160E0,3.856274123E0
1.484440492E1,6.822038595E-1,-2.985155033E0,-1.854156176E0,3.579727337E0
1.485434892E1,4.864268003E-1,-2.931783988E0,-1.573692139E0,3.362807656E0
1.486429292E1,3.106830329E-1,-2.917595719E0,-1.420390424E0,3.259815590E0
1.487423692E1,1.915205786E-1,-2.943000117E0,-1.295752344E0,3.221320220E0
1.488417992E1,8.606911406E-2,-2.976797023E0,-1.041656325E0,3.154960588E0
1.489412392E1,-1.520100653E-2,-2.981294117E0,-7.682949007E-1,3.078737198E0
1.490406792E1,-9.791988529E-2,-3.110174351E0,-5.776189524E-1,3.164872265E0
1.491401192E1,-1.076814464E-1,-3.181101077E0,-4.939891505E-1,3.221028506E0
1.492395492E1,-1.042432105E-1,-3.044598413E0,-4.355813134E-1,3.077365305E0
1.493389892E1,-1.291955455E-1,-2.957121143E0,-3.372656447E-1,2.979094671E0
1.494384292E1,-1.969103958E-1,-2.832428684E0,-3.378462732E-2,2.839466034E0
1.495378692E1,-1.987946610E-1,-2.419573159E0,2.672373435E-1,2.442390097E0
1.496372992E1,-1.848488324E-1,-2.205532322E0,2.314854205E-1,2.225337595E0
1.497367392E1,-1.704874860E-1,-2.250638913E0,-5.171452940E-2,2.257679316E0
1.498361792E1,-4.258432142E-2,-2.150023534E0,-2.854873806E-1,2.169312718E0
1.499356192E1,2.052021861E-2,-1.636338623E0,-1.514978492E-1,1.643464866E0
1.500350592E1,-3.529379368E-2,-1.033233411E0,1.721993315E-1,1.048078978E0
1.501344892E1,-1.834020851E-1,-6.862344915E-1,5.214643398E-1,8.811805489E-1
1.502339292E1,-2.188495874E-1,-3.989508462E-1,8.022754097E-1,9.223354881E-1
1.503333692E1,-1.272321966E-1,-4.610061765E-2,8.599967837E-1,8.705789837E-1
1.504328092E1,-9.459716845E-2,5.774306720E-1,9.647486289E-1,1.128323855E0
1.505322392E1,5.885313917E-2,9.845225966E-1,6.662479775E-1,1.190224686E0
1.506316792E1,-6.782010019E-2,1.273241733E0,9.439721560E-1,1.586451231E0
1.507311192E1,1.148976048E-2,1.870079899E0,1.307039809E0,2.281596789E0
1.508305592E1,3.580867756E-2,2.175592239E0,1.403334095E0,2.589175628E0
1.509299892E1,-7.442104021E-2,2.164412947E0,1.643931817E0,2.718958204E0
1.510294292E1,8.843791248E-2,2.378959569E0,1.732919569E0,2.944533940E0
1.511288692E1,1.164984629E-1,2.892908775E0,1.799735556E0,3.409038155E0
1.512283092E1,-1.826251911E-1,3.068595386E0,1.817499397E0,3.571124985E0
1.513277492E1,-4.723880741E-1,2.996542486E0,1.941564449E0,3.601678758E0
1.514271792E1,-5.125619540E-1,2.989933963E0,2.162761109E0,3.725581897E0
1.515266192E1,-3.200888640E-1,2.913715507E0,2.306167581E0,3.729692192E0
1.516260592E1,-2.736406476E-1,2.744000072E0,2.491442456E0,3.716409708E0
1.517254992E1,-3.056869160E-1,2.708622664E0,2.688552681E0,3.828628572E0
1.518249292E1,-3.958404198E-1,2.865847276E0,2.877525920E0,4.080432044E0
1.519243692E1,-5.188035643E-1,3.075833069E0,3.007376207E0,4.332922554E0
1.520238092E1,-6.295071441E-1,3.081686132E0,2.983278662E0,4.335091722E0
1.521232492E1,-6.917408144E-1,2.803849833E0,2.994238683E0,4.159993333E0
1.522227217E1,-6.725774422E-1,2.622400791E0,3.113837632E0,4.126176332E0
1.523221517E1,-6.307780364E-1,2.671679955E0,3.317381548E0,4.305900027E0
1.524215917E1,-6.065971684E-1,2.708074195E0,3.531645749E0,4.491564055E0
1.525210317E1,-6.079122072E-1,2.670818660E0,3.800438744E0,4.684673330E0
1.526204717E1,-6.608175221E-1,2.659849868E0,3.932463611E0,4.793302741E0
1.527199017E1,-7.243253008E-1,2.539525280E0,3.978029208E0,4.774782945E0
1.528193417E1,-7.706720862E-1,2.390123073E0,3.937052506E0,4.669797233E0
1.529187817E1,-7.997289473E-1,2.274315459E0,3.850441793E0,4.542904269E0
1.530182217E1,-8.126203036E-1,2.041912610E0,3.825697546E0,4.411997346E0
1.531176517E1,-7.638296744E-1,1.802782540E0,3.723441439E0,4.206836912E0
1.532170917E1,-5.719004486E-1,1.574672132E0,3.503729972E0,3.883656288E0
1.533165317E1,-4.963093622E-1,1.212876248E0,3.310971830E0,3.560888405E0
1.534159717E1,-4.946606302E-1,7.578950429E-1,3.117796197E0,3.246497676E0
1.535154117E1,-5.140836553E-1,4.230764580E-1,2.933386710E0,3.007994894E0
1.536148417E1,-5.985300574E-1,1.738026381E-1,2.888609902E0,2.955082529E0
1.537142817E1,-6.774803326E-1,-1.761941493E-2,2.923593793E0,3.001114911E0
1.538137217E1,-7.427420566E-1,-1.660311037E-1,3.056729046E0,3.150051516E0
1.539131617E1,-7.677452624E-1,-1.209759682E-1,3.213896356E0,3.306538637E0
1.540125917E1,-7.414383468E-1,2.226327360E-2,3.365732174E0,3.446502509E0
1.541120317E1,-6.841145834E-1,9.817124248E-2,3.610220633E0,3.675777927E0
1.542114717E1,-8.080436879E-1,2.141513497E-1,3.816676462E0,3.907149167E0
1.543109117E1,-8.906673302E-1,3.054456818E-1,3.861957884E0,3.975085415E0
1.544103517E1,-8.512190167E-1,8.607803106E-2,3.493149143E0,3.596397388E0
1.545097817E1,-9.538395517E-1,-2.141589510E-1,3.324901944E0,3.465638020E0
1.546092217E1,-9.793346545E-1,-3.576847064E-1,3.226196558E0,3.390483586E0
1.547086617E1,-8.436212908E-1,-5.292455220E-1,3.167562726E0,3.320429390E0
1.548081017E1,-8.231022417E-1,-5.740995133E-1,3.259923006E0,3.410892194E0
1.549075317E1,-6.842269962E-1,-5.663425970E-1,3.407916619E0,3.521761804E0
1.550069717E1,-5.138959962E-1,-6.676999873E-1,3.411784844E0,3.514283454E0
1.551064117E1,-5.427578527E-1,-8.714327681E-1,3.417646093E0,3.568513132E0
1.552058517E1,-6.165859669E-1,-1.205520451E0,3.430374312E0,3.687943293E0
1.553052817E1,-7.870596389E-1,-1.357856791E0,3.691846009E0,4.011603781E0
1.554047217E1,-7.351600452E-1,-1.408086712E0,3.729677494E0,4.053845420E0
1.555041617E1,-6.960206839E-1,-1.600384678E0,3.500760756E0,3.911649496E0
1.556036017E1,-6.171208410E-1,-2.068470663E0,2.824858879E0,3.555170418E0
1.557030417E1,-4.754297957E-1,-2.810047297E0,1.860953565E0,3.403754908E0
1.558024717E1,-9.516439953E-1,-3.405164627E0,8.970236921E-1,3.647660063E0
1.559019117E1,-9.948758228E-1,-3.795836400E0,-1.805690360E-1,3.928200231E0
1.560013517E1,-6.572817108E-1,-4.153263245E0,-1.039215113E0,4.331464288E0
1.561007917E1,-4.799562715E-1,-4.406510832E0,-1.473983663E0,4.671222921E0
1.562002317E1,-1.061123461E-1,-4.634462196E0,-1.908162814E0,5.013041492E0
1.562996617E1,3.217285694E-1,-4.966060719E0,-2.123977697E0,5.410780867E0
1.563991017E1,4.288153540E-1,-5.064998531E0,-2.363898311E0,5.605899388E0
1.564985417E1,2.252346008E-1,-5.108916383E0,-2.479142253E0,5.683124453E0
1.565979817E1,-2.695434853E-2,-5.218572142E0,-2.548020115E0,5.807463151E0
1.566974117E1,-2.645791993E-1,-5.129573427E0,-2.726839079E0,5.815339806E0
1.567968517E1,-4.059429467E-1,-4.902218480E0,-3.174863852E0,5.854596158E0
1.568962917E1,-5.302325320E-1,-4.771105778E0,-3.692092761E0,6.056083375E0
1.569957317E1,-4.883419096E-1,-4.648558663E0,-4.162331107E0,6.258799862E0
1.570951617E1,-2.852257177E-1,-4.483231564E0,-4.329651521E0,6.239118629E0
1.571946017E1,5.529039413E-2,-4.277987863E0,-4.385424019E0,6.126677811E0
1.572940417E1,3.260568246E-1,-4.038698748E0,-4.174025538E0,5.817206359E0
1.573934817E1,5.146418086E-1,-3.713998770E0,-3.720645300E0,5.282219657E0
1.574929217E1,6.499987113E-1,-3.372547104E0,-3.213881153E0,4.703786173E0
1.575923517E1,7.406261685E-1,-3.106407575E0,-2.732426094E0,4.202909409E0
1.576917917E1,8.783193263E-1,-2.870682338E0,-2.378579500E0,3.830130855E0
1.577912317E1,1.027769627E0,-2.644414973E0,-2.072181891E0,3.513286033E0
1.578906717E1,1.186802052E0,-2.413120757E0,-1.831295902E0,3.253505122E0
1.579901017E1,1.295887269E0,-2.167899057E0,-1.570991310E0,2.974411510E0
1.580895417E1,1.366015557E0,-1.962426730E0,-1.259984341E0,2.702716728E0
1.581889817E1,1.327046642E0,-1.821966670E0,-9.253090131E-1,2.436557429E0
1.582884217E1,1.251497546E0,-1.812473130E0,-6.707937491E-1,2.302448525E0
1.583878617E1,9.872894990E-1,-1.923895333E0,-3.574917483E-1,2.191783328E0
1.584872917E1,6.338352531E-1,-1.999686357E0,-9.428810656E-2,2.099853067E0
1.585867317E1,3.291266128E-1,-2.093475696E0,-4.978904128E-3,2.119195510E0
1.586861717E1,1.472222190E-1,-2.251667438E0,-2.955059999E-1,2.275742611E0
1.587856117E1,7.686998203E-2,-2.486451858E0,-8.175354731E-1,2.618533193E0
1.588850417E1,1.078018990E-1,-2.678108969E0,-1.282953959E0,2.971507994E0
1.589844817E1,7.569279134E-2,-2.704821389E0,-1.139407738E0,2.935990146E0
1.590839217E1,-2.371045947E-2,-2.572138125E0,-9.286916274E-1,2.734762304E0
1.591833617E1,-2.801791321E-1,-2.539315365E0,-7.587990224E-1,2.665032612E0
1.592827917E1,-4.546752499E-1,-2.523217396E0,-6.867513853E-1,2.654238699E0
1.593822317E1,-4.057201678E-1,-2.457794654E0,-7.088477209E-1,2.589947588E0
1.594816717E1,-2.611256875E-1,-2.509519708E0,-8.896699414E-1,2.675329586E0
1.595811117E1,-1.485555303E-1,-2.486126752E0,-6.989647570E-1,2.586783081E0
1.596805517E1,-1.018878789E-1,-2.197951992E0,-1.067812675E-1,2.202901799E0
1.597799817E1,-1.798702937E-1,-1.834708922E0,2.695157111E-1,1.863101948E0
1.598794217E1,-3.367406378E-1,-1.463301385E0,4.142404380E-1,1.557639349E0
1.599788617E1,-3.472412869E-1,-1.311112980E0,2.200470972E-1,1.374050393E0
1.600783017E1,-3.810563198E-1,-1.355384588E0,1.211402750E-1,1.413133492E0
1.601777317E1,-3.421124748E-1,-1.244775733E0,1.413637474E-2,1.291010228E0
1.602771717E1,-4.764996169E-1,-9.140735883E-1,-4.509591982E-2,1.031802332E0
1.603766117E1,-6.744897010E-1,-9.580019653E-2,6.276142542E-1,9.262902820E-1
1.604760517E1,-5.142123306E-1,5.114664781E-1,8.243217516E-1,1.097961124E0
1.605754917E1,-3.965053213E-1,3.966862196E-1,9.590124372E-1,1.110982125E0
1.606749217E1,-2.622534692E-1,1.450366759E-1,1.156459973E0,1.194659863E0
1.607743617E1,-1.462777475E-1,4.734250778E-1,1.463611872E0,1.545214612E0
1.608738017E1,-1.198830871E-1,1.235630103E0,1.877622807E0,2.250915616E0
