"Time (s)","Linear Acceleration x (m/s^2)","Linear Acceleration y (m/s^2)","Linear Acceleration z (m/s^2)","Absolute acceleration (m/s^2)"
2.031666809E-4,2.345051419E-2,-2.206528596E-2,-2.953779459E-2,4.369536325E-2
1.014916669E-2,2.283973597E-2,-2.095030873E-2,-5.184082925E-2,6.039901119E-2
2.009516669E-2,1.732117952E-2,-2.303920368E-2,-3.522538126E-2,4.551544409E-2
3.004116667E-2,9.985646484E-3,-3.036903568E-2,-4.630351603E-2,5.626728233E-2
3.998716667E-2,2.237519296E-3,-3.948114012E-2,-3.792094767E-2,5.478836729E-2
4.993316668E-2,-9.744494520E-3,-2.948474938E-2,-1.442040324E-2,3.423818992E-2
5.987916669E-2,-6.463000551E-3,-2.707250340E-2,8.780179024E-3,2.918531069E-2
6.982516669E-2,-9.288356882E-3,-2.942803139E-2,-3.717367351E-2,4.831319289E-2
7.977116667E-2,-7.823291318E-3,-1.560765297E-2,-4.016686320E-2,4.379702750E-2
8.971716667E-2,3.288026405E-3,-1.155035682E-2,-3.477806926E-2,3.679315102E-2
9.966316668E-2,3.310867092E-3,-9.557260280E-3,-3.028740764E-2,3.193164772E-2
1.096091667E-1,-6.545491973E-3,-1.177335958E-2,-4.286009073E-2,4.492708358E-2
1.195541667E-1,-1.022444129E-2,-1.791036415E-2,-3.821974039E-2,4.342889475E-2
1.295001667E-1,-7.250620499E-3,-1.163808790E-2,-2.265328288E-2,2.647995115E-2
1.394461667E-1,1.072598621E-5,-1.848448307E-2,-7.835853696E-3,2.007677346E-2
1.493921667E-1,3.870628355E-3,-1.739453010E-2,-8.734570742E-3,1.984550748E-2
1.593381667E-1,1.258538252E-2,-3.113162681E-2,-2.968982220E-2,4.482248970E-2
1.692841667E-1,1.437746275E-2,-3.472068432E-2,-3.657550335E-2,5.244048817E-2
1.792301667E-1,2.424931694E-2,-2.759159454E-2,-3.013888836E-2,4.751502976E-2
1.891761667E-1,2.571979118E-2,-3.320167362E-2,-3.507803142E-2,5.472044479E-2
1.991221667E-1,3.009019202E-2,-3.127002309E-2,-4.375997722E-2,6.162929179E-2
2.090681667E-1,3.799933691E-2,-2.684377220E-2,-2.055647135E-2,5.086360414E-2
2.190141667E-1,4.505371023E-2,-3.333454703E-2,-2.609436929E-2,6.182188075E-2
2.289601667E-1,4.548448557E-2,-2.964304447E-2,-1.471802652E-2,5.625094504E-2
2.389061667E-1,3.960849065E-2,-3.078671417E-2,-2.489685953E-2,5.600453478E-2
2.488521667E-1,2.730498048E-2,-3.455481069E-2,-2.564530313E-2,5.096350138E-2
2.587981667E-1,1.714269326E-2,-3.677728711E-2,-3.133347452E-2,5.126624040E-2
2.687431667E-1,2.439268336E-2,-4.330982384E-2,-3.372790933E-2,6.006925761E-2
2.786891667E-1,2.410669056E-2,-3.374715032E-2,-3.881849527E-2,5.680561821E-2
2.886351667E-1,7.596373670E-3,-2.607339241E-2,-3.717133462E-2,4.603514747E-2
2.985811667E-1,-1.799772978E-3,-2.291970578E-2,-3.582355142E-2,4.256617122E-2
3.085271667E-1,-4.724915698E-3,-1.539466357E-2,-2.175164223E-2,2.706389540E-2
3.184731667E-1,-9.335363014E-3,-1.086803244E-2,-2.429518104E-2,2.820494555E-2
3.284191667E-1,-1.765558544E-2,-1.338070435E-2,-3.148140907E-2,3.849470175E-2
3.383651667E-1,-1.359012603E-2,-8.441305468E-3,-2.594292641E-2,3.047921577E-2
3.483111667E-1,-2.260789387E-2,-8.307427070E-3,-3.372732460E-2,4.144469369E-2
3.582571667E-1,-1.506406291E-2,-1.239144225E-2,-3.447576821E-2,3.961126640E-2
3.682031667E-1,-7.848443482E-3,-2.118719405E-2,-3.701813757E-2,4.336862652E-2
3.781491667E-1,-1.081487303E-2,-1.669552288E-2,-2.429284215E-2,3.139815508E-2
3.880951667E-1,-1.055622510E-2,-2.677701802E-2,-3.297361851E-2,4.376873427E-2
3.980411667E-1,-7.307201447E-3,-3.186949517E-2,-2.010097325E-2,3.838110265E-2
4.079873750E-1,2.712651249E-4,-3.119273478E-2,-2.908171177E-2,4.264746472E-2
4.179323750E-1,1.411847678E-2,-2.936676353E-2,-2.923140049E-2,4.377456980E-2
4.278783750E-1,1.979310821E-2,-3.221692485E-2,-1.396256626E-2,4.030695518E-2
4.378243750E-1,2.649388944E-2,-2.327101837E-2,-2.653466463E-2,4.413111035E-2
4.477703750E-1,2.495607172E-2,-2.314700715E-2,-3.356886506E-2,4.780646564E-2
4.577163750E-1,3.323837860E-2,-2.683373601E-2,-2.324034333E-2,4.863077995E-2
4.676623750E-1,3.819742047E-2,-2.541413711E-2,-1.859999299E-2,4.950637368E-2
4.776083750E-1,2.138700438E-2,-2.665064050E-2,-2.832975984E-2,4.438733927E-2
4.875543750E-1,2.969599832E-2,-3.120574940E-2,-2.817890167E-2,5.147525242E-2
4.975003750E-1,2.960719373E-2,-4.607790487E-2,-3.221932769E-2,6.354403445E-2
5.074463750E-1,2.384460739E-2,-4.767898215E-2,-2.443492949E-2,5.864227502E-2
5.173923750E-1,2.265226875E-2,-4.266078747E-2,-1.814858794E-2,5.159883053E-2
5.273383750E-1,2.713627917E-2,-4.145029049E-2,-3.925352812E-2,6.320873119E-2
5.372843750E-1,1.955519962E-2,-3.131928131E-2,-2.652940214E-2,4.546550772E-2
5.472303750E-1,1.256774951E-2,-2.282848922E-2,-2.772749662E-2,3.805131163E-2
5.571763750E-1,1.059861741E-2,-9.770665378E-3,-1.066356719E-2,1.793065136E-2
5.671213750E-1,6.450849306E-3,-8.574886937E-3,-2.548216581E-2,2.764928421E-2
5.770673750E-1,7.239008294E-3,-1.263350327E-2,-3.476228178E-2,3.768852452E-2
5.870133750E-1,-5.330002019E-3,-1.413290296E-2,-2.099091947E-2,2.586052141E-2
5.969593750E-1,-2.476286693E-3,-1.257393020E-2,-2.892500639E-2,3.163687265E-2
6.069053750E-1,-8.526565181E-3,-2.341320621E-2,-4.673913360E-2,5.296628313E-2
6.168513750E-1,-1.978412725E-2,-2.070421861E-2,-3.835656524E-2,4.786755118E-2
6.267973750E-1,-1.308804207E-2,-2.255445123E-2,-3.222049713E-2,4.145070025E-2
6.367433750E-1,-1.088916921E-2,-2.091856475E-2,-1.485835969E-2,2.787348579E-2
6.466893750E-1,-1.325932894E-2,-2.022077722E-2,-2.733573318E-3,2.433438017E-2
6.566353750E-1,-4.530870365E-3,-2.190045843E-2,-3.087446809E-2,3.812337401E-2
6.665813750E-1,1.025692988E-3,-1.605064351E-2,-3.790808380E-2,4.117885404E-2
6.765273750E-1,8.027258646E-3,-1.195965735E-2,-3.236960113E-2,3.542966783E-2
6.864733750E-1,1.741253313E-2,-7.559476825E-3,-2.548333526E-2,3.177644372E-2
6.964193750E-1,1.744535062E-2,-1.748189115E-2,-3.715788603E-2,4.461687204E-2
7.063653750E-1,1.717544680E-2,-2.149775430E-2,-3.311512113E-2,4.305532092E-2
7.163113750E-1,2.519339559E-2,-3.080251536E-2,-2.682702541E-2,4.799157662E-2
7.262563750E-1,3.227896015E-2,-4.110798627E-2,-2.652764797E-2,5.861325712E-2
7.362023750E-1,3.011151608E-2,-3.668854647E-2,-3.101947904E-2,5.670062542E-2
7.461483750E-1,2.422161575E-2,-3.817931694E-2,-2.353679717E-2,5.097379457E-2
7.560943750E-1,3.150308945E-2,-3.538718468E-2,-3.266780913E-2,5.754896383E-2
7.660403750E-1,3.255165967E-2,-2.789140139E-2,-2.907644928E-2,5.179749725E-2
7.759863750E-1,1.878471019E-2,-2.344091653E-2,-2.922672272E-2,4.191113486E-2
7.859323750E-1,2.749746351E-2,-2.073857100E-2,-1.755158722E-2,3.865562107E-2
7.958783750E-1,2.087563796E-2,-2.524323853E-2,-2.324034333E-2,4.016375119E-2
8.058243750E-1,1.732103334E-2,-1.393254903E-2,-3.341800690E-2,4.013598514E-2
8.157703750E-1,1.325578406E-2,-1.760150783E-2,-2.937582672E-2,3.672149349E-2
8.257163750E-1,8.199322103E-3,-1.743869942E-2,-1.934785187E-2,2.730707770E-2
8.356623750E-1,4.604252921E-3,-1.730747967E-2,-3.072419465E-2,3.556296015E-2
8.456083750E-1,1.722836411E-3,-2.317336987E-2,-2.877824128E-2,3.698865242E-2
8.555543750E-1,-1.794766299E-3,-2.379331634E-2,-3.536454499E-2,4.266138923E-2
8.655003750E-1,-5.864556301E-3,-2.569309498E-2,-2.982664704E-2,3.980147013E-2
8.754463750E-1,-7.669198913E-3,-2.718170472E-2,-2.877999544E-2,4.032306810E-2
8.853913750E-1,-1.748262662E-3,-2.260070362E-2,-2.833209872E-2,3.628437742E-2
8.953373750E-1,6.922820108E-3,-2.361735627E-2,-3.192404330E-2,4.030942192E-2
9.052833750E-1,8.230897067E-3,-1.633734437E-2,-2.922847688E-2,3.448130433E-2
9.152293750E-1,6.292691259E-3,-8.210842945E-3,-2.458812654E-2,2.667567941E-2
9.251753750E-1,1.165583055E-2,-1.419751012E-2,-2.339178622E-2,2.974228205E-2
9.351213750E-1,7.696214877E-3,-1.568785119E-2,-2.010038853E-2,2.663392606E-2
9.450673750E-1,2.080665909E-2,-2.625144926E-2,-3.102708042E-2,4.565890242E-2
9.550133750E-1,1.812793996E-2,-2.046964476E-2,-3.132587314E-2,4.158051096E-2
9.649593750E-1,1.038970736E-2,-2.036182302E-2,-3.132587314E-2,3.877963620E-2
9.749053750E-1,2.058116670E-2,-2.674921633E-2,-3.880913973E-2,5.143203596E-2
9.848513750E-1,1.753441103E-2,-2.985639932E-2,-2.474015415E-2,4.255508639E-2
9.947973750E-1,1.736601122E-2,-2.388684439E-2,-2.040035069E-2,3.589336970E-2
1.004743375E0,1.989977421E-2,-3.050571891E-2,-1.680723667E-2,4.011337813E-2
1.014689375E0,1.933635844E-2,-2.729105223E-2,-2.923081577E-2,4.442000540E-2
1.024634375E0,1.814260368E-2,-1.659073894E-2,-3.731400669E-2,4.468491672E-2
1.034580375E0,1.771439563E-2,-2.429332180E-2,-3.836241245E-2,4.874053740E-2
1.044526375E0,1.485410219E-2,-2.152246792E-2,-3.431906283E-2,4.314694718E-2
1.054472375E0,1.405000040E-2,-1.734447245E-2,-3.147614658E-2,3.858731708E-2
1.064418375E0,1.484893106E-2,-2.278990673E-2,-3.222400546E-2,4.216938617E-2
1.074364375E0,5.841934886E-3,-2.090089519E-2,-3.431847811E-2,4.060460026E-2
1.084310375E0,4.723344259E-3,-2.544707338E-2,-3.162583530E-2,4.086633068E-2
1.094256375E0,5.358342743E-3,-3.453933384E-2,-2.459046543E-2,4.273603174E-2
1.104202375E0,1.151901484E-4,-2.430227078E-2,-2.474073887E-2,3.468022194E-2
1.114148375E0,1.429963997E-3,-1.809834300E-2,-3.447109044E-2,3.895960590E-2
1.124094375E0,2.437950885E-3,-1.388772190E-2,-3.881264806E-2,4.129447994E-2
1.134040375E0,4.204677958E-3,-1.498431237E-2,-3.746603429E-2,4.056984915E-2
1.143986375E0,6.989295641E-3,-1.467906944E-2,-3.582004309E-2,3.933701590E-2
1.153932375E0,9.742804309E-3,-1.846519183E-2,-2.459221959E-2,3.225930578E-2
1.163878375E0,9.594778391E-3,-1.579208238E-2,-2.578972936E-2,3.172632627E-2
1.173824375E0,8.555198265E-3,-1.884064246E-2,-2.189723790E-2,3.012723441E-2
1.183769375E0,6.614781478E-3,-2.491555691E-2,-2.174696445E-2,3.372641062E-2
1.193715375E0,9.587807413E-3,-2.328424770E-2,-1.141727328E-2,2.764844247E-2
1.203661375E0,1.567754547E-2,-3.170628020E-2,-2.204517245E-2,4.167809094E-2
1.213607375E0,2.001818033E-2,-2.768762592E-2,-3.402085483E-2,4.821566899E-2
1.223553375E0,2.166203365E-2,-2.673326897E-2,-3.701521397E-2,5.053748546E-2
1.233499375E0,1.214315029E-2,-2.496308838E-2,-3.162466586E-2,4.208005907E-2
1.243445375E0,1.953441460E-2,-2.449160180E-2,-1.994836092E-2,3.713985751E-2
1.253391375E0,2.370462139E-2,-2.225309122E-2,-3.162291169E-2,4.535545930E-2
1.263337375E0,2.402346823E-2,-2.016710617E-2,-4.075392365E-2,5.142685573E-2
1.273283375E0,2.164592640E-2,-2.961396828E-2,-1.665403962E-2,4.028511242E-2
1.283229375E0,1.770569790E-2,-2.939855320E-2,-1.500804842E-2,3.745675087E-2
1.293175375E0,1.670893949E-2,-3.200140927E-2,-2.967754304E-2,4.673366469E-2
1.303121375E0,2.127508502E-2,-2.486986184E-2,-3.925879061E-2,5.111156337E-2
1.313067375E0,2.225762738E-2,-2.698516519E-2,-4.180349886E-2,5.450810613E-2
1.323013375E0,1.126971331E-2,-2.666232579E-2,-3.566567659E-2,4.593393671E-2
1.332958375E0,7.999676233E-3,-1.550724988E-2,-2.713400424E-2,3.226025116E-2
1.342904375E0,6.381057305E-3,-1.278881537E-2,-3.102591097E-2,3.415960835E-2
1.352850375E0,4.030851200E-3,-9.613626525E-3,-1.306384921E-2,1.671328013E-2
1.362796375E0,-9.842837378E-3,-5.325822174E-3,-3.333497643E-3,1.167724437E-2
1.372742375E0,-8.265733682E-3,-1.189535625E-2,-3.461902499E-2,3.752730666E-2
1.382688375E0,-6.853503194E-3,-7.942496859E-3,-5.946852207E-2,6.038674424E-2
1.392634375E0,-2.569750780E-3,-7.834697957E-3,-1.366260409E-2,1.595784640E-2
1.402580000E0,6.013057306E-3,-1.413412265E-2,-9.768943191E-3,1.820336596E-2
1.412526000E0,-3.595297588E-3,-2.622809694E-2,-1.964839876E-2,3.296814838E-2
1.422472000E0,-3.359170575E-3,-2.398919807E-2,-5.063454866E-2,5.613041216E-2
1.432418000E0,2.322358740E-3,-2.496802197E-2,-5.392828524E-2,5.947314873E-2
1.442364000E0,8.813572107E-3,-1.607794270E-2,-3.641470492E-2,4.077021007E-2
1.452310000E0,1.969818232E-2,-1.700923970E-2,-1.171489656E-2,2.854069766E-2
1.462256000E0,2.477220420E-2,-1.400550218E-2,-3.820863068E-2,4.764153283E-2
1.472202000E0,3.330846297E-2,-1.995547351E-2,-3.267014802E-2,5.074458788E-2
1.482148000E0,2.354646334E-2,-1.318098082E-2,-3.780809641E-3,2.724827908E-2
1.492093000E0,2.730988665E-2,-2.193450476E-2,2.505531907E-3,3.511737602E-2
1.502039000E0,2.958281815E-2,-1.420161231E-2,-3.132411897E-2,4.536550839E-2
1.511985000E0,2.740173362E-2,-1.737713006E-2,-5.632272005E-2,6.500052653E-2
1.521931000E0,3.247238422E-2,-2.907076651E-2,-5.033575594E-2,6.658268190E-2
1.531877000E0,3.737341074E-2,-2.263436166E-2,-4.105505526E-2,5.995501414E-2
1.541823000E0,3.067133216E-2,-2.539003562E-2,-2.878291905E-2,4.913085542E-2
1.551769000E0,3.421575897E-2,-2.590889835E-2,-2.833502233E-2,5.142822830E-2
1.561715000E0,2.510319315E-2,-2.774607981E-2,-5.258284092E-2,6.453658195E-2
1.571661000E0,7.430257928E-3,-2.996655081E-2,4.636140347E-2,5.570083152E-2
1.581607000E0,1.167774847E-2,-2.845023532E-2,-9.921555519E-3,3.231443892E-2
1.591553000E0,8.087676829E-3,-2.014916710E-2,-2.773568273E-2,3.522311098E-2
1.601499000E0,7.346094567E-3,-2.379682924E-2,-9.824023962E-2,1.013479100E-1
1.611445000E0,9.116001064E-3,-9.940047339E-3,-7.653654456E-2,7.771581995E-2
1.621391000E0,1.002248394E-2,-2.115125195E-3,-4.375471473E-2,4.493772357E-2
1.631337000E0,-3.522792114E-3,-1.061772593E-2,-1.456658363E-2,1.836658724E-2
1.641282000E0,-1.373392185E-3,-1.921488253E-2,-2.714102089E-2,3.328262207E-2
1.651228000E0,2.574328054E-4,-1.658617537E-2,3.396062851E-3,1.693223931E-2
1.661174000E0,-2.710440271E-3,-1.141935179E-2,1.537057579E-2,1.933914894E-2
1.671120000E0,4.098021090E-3,-2.294575330E-2,-1.127284706E-2,2.589166762E-2
1.681066000E0,-3.978317622E-3,-1.274982632E-2,-6.950175941E-2,7.077343883E-2
1.691012000E0,-5.500585400E-3,-2.323964441E-2,-6.845452309E-2,7.250075340E-2
1.700958000E0,1.156689805E-2,-2.138011106E-2,-5.154086709E-2,5.698564082E-2
1.710904000E0,7.777262768E-3,-1.738106323E-2,-3.657316446E-2,4.123328187E-2
1.720850000E0,9.177561281E-3,-1.388987806E-2,-3.567620158E-2,3.936937519E-2
1.730796000E0,2.084973662E-2,-1.970214746E-2,-1.666631877E-2,3.317608044E-2
1.740742000E0,2.605390473E-2,-1.780234141E-2,2.793799639E-3,3.167861468E-2
1.750688000E0,3.142419772E-2,-1.983243987E-2,1.372283041E-2,3.961214395E-2
1.760634000E0,3.283410760E-2,-2.683895739E-2,-2.130316079E-2,4.745769605E-2
1.770580000E0,2.566183979E-2,-3.020014708E-2,-8.102837563E-2,9.020075699E-2
1.780526000E0,2.660769087E-2,-3.083248691E-2,-6.665767372E-2,7.811438362E-2
1.790471000E0,2.033169159E-2,-3.128665111E-2,-5.049129188E-2,6.278218518E-2
1.800417000E0,2.729205265E-2,-3.308652459E-2,-3.567327797E-2,5.578670996E-2
1.810363000E0,2.767250539E-2,-2.463458450E-2,-3.103175819E-2,4.832804904E-2
1.820309000E0,1.749632190E-2,-1.146956932E-2,-1.755977333E-2,2.731332897E-2
1.830255000E0,2.839901280E-2,-1.018596387E-2,-5.286467671E-3,3.063012452E-2
1.840201000E0,2.272419864E-2,-1.594706557E-2,-1.636343300E-2,3.222514614E-2
1.850147000E0,1.163345581E-2,-8.187997690E-3,-2.803915322E-2,3.144160800E-2
1.860093000E0,1.172447138E-2,-1.495499864E-2,-4.630176187E-2,5.004965899E-2
1.870039000E0,1.528002617E-2,-1.863194254E-2,-5.199051797E-2,5.730307533E-2
1.879985000E0,1.994908269E-2,-2.237516555E-2,-3.088382363E-2,4.303980130E-2
1.889931000E0,7.897998635E-3,-2.592943670E-2,-4.360736489E-2,5.134507126E-2
1.899877000E0,7.502270043E-3,-2.700447014E-2,-3.447635293E-2,4.443134450E-2
1.909823000E0,1.082072938E-3,-1.624195710E-2,-3.789580464E-3,1.671325738E-2
1.919769000E0,3.882267969E-3,-2.030727489E-2,-3.938099742E-3,2.104675860E-2
1.929715000E0,1.296472063E-2,-9.393602195E-3,-1.606347084E-2,2.267948057E-2
1.939661000E0,9.287251392E-3,-1.711380436E-2,-3.746778846E-2,4.222523546E-2
1.949606000E0,6.606385242E-3,-1.127010161E-2,-3.911436439E-2,4.123824702E-2
1.959552000E0,1.785288328E-2,-9.391829758E-3,-4.854416907E-2,5.256870037E-2
1.969498000E0,1.998911784E-2,-1.795215804E-2,-4.135735631E-2,4.931810754E-2
1.979444000E0,1.630383709E-2,-2.625706350E-2,-4.809276402E-2,5.716784444E-2
1.989390000E0,1.475490052E-2,-2.244626404E-2,-3.881206334E-2,4.720082753E-2
1.999336000E0,5.658021681E-3,-2.131382282E-2,-1.022151768E-2,2.430579512E-2
2.009282000E0,9.640176538E-3,-3.123970893E-2,-3.408926725E-4,3.269508565E-2
2.019228000E0,2.303182614E-2,-2.482737816E-2,-2.384202182E-2,4.141624954E-2
2.029174000E0,3.031407642E-2,-2.338065824E-2,-4.464933872E-2,5.881463982E-2
2.039120000E0,2.402969004E-2,-1.774682027E-2,-2.474015415E-2,3.878725126E-2
2.049066000E0,1.971158523E-2,-1.448377244E-2,-2.893085361E-2,3.788562454E-2
2.059012000E0,2.052252095E-2,-2.338069478E-2,-3.357061923E-2,4.576917336E-2
2.068958000E0,1.060424536E-2,-1.614752457E-2,-3.985813022E-2,4.429292397E-2
2.078904000E0,1.821217641E-2,-1.162753550E-2,-4.285073519E-2,4.799029545E-2
2.088849000E0,1.791183966E-2,-1.750449887E-2,-2.878116488E-2,3.815228607E-2
2.098795000E0,1.454783600E-2,-2.000284052E-2,-1.590735018E-2,2.940743020E-2
2.108741000E0,2.646971486E-2,-2.656198209E-2,-2.503894687E-2,4.509028229E-2
2.118687000E0,2.189659836E-2,-2.456838305E-2,-2.683404207E-2,4.246330509E-2
2.128633000E0,1.935368995E-2,-2.384628389E-2,-7.823574543E-3,3.169256836E-2
2.138579000E0,6.301562581E-3,-2.349033464E-2,-1.560680330E-2,2.889771309E-2
2.148525000E0,4.509007260E-3,-2.653006908E-2,-3.641295075E-2,4.527779472E-2
2.158471000E0,9.060013974E-3,-1.037708103E-2,-4.704201937E-2,4.901754023E-2
2.168417000E0,1.327760149E-2,-1.014236557E-2,-4.345182896E-2,4.655345014E-2
2.178363000E0,9.024766227E-3,-1.283197057E-2,-3.267424107E-2,3.624516386E-2
2.188309000E0,1.992912906E-2,-7.808924527E-3,-9.024007916E-3,2.322890885E-2
2.198255000E0,1.143044779E-2,-1.030062868E-2,-1.351642370E-2,2.048052240E-2
2.208201000E0,1.422779230E-2,-1.220556932E-2,-1.456482947E-2,2.373900279E-2
2.218147000E0,1.720926016E-2,-1.690899193E-2,-1.202070594E-2,2.695496270E-2
2.228093000E0,1.590293736E-2,-1.847033555E-2,-2.369759560E-2,3.399459882E-2
2.238038000E0,1.192813721E-2,-3.014151047E-2,-4.315654457E-2,5.397479458E-2
2.247984000E0,1.237002226E-2,-2.957972095E-2,-4.016160071E-2,5.138999430E-2
2.257930000E0,6.658123964E-3,-2.664273305E-2,-3.597031653E-2,4.525516004E-2
2.267876000E0,1.045110312E-2,-2.976703742E-2,-2.668961585E-2,4.132357278E-2
2.277822000E0,3.085415815E-2,-3.093632067E-2,-1.666047156E-2,4.676116256E-2
2.287768000E0,2.879323390E-2,-2.400667576E-2,-1.456541419E-2,4.021842973E-2
2.297714000E0,2.618691975E-2,-3.239521924E-3,-2.264743567E-2,3.477291490E-2
2.307660000E0,2.983675176E-2,-2.062285552E-3,-6.630157828E-3,3.063402961E-2
2.317606000E0,1.924957297E-2,-5.360955717E-3,-2.010389686E-2,2.834523901E-2
2.327552000E0,8.965691077E-3,-1.522762964E-2,-4.764779091E-2,5.081905449E-2
2.337498000E0,4.122067764E-3,-2.968108792E-2,-4.196020424E-2,5.156178006E-2
2.347444000E0,5.988526409E-3,-2.706323009E-2,-4.076269448E-2,4.929379405E-2
2.357390000E0,5.213879971E-3,-2.893321076E-2,-3.193164468E-2,4.340443712E-2
2.367336000E0,6.948547857E-3,-2.324248122E-2,-2.280121744E-2,3.329250317E-2
2.377282000E0,8.185215695E-3,-1.477253810E-2,-2.115522623E-2,2.706971065E-2
2.387227000E0,1.159946887E-2,-1.145205051E-2,-1.292293131E-2,2.080142526E-2
2.397173000E0,8.881902304E-3,-1.004005300E-2,-3.582705975E-2,3.825270007E-2
2.407119250E0,1.237936866E-2,-1.711138782E-2,-5.244426191E-2,5.653714680E-2
2.417065250E0,1.108258414E-2,-1.984441753E-2,-3.687780440E-2,4.331970724E-2
2.427011250E0,9.562755749E-3,-1.657324755E-2,-2.280823410E-2,2.977136836E-2
2.436957250E0,8.472816478E-3,-2.031769938E-2,-2.729948044E-2,3.506934786E-2
2.446903250E0,7.780515281E-3,-2.732397022E-2,-4.496333420E-2,5.318681406E-2
2.456849250E0,3.553563086E-3,-2.719736430E-2,-3.957687914E-2,4.815240179E-2
2.466795250E0,1.375630572E-3,-2.585556078E-2,-2.655629933E-2,3.708961333E-2
2.476741250E0,1.218119374E-2,-2.033737892E-2,-1.892158985E-2,3.033178242E-2
2.486687250E0,7.465076270E-3,-6.693942728E-3,-3.194509327E-2,3.348171467E-2
2.496633250E0,2.014818038E-2,-8.273654832E-3,-4.122579396E-2,4.662583645E-2
2.506579250E0,1.680191022E-2,-1.097952696E-2,-2.835314870E-2,3.473838282E-2
2.516525250E0,2.516491782E-2,-1.055943193E-2,-1.308723807E-2,3.026632604E-2
2.526470250E0,2.623906047E-2,-1.372357502E-2,-2.655863822E-2,3.977670260E-2
2.536416250E0,2.101493874E-2,-2.552110462E-2,-3.973066092E-2,5.168636036E-2
2.546362250E0,1.870295880E-2,-2.368509717E-2,-2.386307180E-2,3.847376628E-2
2.556308250E0,2.364904543E-2,-2.150256454E-2,-2.371338308E-2,3.979902221E-2
2.566254250E0,2.681426204E-2,-2.963100743E-2,-8.745095730E-3,4.090816482E-2
2.576200250E0,2.430555071E-2,-3.267032160E-2,-1.308665335E-2,4.277113752E-2
2.586146250E0,2.814666890E-2,-3.446918095E-2,-3.209653616E-2,5.486845213E-2
2.596092250E0,9.860068392E-3,-3.599619959E-2,-3.838346243E-2,5.353725359E-2
2.606038250E0,1.191065038E-2,-3.309960316E-2,-5.380198538E-2,6.428141997E-2
2.615984250E0,1.590620815E-2,-2.867292744E-2,-3.943420708E-2,5.128548444E-2
2.625930250E0,1.110090237E-2,-1.320482193E-2,-3.180066705E-2,3.617844358E-2
2.635876250E0,1.229790051E-2,-8.501531789E-4,-2.506642878E-2,2.793361719E-2
2.645822250E0,1.212197240E-2,-3.376113796E-3,-2.162534237E-2,2.501990791E-2
2.655768250E0,5.657711048E-3,1.288310629E-3,-1.593775570E-2,1.696117612E-2
2.665714250E0,3.890499752E-4,-3.221052946E-3,-2.716440976E-2,2.735747977E-2
2.675659250E0,-8.420529580E-3,-2.099755241E-2,-2.656448543E-2,3.489232597E-2
2.685605250E0,-7.784982920E-3,-2.378277308E-2,-2.491790950E-2,3.531470612E-2
2.695551250E0,-7.281418880E-3,-3.105953246E-2,-3.270289242E-2,4.568580513E-2
2.705497250E0,-3.127629971E-3,-3.498274465E-2,-3.809168637E-2,5.181265350E-2
2.715443250E0,1.402015219E-2,-2.577761466E-2,-3.944005430E-2,4.915860014E-2
2.725389250E0,1.401282490E-2,-1.348690897E-2,-3.390157163E-2,3.908417243E-2
2.735335250E0,8.549305368E-3,-9.165583625E-3,-3.001024961E-2,3.252250955E-2
2.745281250E0,2.029512822E-2,-1.769006117E-2,-8.404787779E-2,8.825461039E-2
2.755227250E0,1.020520030E-2,-1.431524015E-2,4.483294129E-2,4.815666972E-2
2.765173250E0,1.492115331E-2,-1.423969687E-2,1.459465027E-2,2.526684783E-2
2.775119250E0,1.837377883E-3,-1.538304680E-2,-5.066846251E-2,5.298402759E-2
2.785065250E0,1.366308832E-2,-2.463375766E-2,-6.354169250E-2,6.950574569E-2
2.795011250E0,2.496495218E-2,-2.865276368E-2,-9.138437927E-2,9.897138212E-2
2.804957250E0,2.683603378E-2,-1.962802943E-2,-1.100212097E-2,3.502112098E-2
2.814903250E0,1.848737014E-2,-1.668708096E-2,-2.470448613E-3,2.502687839E-2
2.824848250E0,1.504049133E-2,-2.166588002E-2,-6.758562684E-2,7.254959470E-2
2.834794250E0,2.370570861E-2,-2.517819283E-2,-4.618013978E-2,5.769321732E-2
2.844740250E0,2.196841861E-2,-2.208048872E-2,3.659713805E-2,4.805736064E-2
2.854686250E0,2.179852045E-2,-2.531597241E-2,2.132830381E-2,3.963547018E-2
2.864632250E0,2.578072099E-2,-2.571457893E-2,-6.099873841E-2,7.104034932E-2
2.874578250E0,1.866470522E-2,-2.815966981E-2,-6.893165588E-2,7.676530081E-2
2.884524250E0,2.733798984E-2,-2.533322627E-2,-3.240760803E-2,4.939019234E-2
2.894470250E0,2.217471569E-2,-2.591938223E-2,-2.761932313E-2,4.389031102E-2
2.904416250E0,1.696765138E-2,-2.371174769E-2,-3.076395571E-2,4.238595454E-2
2.914362250E0,1.859945395E-2,-3.298029712E-2,-3.630302310E-2,5.245521110E-2
2.924308250E0,2.131277215E-2,-1.955585743E-2,-2.402854800E-2,3.760368247E-2
2.934254250E0,1.248186853E-2,-1.321903340E-2,3.120717466E-2,3.611686083E-2
2.944200250E0,1.691137193E-2,-1.495884958E-2,-5.274188519E-4,2.258406190E-2
2.954146250E0,1.769221276E-3,-1.372675444E-2,-6.519353092E-2,6.664645831E-2
2.964091250E0,4.262053762E-3,-9.064033935E-3,-4.708061099E-2,4.813424711E-2
2.974037250E0,-4.905311437E-3,-1.016471746E-2,-2.058570743E-2,2.347668869E-2
2.983983250E0,-1.757179666E-4,-1.627172308E-2,-3.854893863E-2,4.184280725E-2
2.993929250E0,-6.606787238E-3,-1.827383713E-2,-6.429715276E-2,6.716923860E-2
3.003875250E0,-1.151859457E-2,-1.433396038E-2,-2.597859442E-2,3.182809779E-2
3.013821250E0,-3.715731958E-3,-1.667845175E-2,9.944359660E-3,1.977037445E-2
3.023767250E0,-1.096257004E-2,-1.898085686E-2,5.302839875E-3,2.255151835E-2
3.033713250E0,-2.233554153E-3,-2.217905085E-2,-2.328595161E-2,3.223561080E-2
3.043659250E0,1.423751330E-3,-1.827264484E-2,-6.594665229E-2,6.844616546E-2
3.053605250E0,-3.167436719E-3,-1.649218138E-2,-3.630887032E-2,4.000448432E-2
3.063551250E0,1.079554981E-2,-1.581421500E-2,-2.104179025E-2,2.844978433E-2
3.073497250E0,2.814724448E-2,-1.296318117E-2,-3.885533273E-2,4.969958068E-2
3.083443250E0,2.210704330E-2,-1.004632505E-2,-6.520054758E-2,6.957558059E-2
3.093389250E0,2.003986071E-2,-2.069348806E-2,-2.223813057E-2,3.639163250E-2
3.103335250E0,2.089026514E-2,-1.843585525E-2,9.795255661E-3,2.953355667E-2
3.113280250E0,2.579322855E-2,-2.512003587E-2,-7.569220662E-3,3.679130254E-2
3.123226250E0,2.393610718E-2,-3.297592085E-2,-3.451319039E-2,5.339952147E-2
3.133172250E0,1.584666705E-2,-3.005865360E-2,-6.385276437E-2,7.233128666E-2
3.143118250E0,1.952922519E-2,-3.276813456E-2,-3.690879464E-2,5.307918991E-2
3.153064250E0,2.647208115E-2,-2.922870072E-2,-2.403614938E-2,4.618251296E-2
3.163010250E0,1.464716557E-2,-2.367310124E-2,-4.633976877E-2,5.405857334E-2
3.172956250E0,7.502790811E-3,-1.969360047E-2,-4.095155954E-2,4.605605279E-2
3.182902250E0,1.099568903E-2,-1.561594871E-2,-1.071385324E-2,2.189862285E-2
3.192848250E0,1.987926328E-2,-7.084445371E-3,-4.578369856E-3,2.159481292E-2
3.202794250E0,4.586784365E-3,-1.103128853E-2,-2.987576365E-2,3.217590980E-2
3.212740250E0,5.018930146E-3,-9.502223362E-3,-4.679000437E-2,4.800819115E-2
3.222686250E0,4.097171417E-3,-1.231362403E-2,-4.319805980E-2,4.510526045E-2
3.232632250E0,3.961945418E-4,-9.911692911E-3,-2.972549021E-2,3.133693340E-2
3.242578250E0,-8.167747138E-3,-1.620116363E-2,-2.493486643E-2,3.083727226E-2
3.252523250E0,-1.216010721E-2,-1.891080448E-2,-4.274723947E-2,4.829920513E-2
3.262469250E0,-9.531354373E-3,-1.707544571E-2,-3.436291695E-2,3.953767347E-2
3.272415250E0,-4.198903833E-3,-2.294832059E-2,-1.655054390E-2,2.860378847E-2
3.282361250E0,6.782020982E-3,-1.958116948E-2,-1.789891183E-2,2.738227623E-2
3.292307250E0,1.002837684E-2,-1.588742854E-2,-4.005401194E-2,4.424141273E-2
3.302253250E0,4.720046064E-3,-1.629294208E-2,-4.484346628E-2,4.794450192E-2
3.312199250E0,-4.719753703E-3,-1.754240984E-2,-2.852856517E-2,3.382146136E-2
3.322145250E0,5.447841687E-3,-2.121853604E-2,-2.029451609E-2,2.986256242E-2
3.332091250E0,1.602753787E-2,-2.669982106E-2,-3.107210398E-2,4.399134075E-2
3.342037250E0,2.470963899E-2,-1.774999056E-2,-4.199938059E-2,5.186112604E-2
3.351983250E0,1.884939501E-2,-2.480900511E-2,-2.972490549E-2,4.306223907E-2
3.361929250E0,1.921424299E-2,-2.850553719E-2,-2.268895090E-2,4.118909172E-2
3.371875250E0,2.417644601E-2,-2.954610860E-2,-2.119030952E-2,4.366351215E-2
3.381821250E0,1.837980878E-2,-3.288841818E-2,-4.199587226E-2,5.641913424E-2
3.391766250E0,2.477354723E-2,-3.712692776E-2,-2.777602851E-2,5.257038299E-2
3.401712042E0,2.259450923E-2,-2.600069507E-2,-1.310594916E-2,3.685531027E-2
3.411658042E0,2.516658062E-2,-1.205553798E-2,-3.181703925E-2,4.232040599E-2
3.421604042E0,2.374727866E-2,-1.965075592E-2,-3.765548408E-2,4.866231533E-2
3.431550042E0,1.183313822E-2,-1.465320465E-2,-4.454233468E-2,4.836071903E-2
3.441496042E0,1.048251363E-2,-1.430609931E-2,-2.673054636E-2,3.207911592E-2
3.451442042E0,5.103248823E-3,-2.010872081E-2,-2.778012156E-2,3.467187557E-2
3.461388042E0,8.771554381E-3,-1.871231435E-2,-2.718078196E-2,3.414506967E-2
3.471334042E0,6.082017906E-5,-2.769116166E-2,-3.661000192E-2,4.590311944E-2
3.481280042E0,-1.440507257E-3,-1.469289263E-2,-2.433552682E-2,2.846355601E-2
3.491226042E0,1.193723693E-2,-1.181537731E-2,-2.253809273E-2,2.810811966E-2
3.501172042E0,1.487583739E-2,-1.337684884E-2,-4.663914621E-2,5.074879882E-2
3.511118042E0,1.493598148E-3,-8.228658680E-3,-4.544163644E-2,4.620480475E-2
3.521064042E0,1.189734796E-3,-5.088804374E-3,-3.137089670E-2,3.180321616E-2
3.531009042E0,3.120457996E-3,-1.469947075E-2,-1.999513865E-2,2.501234231E-2
3.540955042E0,-1.222652793E-3,-2.116163076E-2,-1.670198679E-2,2.698640137E-2
3.550901042E0,1.254777761E-2,-2.710793388E-2,-3.032366037E-2,4.256537537E-2
3.560847042E0,8.839939395E-3,-2.569709210E-2,-3.107151926E-2,4.127861892E-2
3.570793042E0,1.473811719E-2,-3.066261616E-2,-1.834739327E-2,3.865274851E-2
3.580739042E0,1.216399013E-2,-1.756948975E-2,-2.343739450E-2,3.171688962E-2
3.590685042E0,8.744967822E-3,-1.779235546E-2,-4.125093699E-2,4.576769797E-2
3.600631042E0,1.671411976E-2,-1.613221674E-2,-3.661058664E-2,4.335833565E-2
3.610577042E0,1.787104620E-2,-2.176755762E-2,-3.436350167E-2,4.443029489E-2
3.620523042E0,1.905476932E-2,-1.864332177E-2,-2.074299753E-2,3.377764982E-2
3.630469042E0,1.501312818E-2,-1.962823500E-2,-2.493311226E-2,3.510444009E-2
3.640415042E0,1.952584477E-2,-2.683460852E-2,-1.924669504E-2,3.836391662E-2
3.650361042E0,1.054548084E-2,-2.584536470E-2,-2.493486643E-2,3.742910106E-2
3.660307042E0,7.280861568E-3,-2.896408680E-2,-3.780809641E-2,4.818071630E-2
3.670252042E0,1.048996883E-2,-2.382916708E-2,-4.334599435E-2,5.056425493E-2
3.680198042E0,1.771085076E-2,-1.706973554E-2,-3.256840646E-2,4.081361544E-2
3.690144042E0,1.208335337E-2,-1.504242822E-2,-1.789774239E-2,2.631750858E-2
3.700090042E0,1.598531915E-2,-1.809413118E-2,-2.388646066E-2,3.396308311E-2
3.710036042E0,1.368446720E-2,-1.905137520E-2,-2.224046946E-2,3.232426366E-2
3.719982042E0,1.240297680E-2,-1.340691632E-2,-9.368993640E-3,2.052698907E-2
3.729928042E0,8.401453039E-3,-1.182915481E-2,-2.388938427E-2,2.795024146E-2
3.739874042E0,6.722726561E-3,-2.034645124E-2,-3.930790722E-2,4.476923833E-2
3.749820042E0,-7.556978054E-4,-1.307109884E-2,-4.215140820E-2,4.413803255E-2
3.759766042E0,5.023014061E-3,-1.737285429E-2,-4.394708812E-2,4.752255560E-2
3.769712042E0,1.222145730E-2,-2.410040480E-2,-3.541600049E-2,4.454757704E-2
3.779658042E0,3.037610259E-3,-1.951500001E-2,-2.793156445E-2,3.420869179E-2
3.789604042E0,3.620075164E-3,-1.729924789E-2,-1.296503127E-2,2.191941964E-2
3.799550042E0,2.927244063E-3,-2.074396140E-2,-3.466872633E-2,4.050680532E-2
3.809495042E0,1.124526464E-2,-2.658361222E-2,-6.041460156E-2,6.695572043E-2
3.819441042E0,4.193568248E-3,-1.345945446E-2,4.586555958E-2,4.798325212E-2
3.829387042E0,1.108436571E-2,-6.542906407E-3,-3.211992502E-2,3.460292431E-2
3.839333042E0,1.440459749E-2,-1.385541146E-2,-2.463665843E-2,3.172427768E-2
3.849279042E0,1.683506576E-2,-1.305244257E-2,-6.744880199E-2,7.073278297E-2
3.859225042E0,2.173474012E-2,-2.392734549E-2,-5.128358960E-2,6.062114609E-2
3.869171042E0,1.442953952E-2,-1.948961031E-2,-1.939989209E-2,3.105498887E-2
3.879117042E0,2.217508114E-2,-2.623505421E-2,-1.446133375E-2,3.727120158E-2
3.889063042E0,1.140403482E-2,-3.016990601E-2,-5.532693923E-2,6.404174766E-2
3.899009042E0,1.617808540E-2,-3.145201768E-2,-2.389055371E-2,4.268159346E-2
3.908955042E0,1.944256763E-2,-2.516929409E-2,1.697505176E-2,3.605078617E-2
3.918901042E0,2.406754162E-2,-2.936472157E-2,-2.568623364E-2,4.584011378E-2
3.928847042E0,1.370557199E-2,-2.621623806E-2,-7.313755810E-2,7.889382895E-2
3.938793042E0,1.765094421E-2,-1.545525535E-2,-5.607245922E-2,6.078273959E-2
3.948739042E0,1.042558551E-2,-7.941176668E-3,-3.242105663E-2,3.496970164E-2
3.958684042E0,8.864388065E-3,-1.562036153E-2,-1.984603465E-2,2.676636250E-2
3.968630042E0,7.064806949E-3,-1.655382383E-2,-2.268895090E-2,2.896081962E-2
3.978576042E0,-2.627373263E-3,-1.367556847E-2,-3.601007760E-2,3.860893616E-2
3.988522042E0,-1.015944583E-3,-1.036778487E-2,-2.253633857E-2,2.482759881E-2
3.998468042E0,4.513831213E-3,-2.019303492E-2,-8.614702821E-3,2.241308627E-2
4.008414042E0,1.713754954E-3,-2.241519157E-2,-3.211641669E-2,3.920257632E-2
4.018360042E0,-1.556766350E-3,-2.105442571E-2,-7.238326728E-2,7.539926887E-2
4.028306042E0,1.081058811E-3,-2.072635124E-2,-3.930264473E-2,4.444601452E-2
4.038252042E0,1.710274033E-3,-2.013068441E-2,-2.867474556E-2,3.507720806E-2
4.048198042E0,1.750884773E-3,-1.909548513E-2,-3.121886909E-2,3.663769831E-2
4.058144042E0,-4.508833671E-3,-9.024766227E-3,-4.558898628E-2,4.669187998E-2
4.068090042E0,-1.348477565E-3,-1.975913954E-2,-3.271575630E-2,3.824346607E-2
4.078036042E0,1.302978918E-3,-1.613564741E-2,-2.508104682E-2,2.985156245E-2
4.087982042E0,3.961872328E-3,-1.762869281E-2,-2.403205633E-2,3.006670873E-2
4.097927042E0,3.468778459E-3,-2.412465704E-2,-3.121711493E-2,3.960479473E-2
4.107873042E0,8.880011095E-3,-2.716018423E-2,-4.468909979E-2,5.304381061E-2
4.117819042E0,1.375256899E-2,-3.050354448E-2,-3.451085150E-2,4.806868264E-2
4.127765042E0,1.271922894E-2,-2.364185519E-2,-1.101089180E-2,2.901647531E-2
4.137711042E0,1.666601728E-2,-1.814052061E-2,-2.478342354E-2,3.494356454E-2
4.147657042E0,2.624203890E-2,-2.193313432E-2,-4.050073922E-2,5.300959218E-2
4.157603042E0,3.252926666E-2,-1.693906398E-2,-2.538334787E-2,4.460268408E-2
4.167549042E0,3.280717386E-2,-2.181537688E-2,-1.236042917E-2,4.129166422E-2
4.177495042E0,2.569156922E-2,-1.768062796E-2,-3.152058542E-2,4.434195124E-2
4.187441042E0,1.760543643E-2,-2.878913172E-2,-4.394474924E-2,5.540673679E-2
4.197387042E0,1.114260946E-2,-3.084810537E-2,-3.077389598E-2,4.497550471E-2
4.207333042E0,1.075683028E-2,-3.035898578E-2,-3.496751904E-2,4.754055956E-2
4.217279042E0,5.269264067E-3,-3.244820507E-2,-2.134759963E-2,3.919657084E-2
4.227225042E0,4.908143682E-3,-2.380282721E-2,-1.356495559E-2,2.783293872E-2
4.237170042E0,9.769162461E-3,-1.405821848E-2,-2.209955156E-2,2.795461002E-2
4.247116042E0,2.777125938E-3,-1.245393437E-2,-3.108145952E-2,3.359866122E-2
4.257062042E0,8.174352665E-3,-1.618784294E-2,-2.913667560E-2,3.431926814E-2
4.267008042E0,5.099512087E-3,-5.715475143E-3,-4.006336749E-2,4.078903154E-2
4.276954042E0,8.073204970E-3,-8.651627074E-3,-4.979371905E-2,5.118048209E-2
4.286900042E0,-6.963759754E-3,-2.270967197E-3,-3.108379841E-2,3.193514937E-2
4.296846042E0,-7.971180193E-3,-1.650917942E-2,-2.404842854E-2,3.023937225E-2
4.306792042E0,-4.785681060E-3,-1.766136413E-2,-3.482601643E-2,3.934053820E-2
4.316738042E0,-7.632114775E-3,-2.137593121E-2,-3.153111041E-2,3.885087560E-2
4.326684042E0,-1.897869157E-3,-1.985722201E-2,-3.182990313E-2,3.756399748E-2
4.336630042E0,6.000376157E-3,-2.322837938E-2,-3.512305498E-2,4.253458727E-2
4.346576042E0,6.780751040E-3,-2.074545975E-2,-3.796831012E-2,4.379435190E-2
4.356522042E0,8.958592191E-3,-1.811021559E-2,-3.826651812E-2,4.327311742E-2
4.366467042E0,1.291169370E-2,-1.628557367E-2,-3.153052568E-2,3.776381593E-2
4.376413042E0,1.257148624E-2,-1.794679048E-2,-3.122997880E-2,3.815024418E-2
4.386359042E0,1.417581604E-2,-9.554277286E-3,-3.137966752E-2,3.573403851E-2
4.396305042E0,9.751885766E-3,-1.844725732E-2,-3.167846024E-2,3.793317047E-2
4.406255125E0,2.215071470E-2,-2.357067904E-2,-1.521270096E-2,3.574433301E-2
4.416201125E0,2.528844939E-2,-2.259750593E-2,-2.239717484E-2,4.064217498E-2
4.426147125E0,2.286375524E-2,-2.550510243E-2,-3.107795119E-2,4.625041193E-2
4.436093125E0,1.929440467E-2,-3.397145499E-2,-3.152584791E-2,5.020172201E-2
4.446039125E0,1.520176484E-2,-2.653327592E-2,-3.077798903E-2,4.338655315E-2
4.455985125E0,1.312232137E-2,-2.526703853E-2,-2.568798780E-2,3.834698517E-2
4.465931125E0,1.862074147E-2,-1.750935480E-2,-3.227429152E-2,4.116964186E-2
4.475877125E0,1.161597812E-2,-8.980158367E-3,-1.580794752E-2,2.157464708E-2
4.485823125E0,1.517389921E-2,-1.224739975E-2,-1.476071119E-2,2.445658628E-2
4.495769125E0,1.603869326E-2,-1.821071461E-2,-3.661584914E-2,4.392710116E-2
4.505714125E0,1.013833190E-2,-2.334888227E-2,-5.397857130E-2,5.967949595E-2
4.515660125E0,5.827846751E-4,-2.112846608E-2,-2.335962653E-3,2.126519312E-2
4.525606125E0,1.456184191E-2,-2.657004942E-2,-3.496576488E-2,4.626682915E-2
4.535552125E0,8.123079892E-3,-2.226322792E-2,-1.984720409E-2,3.091192738E-2
4.545498125E0,2.181815431E-3,-2.223542623E-2,-5.008374095E-2,5.484118531E-2
4.555444125E0,8.126460314E-3,-9.427223685E-3,-2.867825389E-2,3.126266383E-2
4.565390125E0,1.456342248E-2,-1.644794354E-2,-1.790008128E-2,2.833797860E-2
4.575336125E0,-8.587385360E-3,-1.705273750E-2,-2.373852611E-2,3.046402247E-2
4.585282125E0,7.436927408E-4,-1.692791772E-2,-4.798926830E-2,5.089280253E-2
4.595228125E0,5.531858867E-3,-1.938887831E-2,-3.272043407E-2,3.843379854E-2
4.605174125E0,3.541494068E-4,-1.623506835E-2,-1.535595775E-2,2.234968242E-2
4.615120125E0,5.373773910E-3,-2.508815484E-2,-2.703109324E-2,3.726892756E-2
4.625066125E0,3.579875557E-3,-2.471036532E-2,-3.915529490E-2,4.643872072E-2
4.635011125E0,1.238640360E-2,-2.545278355E-2,-4.379564524E-2,5.214715454E-2
4.644957125E0,1.329056586E-2,-1.766987914E-2,-2.328712106E-2,3.211158322E-2
4.654903125E0,6.981749078E-3,-1.815935961E-2,-2.223813057E-2,2.954727759E-2
4.664849125E0,9.277795348E-3,-2.087250422E-2,-2.942260444E-2,3.724820225E-2
4.674795125E0,2.051277255E-2,-1.757927927E-2,-3.630828559E-2,4.525590017E-2
4.684741125E0,1.984558697E-2,-1.610510484E-2,-2.104062080E-2,3.310482515E-2
4.694687125E0,1.533375660E-2,-1.458208789E-2,-2.149027169E-2,3.015946213E-2
4.704633125E0,2.171894350E-2,-1.670026917E-2,-2.193933785E-2,3.509908891E-2
4.714579125E0,1.186703380E-2,-1.973253014E-2,-5.052988350E-2,5.552898670E-2
4.724525125E0,4.945099913E-3,-2.610462933E-2,-3.571128488E-2,4.451069032E-2
4.734471125E0,7.811834430E-3,-2.929544121E-2,-3.840568185E-2,4.893101298E-2
4.744417125E0,1.063377379E-2,-2.896834431E-2,-2.927466989E-2,4.253526083E-2
4.754363125E0,1.263754151E-2,-2.699466235E-2,-3.586097360E-2,4.663076965E-2
4.764309125E0,1.093982072E-2,-1.839434459E-2,-3.241754830E-2,3.884493568E-2
4.774254125E0,1.177207137E-2,-1.906291888E-2,-2.029159248E-2,3.022788887E-2
4.784200125E0,2.182116928E-3,-1.768109391E-2,-2.178672552E-2,2.814327851E-2
4.794146125E0,1.083935824E-2,-2.135166984E-2,-3.420971990E-2,4.175751941E-2
4.804092125E0,9.206687724E-3,-7.510817028E-3,-4.064399600E-2,4.234512820E-2
4.814038125E0,1.168816382E-2,-4.085184624E-3,-3.630302310E-2,3.835637357E-2
4.823984125E0,9.005077556E-4,-1.359315014E-2,-3.884714663E-2,4.116655738E-2
4.833930125E0,4.752717381E-3,-1.735318846E-2,-2.866831362E-2,3.384661989E-2
4.843876125E0,2.546535507E-3,-2.104086292E-2,-2.896652162E-2,3.589236869E-2
4.853822125E0,7.568489760E-3,-2.550062566E-2,-1.803924501E-2,3.213997988E-2
4.863768125E0,1.530293995E-2,-2.905568709E-2,-6.962864399E-3,3.356924789E-2
4.873714125E0,1.283352373E-2,-2.404280516E-2,-1.384796083E-2,3.056994979E-2
4.883660125E0,1.819573112E-2,-2.360116222E-2,-3.615216494E-2,4.685166506E-2
4.893606125E0,1.078126981E-2,-2.184305522E-2,-4.543286562E-2,5.155094682E-2
4.903551125E0,1.006069184E-2,-1.890367362E-2,-4.004407167E-2,4.541028598E-2
4.913497125E0,1.832518299E-2,-1.203234098E-2,-2.776959658E-2,3.537993860E-2
4.923443125E0,2.566848186E-2,-1.777929059E-2,-4.273846865E-2,5.292967823E-2
4.933389125E0,2.398444721E-2,-1.426939890E-2,-4.588193178E-2,5.370308293E-2
4.943335125E0,1.434470007E-2,-2.145567262E-2,-3.615274966E-2,4.442001368E-2
4.953281125E0,1.054118679E-2,-2.541729826E-2,-1.684407413E-2,3.226264873E-2
4.963227125E0,7.955502346E-3,-2.189523705E-2,-1.235399723E-2,2.636878212E-2
4.973173125E0,5.526651191E-3,-1.917822780E-2,-2.208317935E-2,2.976600587E-2
4.983119125E0,4.755357765E-3,-2.381485968E-2,-3.869862735E-2,4.568746795E-2
4.993065125E0,3.816742608E-3,-2.146044632E-2,-4.199060977E-2,4.731098803E-2
5.003011125E0,4.967474649E-3,-1.642726815E-2,-3.660181582E-2,4.042553481E-2
5.012957125E0,-3.690963518E-4,-1.817061093E-2,-3.345952213E-2,3.807685589E-2
5.022903125E0,1.066375905E-2,-1.453620552E-2,-3.750170231E-2,4.161003129E-2
5.032848125E0,7.577836169E-3,-1.240181192E-2,-3.061602116E-2,3.389054870E-2
5.042794125E0,1.127876736E-2,-1.083809287E-2,-1.789423406E-2,2.376717196E-2
5.052740125E0,5.283105522E-3,-1.819377596E-2,-7.163248479E-2,7.409546251E-2
5.062686125E0,-7.806051169E-3,-1.397437489E-2,-1.190551579E-2,1.994890710E-2
5.072632125E0,-1.192002419E-2,-1.598959036E-2,3.868985653E-2,4.352768056E-2
5.082578125E0,1.511519864E-2,-2.098881356E-2,-3.465820134E-2,4.324569857E-2
5.092524125E0,1.439575357E-3,-2.232881266E-2,-3.331041813E-2,4.012769876E-2
5.102470125E0,1.691761200E-2,-1.542009439E-2,-7.701952457E-2,8.034918838E-2
5.112416125E0,2.521434506E-2,-8.869129792E-3,-1.250368595E-2,2.950875841E-2
5.122362125E0,1.836976801E-2,-1.294185711E-2,-5.280035734E-4,2.247707343E-2
5.132308125E0,2.282199332E-2,-2.288393727E-2,-4.229232609E-2,5.322742536E-2
5.142254125E0,2.452417262E-2,-3.802090765E-2,-7.193010807E-2,8.497626085E-2
5.152200125E0,2.497786174E-2,-2.998379553E-2,-8.312986493E-3,3.990021699E-2
5.162145125E0,2.286371869E-2,-2.973972453E-2,8.751527667E-3,3.851999590E-2
5.172091125E0,2.377516257E-2,-3.127580178E-2,-3.914827824E-2,5.546189522E-2
5.182037125E0,2.345016701E-2,-2.417320264E-2,-4.423827946E-2,5.559927543E-2
5.191983125E0,3.133313647E-2,-1.039418413E-2,-3.076687932E-2,4.512654837E-2
5.201929125E0,2.095802888E-2,-1.205092873E-2,-1.175582707E-2,2.688239811E-2
5.211875125E0,1.520942104E-2,-1.913592685E-2,-1.714345157E-2,2.985645854E-2
5.221821125E0,7.014731029E-3,-1.322579424E-2,-5.231971622E-2,5.441948906E-2
5.231767125E0,1.064057118E-2,-9.859657260E-3,-4.932477236E-2,5.141369238E-2
5.241713125E0,1.498478746E-2,-1.754188450E-2,-5.316288471E-3,2.367539842E-2
5.251659125E0,1.175702392E-2,-1.600022498E-2,-9.747308493E-4,1.987925831E-2
5.261605125E0,1.987486873E-3,-2.342739942E-2,-4.917391419E-2,5.450566012E-2
5.271551125E0,-5.772846378E-3,-2.113872612E-2,-6.084904969E-2,6.467440255E-2
5.281497125E0,-1.684906254E-2,-1.648877355E-2,-1.369710267E-2,2.726501757E-2
5.291442125E0,-9.268567711E-3,-1.562136195E-2,-3.518269658E-3,1.850166257E-2
5.301388125E0,-1.025031522E-2,-1.696171280E-2,-2.956352234E-2,3.559171977E-2
5.311334125E0,-1.805126835E-3,-6.505287797E-3,-5.096900940E-2,5.141417286E-2
5.321280125E0,5.569829224E-3,-8.300067801E-3,-4.198651671E-2,4.315995492E-2
5.331226125E0,1.076038429E-2,-4.555844371E-3,-2.566986144E-2,2.820431481E-2
5.341172125E0,7.126485938E-3,-1.348781346E-2,-3.135861754E-2,3.487220681E-2
5.351118125E0,-1.570598669E-3,-2.421236984E-2,-5.441009581E-2,5.957486181E-2
5.361064125E0,1.795955842E-2,-2.673230509E-2,-3.779347837E-2,4.965389090E-2
5.371010125E0,1.700904784E-2,-2.360620544E-2,-2.316082120E-3,2.918775223E-2
5.380956125E0,1.551044301E-2,-3.027725267E-2,4.570183754E-3,3.432451676E-2
5.390902125E0,2.728205756E-2,-3.181451764E-2,-3.539611995E-2,5.485762942E-2
5.400848125E0,2.577126495E-2,-3.223854584E-2,-6.264005184E-2,7.501505202E-2
5.410789500E0,1.964182978E-2,-3.043615989E-2,-4.093518734E-2,5.466123735E-2
5.420734500E0,2.200544793E-2,-2.435530229E-2,-2.342219174E-2,4.032393277E-2
5.430680500E0,3.758029254E-2,-2.044934853E-2,-3.165507138E-2,5.322121557E-2
5.440626500E0,2.063345360E-2,-1.552898051E-2,-5.081698179E-2,5.700223050E-2
5.450572500E0,2.798370517E-2,-2.066089440E-2,-1.698674619E-2,3.871059104E-2
5.460518500E0,2.552050162E-2,-1.964113542E-2,2.402796328E-2,4.017976136E-2
5.470464500E0,1.472542690E-2,-1.934436638E-2,-1.114888608E-2,2.674584770E-2
5.480410500E0,6.055175532E-3,-3.017172413E-2,-7.012565732E-2,7.658071495E-2
5.490356500E0,5.742998170E-3,-3.077336608E-2,-4.946744442E-2,5.854067086E-2
5.500302500E0,2.214058257E-2,-2.267475769E-2,-1.653651059E-2,3.574641542E-2
5.510248500E0,2.468751093E-2,-3.292959994E-3,-7.311533868E-2,7.724098350E-2
5.520194500E0,-2.367599744E-2,-3.686364774E-2,-4.691513479E-2,6.419120852E-2
5.530140500E0,2.685270748E-2,-1.624186574E-2,-2.430570602E-2,3.969424955E-2
5.540086500E0,5.247279449E-2,-1.595166111E-2,2.360345542E-2,5.970739286E-2
5.550031500E0,7.145222610E-2,-2.984136558E-2,3.708304167E-3,7.752212093E-2
5.559977500E0,1.379265056E0,1.025569192E-2,5.700041234E-2,1.380480467E0
5.569923500E0,3.658773572E0,-4.079472260E-1,9.989383221E-3,3.681459599E0
5.579869500E0,3.009652236E0,-1.674632330E-1,3.886410356E-2,3.014558166E0
5.589815500E0,1.403594735E0,-1.839770674E-2,4.346118450E-2,1.404387956E0
5.599761500E0,-1.072276440E0,-5.030757511E-2,-4.234612048E-2,1.074290840E0
5.609707500E0,-2.282924753E0,5.691769708E-2,2.049039781E-2,2.283726102E0
5.619653500E0,-2.102383345E0,1.027780627E-1,-1.004767996E-1,2.107290831E0
5.629599500E0,-9.045997833E-1,2.396284448E-2,9.355545044E-5,9.049171203E-1
5.639545500E0,-1.507879242E-1,1.799447270E-2,-6.533620298E-2,1.653167219E-1
5.649491500E0,5.111673565E-1,2.767620010E-1,1.954080999E-1,6.132483975E-1
5.659437500E0,8.552886057E-1,5.315283846E-1,-2.268690437E-1,1.032235722E0
5.669382500E0,5.499941840E-1,3.810922071E-1,3.102123320E-2,6.698411675E-1
5.679328500E0,9.481673140E-2,2.744701300E-2,1.936977893E-1,2.173991368E-1
5.689274500E0,-9.427955501E-2,-3.406904320E-1,2.530791879E-1,4.347501354E-1
5.699220500E0,-5.526673849E-1,-6.921063385E-1,1.364272356E-1,8.961388356E-1
5.709166500E0,-4.085189741E-1,-5.602160306E-1,1.828190446E-2,6.935877603E-1
5.719112500E0,-4.068089924E-1,-1.668678220E-1,-5.776522815E-2,4.434808315E-1
5.729058500E0,-5.814687592E-1,3.025223115E-1,1.059790295E-1,6.639707987E-1
5.739004500E0,-7.985503679E-1,9.469247807E-2,3.226955527E-1,8.664766443E-1
5.748950500E0,-5.208765484E-1,-2.881093087E-2,-9.032544851E-2,5.294347317E-1
5.758896500E0,-1.797407048E-1,1.993108788E-1,-3.969119221E-1,4.791352849E-1
5.768842500E0,-7.317889061E-2,4.883711000E-2,1.625970340E-1,1.848729531E-1
5.778788500E0,4.079932637E-2,2.494246324E-3,2.757874346E-1,2.788001352E-1
5.788734500E0,-1.071171718E-1,-1.522593029E-1,1.890597779E-1,2.653310826E-1
5.798679500E0,-1.747598090E-1,-7.395225066E-1,2.446147585E-1,7.982924957E-1
5.808625500E0,-5.010352098E-2,-1.447017036E0,8.826284319E-1,1.695700921E0
5.818571500E0,-1.772665286E-1,-9.720091166E-1,-1.095493394E-1,9.940956708E-1
5.828517500E0,-1.302646540E-1,-5.120418441E-1,-7.376537365E-1,9.073526135E-1
5.838463500E0,-2.662822008E-3,1.709420705E-1,-3.639236856E-1,4.020805031E-1
5.848409500E0,1.879138698E-1,8.514233038E-1,-1.283855599E-1,8.813149929E-1
5.858355500E0,2.820930537E-1,6.890268293E-1,2.050296932E-1,7.722510198E-1
5.868301500E0,3.427011067E-1,3.101501323E-1,1.218548048E-1,4.780018269E-1
5.878247500E0,4.708076448E-1,7.295780738E-1,1.784330481E-1,8.864436569E-1
5.888193500E0,1.068885274E-1,1.124140183E-1,2.853944099E-1,3.248261658E-1
5.898139500E0,1.779027422E-1,-8.669539471E-1,6.806626797E-1,1.116494611E0
5.908085500E0,4.984301474E-1,9.561740709E-2,1.109208623E0,1.219802882E0
5.918030500E0,-1.391283203E-1,5.073127440E-2,8.294503444E-1,8.425664518E-1
5.927976500E0,2.120937145E-1,-5.370157773E-1,1.050052342E0,1.198323667E0
5.937922500E0,6.478470091E-1,1.771979261E0,1.598993041E0,2.473134650E0
5.947868500E0,6.904180281E-1,2.224524809E0,1.179987999E0,2.611045645E0
5.957814500E0,1.180609485E0,2.250224199E0,1.915298756E0,3.182093184E0
5.967760500E0,1.543725305E0,2.042555511E0,1.909726360E0,3.194084470E0
5.977706500E0,2.669213307E0,2.305042138E0,1.634391500E0,3.887049590E0
5.987652500E0,2.311746556E0,2.380235724E0,-1.612799487E0,3.689283998E0
5.997598500E0,7.488236725E-3,3.201539142E-1,-4.583811859E0,4.594984849E0
6.007544500E0,-7.390490575E0,-4.230044495E0,-3.812046636E0,9.329754924E0
6.017490500E0,-4.929106901E0,-6.362264720E0,-2.649768684E0,8.473239126E0
6.027436500E0,8.213611601E-1,-3.937467658E0,-2.295354325E0,4.631083803E0
6.037381500E0,-6.787540023E-1,-1.068545478E0,-2.139630693E-1,1.283852261E0
6.047327500E0,-1.212170343E0,1.464769182E0,6.093839514E-1,1.996560667E0
6.057273500E0,3.325921114E-1,2.010832466E0,1.976027353E0,2.838793550E0
6.067219500E0,6.269631667E-1,5.975020803E-1,1.455795314E0,1.693939652E0
6.077165500E0,-1.220967333E-1,-9.000423172E-1,-4.601057053E-2,9.094508000E-1
6.087111500E0,-4.969036952E-2,-7.170797235E-1,-2.699232620E-1,7.678092406E-1
6.097057500E0,2.233762094E-1,1.362676797E-1,1.105017339E0,1.135574362E0
6.107003500E0,1.934359802E-1,5.174693028E-1,1.009174458E0,1.150489046E0
6.116949500E0,-1.278101939E-1,6.874259347E-1,6.845920086E-1,9.785479445E-1
6.126895500E0,-5.841514617E-3,-2.283267546E-1,1.652199195E0,1.667911691E0
6.136841500E0,4.001156116E-1,-5.643603909E-1,7.368561763E-1,1.010718644E0
6.146787500E0,-2.253015514E-1,-8.942046033E-1,7.605859315E-1,1.195346653E0
6.156733500E0,-2.025140749E-1,-2.290803291E0,2.027083486E0,3.065592786E0
6.166678500E0,4.936344438E-1,-1.231502261E0,3.015537751E-1,1.360590851E0
6.176624500E0,-1.118733226E0,-5.646317748E-1,2.863381505E-1,1.285442573E0
6.186570500E0,-5.882937024E-1,-6.766213035E-1,1.560690270E0,1.799905550E0
6.196516500E0,-4.553986967E-1,-1.186581320E-1,3.520269406E-1,5.876994913E-1
6.206462500E0,-1.268892574E0,1.953393220E-1,4.690449286E-1,1.366839040E0
6.216408500E0,-3.309165552E-1,2.048060372E-1,3.721717680E-1,5.384822228E-1
6.226354500E0,-1.220064815E0,5.481675504E-1,1.662731785E-1,1.347847390E0
6.236300500E0,-2.016004621E0,-2.780125925E-1,1.754547104E0,2.687005986E0
6.246246500E0,1.740414968E-1,-5.790314935E-2,1.099560717E0,1.114754228E0
6.256192500E0,-8.690010573E-1,-5.821751028E-1,3.602919799E-1,1.106300591E0
6.266138500E0,5.661477385E-1,-3.221698880E-1,1.398955116E0,1.543175983E0
6.276083500E0,6.330004169E-1,-6.564372267E-1,1.050842886E0,1.391355501E0
6.286029500E0,8.248026851E-1,-3.884786291E-1,3.834908080E-1,9.890805399E-1
6.295975500E0,-1.216124377E-1,-7.629694028E-1,4.870555222E-1,9.133099016E-1
6.305921500E0,2.115838373E-1,-9.412932542E-1,1.343354527E0,1.653905105E0
6.315867500E0,-4.971139026E-1,-9.506026062E-1,3.814021826E-2,1.073416146E0
6.325813500E0,-8.165952408E-1,-6.543078169E-1,2.190969247E-1,1.069088382E0
6.335759500E0,-6.306961754E-1,-4.197903228E-1,1.053669430E0,1.297775346E0
6.345705500E0,-3.687394524E-1,-2.256545770E-1,9.999686015E-1,1.089415428E0
6.355651500E0,2.864919323E-1,7.790504153E-1,3.413212734E-1,8.974950632E-1
6.365597500E0,1.515244541E0,1.582945942E0,6.739600164E-1,2.292576275E0
6.375543500E0,2.035143873E0,1.860261985E0,1.203532398E-2,2.757268592E0
6.385489500E0,1.690583827E0,9.420742960E-1,-7.179211378E-2,1.936680604E0
6.395434500E0,1.811290823E0,4.218637455E-1,-2.059050214E-1,1.871133438E0
6.405381000E0,9.715587348E-1,4.643469831E-1,-1.274154484E0,1.668236837E0
6.415327000E0,1.194884366E-1,4.424699181E-1,-1.196191803E0,1.280988659E0
6.425273000E0,-6.583953130E-1,7.517816328E-1,-4.929237878E-1,1.114286261E0
6.435219000E0,-1.650830362E0,1.105247281E0,1.709667385E-1,1.994001520E0
6.445165000E0,-1.949298561E0,7.806662934E-1,8.187785912E-1,2.253797489E0
6.455111000E0,-1.096617814E0,-5.877850677E-1,1.527803190E0,1.970341215E0
6.465057000E0,9.814551473E-1,-2.420867879E0,1.630608351E0,3.079405639E0
6.475003000E0,2.583479970E0,-2.026550805E0,7.994816101E-1,3.379415299E0
6.484949000E0,2.689995189E0,1.192764019E-1,1.036576849E-1,2.694632793E0
6.494895000E0,2.671967638E0,1.657604946E0,-2.584153569E-1,3.154971270E0
6.504841000E0,1.062277116E0,2.359841220E0,-3.538144344E-1,2.611985434E0
6.514786000E0,-5.339443445E-1,2.094657126E0,-1.251554995E0,2.497814034E0
6.524732000E0,-1.273498426E0,8.753632665E-1,-1.107135201E0,1.901001694E0
6.534678000E0,-6.223986840E-1,1.105920441E-1,-3.093457747E-1,7.037794615E-1
6.544624000E0,9.822860366E-1,1.422781058E-1,6.852118134E-1,1.206086293E0
6.554570000E0,2.532591067E0,9.728158861E-1,1.225786901E-1,2.715771308E0
6.564516000E0,2.902668947E0,1.329129713E0,-3.373714793E-1,3.210279166E0
6.574462000E0,2.807845235E0,1.746183831E0,-9.476453769E-1,3.439648906E0
6.584408000E0,2.651347432E0,1.664558162E0,-1.666395650E0,3.546444916E0
6.594354000E0,8.359857774E-1,3.805998715E-1,-1.041040029E0,1.388341753E0
6.604300000E0,-1.336682269E0,-1.005435383E0,-2.513852495E-1,1.691394200E0
6.614246000E0,-2.617383880E0,-1.578286004E0,4.132098663E-1,3.084222346E0
6.624192000E0,-3.180692357E0,-9.499201631E-1,1.798639203E0,3.775480786E0
6.634137000E0,-1.082524855E0,7.460417135E-1,1.607829938E0,2.076910063E0
6.644083000E0,9.326832291E-1,2.186998256E0,1.189590297E0,2.658568121E0
6.654029000E0,7.363079998E-1,2.736371795E0,8.375861603E-1,2.954899431E0
6.663975000E0,1.081549831E0,2.746664064E0,3.053784388E-1,2.967687569E0
6.673921000E0,1.129097635E0,2.205520627E0,-4.899054551E-1,2.525705854E0
6.683867000E0,3.772059283E-1,1.108867657E0,-1.553098830E0,1.945247483E0
6.693813000E0,-1.173553723E-1,-2.037830669E-1,-3.159171680E0,3.167911855E0
6.703759000E0,-7.845296949E-2,-1.183872012E0,-4.265142699E0,4.427092732E0
6.713705000E0,-1.385745378E0,-2.606841935E0,-3.596566799E0,4.653085844E0
6.723651000E0,-2.626259076E0,-3.482718587E0,-1.411723096E0,4.584705835E0
6.733597000E0,-2.074983877E0,-2.108752717E0,3.579653728E-1,2.980022704E0
6.743543000E0,-3.532884774E-1,2.127987790E-1,-1.901467752E-1,4.541496061E-1
6.753488000E0,-2.549970746E-3,9.081687044E-1,-1.154144475E0,1.468613757E0
6.763434000E0,7.832076395E-1,9.322036113E-1,-1.098981258E0,1.640176084E0
6.773380000E0,1.383860821E0,4.289678201E-1,-1.029347352E0,1.777256350E0
6.783326000E0,1.369123791E0,-1.796745582E-1,-1.079390747E0,1.752674324E0
6.793272000E0,8.135505956E-1,-4.870460205E-1,-4.306842703E-1,1.041425628E0
6.803218000E0,3.281866729E-1,-6.001859888E-1,1.790353113E-1,7.070950121E-1
6.813164000E0,4.559872189E-1,-5.817728144E-1,6.348824894E-1,9.744022408E-1
6.823110000E0,2.090800595E-1,-5.858968556E-1,1.396373570E0,1.528675487E0
6.833056000E0,-6.368538782E-1,-3.461111663E-1,3.182582177E0,3.264077988E0
6.843002000E0,-2.644559399E0,-2.132146257E-1,7.145380558E0,7.622048164E0
6.852948000E0,-2.411431789E0,3.650510287E-1,5.118010558E0,5.669417747E0
6.862894000E0,-2.257873088E-1,7.361697131E-1,4.335277712E-1,8.836696689E-1
6.872839000E0,2.964146572E-1,1.149325785E-1,1.321316956E0,1.359025255E0
6.882785000E0,8.653177500E-2,-1.987380892E-1,1.779073250E0,1.792229395E0
6.892731000E0,1.365181598E-1,-2.372203696E-1,4.182630301E-1,4.998546529E-1
6.902677000E0,7.779720426E-2,-3.271637025E-1,-6.948246360E-2,3.433894378E-1
6.912623000E0,-2.508326876E-1,-1.810534778E-1,4.475341916E-1,5.440443472E-1
6.922569000E0,-4.802796225E-1,1.491095540E-1,7.987787747E-1,9.439013221E-1
6.932515000E0,-6.247948730E-1,3.495275483E-1,7.119669181E-1,1.009670755E0
6.942461000E0,-8.287820077E-1,-1.401068884E-1,1.262508000E0,1.516718829E0
6.952407000E0,-1.345313636E0,-9.543103257E-1,8.269670320E-1,1.845115565E0
6.962353000E0,-7.540306181E-2,-7.977867946E-1,-8.825693750E-1,1.192089801E0
6.972299000E0,7.566878121E-1,-4.246610534E-1,1.043622744E-1,8.739593467E-1
6.982245000E0,1.496442526E0,-4.268177989E-1,4.272273964E-1,1.613702859E0
6.992190000E0,1.145938785E0,-5.933020619E-1,3.220049965E-1,1.329988817E0
7.002136000E0,7.747950310E-1,-5.332128578E-1,-6.403519750E-2,9.427214851E-1
7.012082000E0,9.419963088E-1,-6.678718954E-1,-7.622173047E-1,1.383613072E0
7.022028000E0,1.125036013E0,-6.502226597E-1,-1.069720622E0,1.683091722E0
7.031974000E0,7.195036136E-1,-3.715195110E-1,-8.287305522E-1,1.158665838E0
7.041920000E0,1.350388508E-1,-3.453731015E-1,-7.742994064E-1,8.585206120E-1
7.051866000E0,-6.072219434E-1,-3.674729455E-1,-6.711282098E-1,9.768151966E-1
7.061812000E0,-1.014455955E0,-2.719215479E-1,4.681280851E-2,1.051310445E0
7.071758000E0,-7.147746049E-1,1.075212327E-1,5.667144799E-1,9.184927071E-1
7.081704000E0,-2.089352679E-1,3.975899068E-1,2.192688328E-1,4.998104652E-1
7.091650000E0,-4.864634916E-2,5.391638616E-1,-2.682655764E-1,6.041775868E-1
7.101596000E0,-3.260917617E-1,1.037446623E0,-4.804510921E-1,1.188892167E0
7.111541000E0,-9.292884819E-1,1.574288555E0,-4.397533017E-1,1.880251181E0
7.121487000E0,-1.488313727E0,1.852057026E0,-8.379720765E-1,2.519402743E0
7.131433000E0,-1.737979895E0,2.175463015E0,-1.566235769E0,3.194731277E0
7.141379000E0,-1.420525933E0,2.689247330E0,-1.449040026E0,3.368925960E0
7.151325000E0,-1.002338770E0,9.512811756E-1,-5.052877253E-1,1.471371663E0
7.161271000E0,-4.244990855E-1,-1.458008485E0,-2.422068751E-1,1.537742627E0
7.171217000E0,-5.860471290E-1,-8.890621233E-1,-5.203086376E-2,1.066109707E0
7.181163000E0,-1.406430489E0,-3.099784434E-2,1.374113220E-1,1.413467176E0
7.191109000E0,-1.039320070E0,-1.137595686E0,3.402927482E-1,1.578008019E0
7.201055000E0,-1.146501288E0,-1.218385495E0,3.038681030E-1,1.700371795E0
7.211001000E0,-1.426740500E0,-1.059165813E0,5.138240755E-2,1.777655992E0
7.220947000E0,-1.272757291E0,-1.149091896E0,1.903262848E-1,1.725267343E0
7.230892000E0,-1.291691453E0,-9.106845421E-1,7.379069209E-2,1.582168831E0
7.240838000E0,-1.390001274E0,-7.043708003E-1,-2.947815299E-1,1.585918635E0
7.250784000E0,-1.227470314E0,-6.728233176E-1,-8.012331435E-1,1.612869846E0
7.260730000E0,-1.608036929E0,-6.636800265E-1,-1.340253748E0,2.196026879E0
7.270676000E0,-1.870437164E0,-7.989688092E-1,-1.508955275E0,2.532554514E0
7.280622000E0,-1.552432832E0,-1.044063624E0,-6.018737876E-1,1.965290972E0
7.290568000E0,-1.160722593E0,-1.112361442E0,4.037046325E-1,1.657589318E0
7.300514000E0,-1.006356685E0,-9.677902043E-1,1.272192743E0,1.888874276E0
7.310460000E0,-4.406526035E-1,-1.172156239E0,1.850384138E0,2.234288795E0
7.320406000E0,-1.405665965E0,-1.315169778E0,1.708233647E0,2.573641495E0
7.330352000E0,-2.304332725E0,-1.003589782E0,1.595990496E0,2.977302037E0
7.340298000E0,-1.895270289E0,-1.044156010E0,1.536871783E0,2.654107405E0
7.350243000E0,-1.542414213E0,-1.116982496E0,1.226479503E0,2.265158598E0
7.360189000E0,-1.493256086E0,-1.152859257E0,1.067627026E0,2.167654417E0
7.370135000E0,-1.281550042E0,-1.678328648E0,9.234487215E-1,2.304759228E0
7.380081000E0,-1.480258310E0,-1.377751942E0,1.049921657E0,2.278530352E0
7.390027000E0,-1.308741349E0,-1.024852012E0,1.487859106E0,2.230885538E0
7.399973000E0,-8.701048654E-1,-1.110018755E0,1.969202191E0,2.422185249E0
7.409918500E0,-8.112684274E-1,-7.830190668E-1,2.003563061E0,2.299030287E0
7.419864500E0,3.276721179E-2,-7.821314594E-1,1.795362423E0,1.958603977E0
7.429810500E0,3.644768322E-1,-1.182089196E0,1.997055695E0,2.349129558E0
7.439756500E0,-1.999244893E-1,-1.079640423E0,2.159619985E0,2.422715774E0
7.449702500E0,-2.414900064E-2,-9.287331426E-1,1.774224154E0,2.002748055E0
7.459648500E0,-2.009746492E-1,-8.696841583E-1,1.325645649E0,1.598148220E0
7.469593500E0,-5.254863471E-1,-5.037677416E-1,7.531506121E-1,1.047451041E0
7.479539500E0,-1.688430297E-1,-4.442521129E-1,4.345317382E-1,6.439609771E-1
7.489485500E0,-4.235839963E-2,-2.711754067E-1,4.654401201E-1,5.403377098E-1
7.499431500E0,1.863940322E-1,-3.050828621E-2,2.319473505E-1,2.991204844E-1
7.509377500E0,5.668407798E-1,-3.200789968E-1,1.692032182E-1,6.725985154E-1
7.519323500E0,6.005043697E-1,-6.247881487E-1,1.895258009E-1,8.870658138E-1
7.529269500E0,8.088389093E-1,-7.298807403E-1,-1.683998108E-2,1.089600781E0
7.539215500E0,7.729159552E-1,-8.215345301E-1,-1.283551544E-1,1.135250238E0
7.549161500E0,5.855629796E-1,-1.047447115E0,-1.033729255E-2,1.200056800E0
7.559107500E0,4.341528386E-1,-1.041432962E0,1.123595113E-1,1.133885339E0
7.569053500E0,2.340494245E-1,-9.550836200E-1,-1.645108277E-1,9.970093614E-1
7.578998500E0,2.600841522E-1,-9.037976915E-1,-3.973025161E-1,1.020952165E0
7.588944500E0,3.342209995E-1,-8.485350716E-1,-6.692302036E-1,1.131187212E0
7.598890500E0,2.240477622E-1,-4.805519566E-1,-1.469466105E0,1.562196599E0
7.608836500E0,3.732406390E-1,-2.129933086E-1,-2.058412283E0,2.102792394E0
7.618782500E0,5.145005983E-1,-2.261270320E-1,-2.141074955E0,2.213604812E0
7.628728500E0,7.268071514E-1,-1.727445844E-1,-2.164712909E0,2.289993735E0
7.638674500E0,7.710518628E-1,-1.862443435E-1,-2.081233966E0,2.227272491E0
7.648620500E0,7.802021706E-1,-6.768684214E-1,-2.011364416E0,2.261073440E0
7.658566500E0,8.239802742E-1,-1.369778679E0,-2.061106095E0,2.608331930E0
7.668512500E0,7.313176936E-1,-1.531435481E0,-2.260249981E0,2.826455409E0
7.678458500E0,6.879319382E-1,-1.655510473E0,-2.597425579E0,3.156039435E0
7.688404500E0,6.324447852E-1,-1.706533277E0,-3.333256738E0,3.797741791E0
7.698349500E0,8.636647421E-1,-1.176040544E0,-4.273122979E0,4.515370211E0
7.708295500E0,6.777437496E-1,-8.102469188E-1,-5.437455059E0,5.539111316E0
7.718241500E0,6.441333693E-1,-3.677167743E-1,-7.196137313E0,7.234259855E0
7.728187500E0,1.430111420E0,3.392484355E-1,-8.761108915E0,8.883543076E0
7.738133500E0,1.917667463E0,-2.311509597E-1,-9.763266129E0,9.952499423E0
7.748079500E0,2.274479765E0,-4.158861369E-1,-1.027623710E1,1.053315092E1
7.758025500E0,2.738190279E0,-9.953592414E-1,-9.924757454E0,1.034356015E1
7.767971500E0,3.295929283E0,-2.539517386E0,-8.433520412E0,9.404071721E0
7.777917500E0,3.488540952E0,-3.554495790E0,-7.235697235E0,8.784057877E0
7.787863500E0,3.518313805E0,-4.148702709E0,-5.955493807E0,8.065864658E0
7.797809500E0,3.395833932E0,-3.953552179E0,-4.967040712E0,7.199566401E0
7.807755500E0,3.263035479E0,-3.100303082E0,-4.815929364E0,6.591847645E0
7.817700500E0,3.513572590E0,-2.597764133E0,-5.180512615E0,6.777262116E0
7.827646500E0,4.232961379E0,-4.324896566E0,-4.696586523E0,7.660327493E0
7.837592500E0,5.292663381E0,-8.165666479E0,-4.588436422E0,1.075844522E1
7.847538500E0,8.235692149E0,-1.311799443E1,-1.401728450E0,1.555227461E1
7.857484500E0,9.716372044E0,-1.286866915E1,3.433805459E0,1.648640505E1
7.867430500E0,7.205170092E0,-7.941095392E0,6.142875434E0,1.235760457E1
7.877376500E0,3.569324329E0,-4.126049134E0,7.603857813E0,9.358579554E0
7.887322500E0,1.812761690E0,-3.307289546E0,1.015046232E1,1.082848809E1
7.897268500E0,2.105999117E0,-3.602457284E0,1.139862534E1,1.213843443E1
7.907214500E0,1.979202099E0,-1.892333817E0,9.784116715E0,1.016007422E1
7.917160500E0,1.380016569E0,-6.326544079E-1,7.259711165E0,7.416744807E0
7.927106500E0,1.206271526E0,-2.506091778E-1,5.910872535E0,6.037906101E0
7.937051500E0,1.073724064E0,-2.099407697E-1,4.549923152E0,4.679611007E0
7.946997500E0,8.616445291E-1,-4.360713100E-1,3.337997661E0,3.474883863E0
7.956943500E0,8.356841341E-1,-9.612381068E-1,2.778655935E0,3.056677195E0
7.966889500E0,7.366591982E-1,-1.303062679E0,2.572196013E0,2.976042918E0
7.976835500E0,1.969197513E-1,-1.138934990E0,2.591007675E0,2.837123732E0
7.986781500E0,-2.212552051E-1,-8.293833938E-1,2.653583992E0,2.788967315E0
7.996727500E0,-5.078228588E-1,-5.712229756E-1,2.815757103E0,2.917647649E0
8.006673500E0,-4.228758985E-1,-6.542423281E-1,2.865554330E0,2.969555298E0
8.016619500E0,-2.778319135E-1,-8.069563982E-1,3.013959002E0,3.132461982E0
8.026565500E0,-6.406472594E-2,-7.378016710E-1,3.434431111E0,3.513370554E0
8.036511500E0,2.727367960E-2,-5.584969492E-1,3.748610194E0,3.790084574E0
8.046457500E0,1.113152716E-1,-3.967725391E-1,3.957407833E0,3.978805888E0
8.056402500E0,3.977080936E-1,-1.960639382E-1,4.107166135E0,4.131032130E0
8.066348500E0,3.421387873E-1,7.720078826E-3,3.940348581E0,3.955182106E0
8.076294500E0,4.855566616E-1,-1.266300796E-1,4.054428343E0,4.085362853E0
8.086240500E0,5.526563117E-1,-2.432220979E-1,3.748766314E0,3.797082415E0
8.096186500E0,4.538027722E-1,-3.512861715E-1,3.265639536E0,3.315681003E0
8.106132500E0,3.800149307E-1,-7.636558659E-1,3.115338027E0,3.230001959E0
8.116078500E0,3.731326117E-1,-6.306322215E-1,2.613912388E0,2.714675472E0
8.126024500E0,3.786849084E-1,-4.729496261E-1,2.043042877E0,2.130987519E0
8.135970500E0,6.013943160E-1,-8.128328499E-1,2.295712759E0,2.508519372E0
8.145916500E0,8.650976023E-1,-1.097847337E0,2.350631563E0,2.734800063E0
8.155862500E0,5.994436848E-1,-7.175159258E-1,2.002708198E0,2.210204055E0
8.165808500E0,8.403454614E-1,-8.079631425E-1,2.170671222E0,2.463899042E0
8.175753500E0,1.065634149E0,-1.081530682E0,2.431012652E0,2.866200842E0
8.185699500E0,9.460058177E-1,-7.448045889E-1,2.065972148E0,2.391213458E0
8.195645500E0,1.116618507E0,-4.523917660E-1,1.681799555E0,2.068802780E0
8.205591500E0,9.105696443E-1,-6.145821261E-1,1.186794158E0,1.617197774E0
8.215537500E0,3.426971233E-1,-9.600636935E-1,3.445313948E-1,1.076041587E0
8.225483500E0,1.163423422E-1,-8.005282617E-1,-5.356148940E-1,9.701877927E-1
8.235429500E0,2.364567232E-1,-7.532877293E-1,-9.993604910E-1,1.273607308E0
8.245375500E0,6.690249664E-1,-9.554341605E-1,-1.076782304E0,1.587422115E0
8.255321500E0,1.448761699E0,-1.209049246E0,-8.712000489E-1,2.078388814E0
8.265267500E0,2.080052828E0,-1.737509487E0,-1.415493965E-1,2.713963009E0
8.275213500E0,3.114669106E0,-2.486142540E0,4.888716674E-1,4.015104466E0
8.285159500E0,3.851876115E0,-3.951799768E0,1.419774712E0,5.698195438E0
8.295104500E0,1.839838099E0,-4.271993590E0,1.706254950E0,4.954416153E0
8.305050500E0,5.579623675E-1,-3.285437039E0,4.790623784E-2,3.332823660E0
8.314996500E0,-7.344453692E-2,-2.273670218E0,-1.353306488E0,2.646962185E0
8.324942500E0,-5.977637798E-1,-6.778238565E-1,-3.319402345E0,3.440232354E0
8.334888500E0,-2.208639532E-1,9.780432969E-1,-5.083551162E0,5.181490325E0
8.344834500E0,-1.376469648E-1,1.821544501E0,-6.576879169E0,6.825856038E0
8.354780500E0,5.909044111E-1,1.606066418E0,-7.485585598E0,7.678711422E0
8.364726500E0,1.357485493E0,3.420211852E-2,-7.037722793E0,7.167529474E0
8.374672500E0,1.046182655E0,-9.452257991E-2,-6.580233132E0,6.663550160E0
8.384618500E0,1.231078631E0,-4.732408905E-1,-6.819970143E0,6.946330275E0
8.394564500E0,1.183098718E0,-2.047104937E0,-6.235274305E0,6.668508594E0
8.404509500E0,6.774490499E-1,-3.164898443E0,-4.875560146E0,5.852059988E0
8.414455625E0,2.245213866E-2,-3.611798211E0,-4.255146300E0,5.581385173E0
8.424401625E0,6.586888433E-2,-3.550463843E0,-4.404345901E0,5.657596223E0
8.434347625E0,-3.332912922E-4,-3.036890028E0,-4.940519496E0,5.799261509E0
8.444293625E0,-7.759430587E-2,-2.094469138E0,-6.248448082E0,6.590593697E0
8.454239625E0,7.065833867E-2,-1.076526781E0,-7.591170525E0,7.667448888E0
8.464185625E0,4.923045677E-1,-6.794528908E-1,-8.429941916E0,8.471596114E0
8.474131625E0,1.042308875E0,-6.940837938E-1,-8.418314728E0,8.510944892E0
8.484077625E0,2.113464988E0,-1.683040919E0,-7.346739369E0,7.827767264E0
8.494023625E0,2.520535278E0,-2.813667893E0,-5.337470595E0,6.538992082E0
8.503969625E0,2.929671974E0,-3.620785382E0,-3.502635958E0,5.827651612E0
8.513915625E0,2.649506144E0,-3.731401253E0,-2.283199133E0,5.114316807E0
8.523860625E0,1.364776971E0,-2.841431935E0,-1.855630844E0,3.657829609E0
8.533806625E0,1.002116284E0,-1.468938393E0,-2.544382562E0,3.104174556E0
8.543752625E0,1.072837772E0,-3.986719340E-2,-3.671137510E0,3.824894887E0
8.553698625E0,9.513139200E-1,8.378218031E-1,-5.454223119E0,5.599597609E0
8.563644625E0,1.546787053E0,9.720858613E-1,-7.560225890E0,7.777822100E0
8.573590625E0,4.727882575E0,-2.137123261E0,-8.314652950E0,9.800695034E0
8.583536625E0,6.992349569E0,-1.215365759E1,-5.377501218E0,1.501738541E1
8.593482625E0,6.824440339E0,-1.975267332E1,-2.377436954E0,2.103314755E1
8.603428625E0,6.297521424E0,-1.781836761E1,-3.823085010E-2,1.889853068E1
8.613374625E0,4.032017720E0,-9.664513673E0,6.043824770E0,1.209081508E1
8.623320625E0,1.384972961E0,-5.491269323E0,9.465512459E0,1.103032706E1
8.633266625E0,-2.116051796E-1,-4.799854199E0,1.153183427E1,1.249266099E1
8.643211625E0,-2.318315756E-1,-5.226854138E0,1.170128892E1,1.281771869E1
8.653157625E0,7.842766567E-1,-3.922665724E0,9.809242201E0,1.059356544E1
8.663103625E0,1.546101906E0,-1.579867237E0,8.157166382E0,8.451377105E0
8.673049625E0,2.092926789E0,-6.137334028E-1,6.312252315E0,6.678438479E0
8.682995625E0,2.092351715E0,3.918789312E-2,4.602534644E0,5.055966430E0
8.692941625E0,2.644858485E0,-3.275605823E-1,3.794285134E0,4.636719963E0
8.702887625E0,2.728837950E0,-6.799800172E-1,3.641868687E0,4.601319041E0
8.712833625E0,2.113000427E0,-1.161162450E0,3.563859229E0,4.302808576E0
8.722779625E0,1.510489877E0,-1.288729253E0,3.432661743E0,3.965547806E0
8.732725625E0,1.010128870E0,-1.206925829E0,3.417013425E0,3.762048782E0
8.742671625E0,6.701105019E-1,-1.000724939E0,3.071983262E0,3.299633260E0
8.752616625E0,3.244783688E-1,-7.511789310E-1,2.729612414E0,2.849621015E0
8.762562625E0,8.045578703E-2,-5.630273719E-1,2.108636942E0,2.183992378E0
8.772508625E0,-1.171666534E-1,-6.108422470E-1,1.626129384E0,1.741020692E0
8.782454625E0,-2.031239395E-1,-6.096027104E-1,1.542242305E0,1.670744183E0
8.792400625E0,2.887808248E-2,-3.770536083E-1,1.639037113E0,1.682095724E0
8.802346625E0,2.466970982E-1,-1.492497410E-1,1.800668187E0,1.823606553E0
8.812292625E0,5.026770897E-1,-1.479571409E-1,2.116266974E0,2.180174643E0
8.822238625E0,6.917337978E-1,-2.335698798E-1,2.632193123E0,2.731573022E0
8.832184625E0,6.862714751E-1,-1.921990748E-1,3.007891932E0,3.091168532E0
8.842130625E0,6.333474492E-1,-3.919483669E-1,3.079575287E0,3.168364951E0
8.852076625E0,5.963908535E-1,-6.605749357E-1,3.074011661E0,3.200248270E0
8.862022625E0,4.522777453E-1,-6.658388186E-1,2.610771264E0,2.732036435E0
8.871967625E0,3.254963690E-1,-7.710781753E-1,2.199358832E0,2.353229421E0
8.881913625E0,1.221587138E-1,-5.058169714E-1,1.784609978E0,1.858926124E0
8.891859625E0,-8.749948919E-2,-5.308855198E-2,1.303762445E0,1.307773324E0
8.901805625E0,-1.850263685E-2,2.290588260E-2,1.095011584E0,1.095407411E0
8.911751625E0,2.064714704E-1,-1.073094173E-1,1.010104165E0,1.036559793E0
8.921697625E0,4.231820002E-1,-3.889255026E-1,9.956521869E-1,1.149638782E0
8.931643625E0,7.619436550E-1,-8.141230381E-1,1.022240646E0,1.512722841E0
8.941589625E0,8.545305142E-1,-9.496069716E-1,9.395060527E-1,1.585763987E0
8.951535625E0,1.021794503E0,-1.334775053E0,6.518581259E-1,1.802944111E0
8.961481625E0,8.250789660E-1,-1.587963438E0,2.089958596E-1,1.801683227E0
8.971427625E0,5.816131854E-1,-1.265291274E0,-2.971057981E-1,1.423905812E0
8.981373625E0,3.256191605E-1,-1.096724233E0,-7.286735827E-1,1.356391194E0
8.991318625E0,2.210744530E-1,-8.871497914E-1,-9.548503160E-1,1.321986306E0
9.001264625E0,3.809788442E-1,-1.047586864E0,-9.555408722E-1,1.468210297E0
9.011210625E0,3.545748648E-1,-1.335325715E0,-7.768289119E-1,1.585017747E0
9.021156625E0,6.734413683E-1,-1.648220165E0,-7.839519900E-1,1.945439208E0
9.031102625E0,6.891627771E-1,-1.859860135E0,-7.145823777E-1,2.108234577E0
9.041048625E0,7.831649548E-1,-1.720406966E0,-1.180155230E0,2.228433046E0
9.050994625E0,8.784543970E-1,-1.241275882E0,-2.443105279E0,2.877709392E0
9.060940625E0,2.593497419E-1,-7.065898186E-1,-3.101687118E0,3.191707135E0
9.070886625E0,-2.290500551E-1,-2.569588155E-1,-3.915044755E0,3.930148496E0
9.080832625E0,-1.609320393E-1,9.827824652E-2,-4.832310339E0,4.835988104E0
9.090778625E0,-3.176926750E-1,6.465207875E-2,-5.102209627E0,5.112499546E0
9.100724625E0,-3.288503319E-1,-1.444554627E-1,-4.981904919E0,4.994835988E0
9.110669625E0,-1.739078879E-2,-6.406279635E-1,-5.025448549E0,5.066146440E0
9.120615625E0,-3.750345647E-2,-9.377559811E-1,-4.966612111E0,5.054505777E0
9.130561625E0,-2.089590222E-2,-1.118443716E0,-4.629884411E0,4.763106406E0
9.140507625E0,1.976967001E-1,-1.379429508E0,-4.610165845E0,4.816174714E0
9.150453625E0,3.297186434E-1,-1.485347727E0,-4.817457826E0,5.052016643E0
9.160399625E0,2.785938057E-1,-1.362317047E0,-4.962253012E0,5.153394726E0
9.170345625E0,2.983322516E-1,-1.097843390E0,-5.468032488E0,5.585126814E0
9.180291625E0,5.120120233E-1,-7.749168724E-1,-6.322724678E0,6.390578990E0
9.190237625E0,6.941443124E-1,-2.146156186E-1,-7.122887489E0,7.159847929E0
9.200183625E0,7.654227483E-1,4.413180166E-1,-7.801573809E0,7.851444929E0
9.210129625E0,7.726782659E-1,6.750896984E-1,-8.232384380E0,8.296079217E0
9.220074625E0,6.155322987E-1,8.610080597E-1,-8.598042934E0,8.662941601E0
9.230020625E0,3.414180449E-1,-7.120563805E-2,-8.447228624E0,8.454425347E0
9.239966625E0,3.335956398E-1,-2.155773686E0,-7.264737432E0,7.585186629E0
9.249912625E0,1.832455990E-1,-3.853121280E0,-5.861955314E0,7.017310214E0
9.259858625E0,4.590774724E-1,-4.647812558E0,-5.088901949E0,6.907230758E0
9.269804625E0,1.185502216E0,-5.907846016E0,-4.197873992E0,7.343718820E0
9.279750625E0,2.352940044E0,-6.943166884E0,-3.186954725E0,7.993783437E0
9.289696625E0,3.078584769E0,-6.579548423E0,-2.536988173E0,7.694442840E0
9.299642625E0,3.263531030E0,-6.208079490E0,-1.865779856E0,7.257549188E0
9.309588625E0,3.688490877E0,-5.922859912E0,-4.562488818E-1,6.992381392E0
9.319534625E0,4.352022969E0,-5.131501839E0,9.658419120E-1,6.797445523E0
9.329480625E0,4.670221720E0,-4.422885375E0,2.413994915E0,6.870244348E0
9.339425625E0,3.860010177E0,-3.921245728E0,4.082428905E0,6.851428492E0
9.349371625E0,3.070351012E0,-3.184868146E0,5.316420618E0,6.916268404E0
9.359317625E0,2.779009399E0,-2.604234077E0,5.799483662E0,6.938223051E0
9.369263625E0,2.697415890E0,-2.167162016E0,6.129226863E0,7.038470404E0
9.379209625E0,2.549118807E0,-2.089336745E0,6.214726020E0,7.034639595E0
9.389155625E0,2.578891075E0,-2.036651870E0,6.099549320E0,6.928429254E0
9.399101625E0,2.356541929E0,-1.758930469E0,5.735745503E0,6.445611121E0
9.409047792E0,1.846746439E0,-1.833578655E0,5.097911339E0,5.723738561E0
9.418993792E0,1.784743587E0,-2.027565589E0,4.710624518E0,5.430130316E0
9.428939792E0,1.572583507E0,-1.979890024E0,4.232963718E0,4.930615096E0
9.438885792E0,1.406316029E0,-1.778989635E0,4.064451056E0,4.654276665E0
9.448830792E0,1.360277538E0,-1.581744924E0,3.832748119E0,4.363740383E0
9.458776792E0,1.079136832E0,-1.349368680E0,3.466105478E0,3.872882560E0
9.468722792E0,8.779543139E-1,-1.123980736E0,3.591177421E0,3.864025329E0
9.478668792E0,9.581348433E-1,-9.735678381E-1,3.602335662E0,3.852619750E0
9.488614792E0,8.658736009E-1,-7.605689746E-1,3.376646587E0,3.567904767E0
9.498560792E0,7.604291531E-1,-6.696023789E-1,3.389719791E0,3.537911829E0
9.508506792E0,6.728415902E-1,-7.137732692E-1,3.186109217E0,3.333688652E0
9.518452792E0,4.752568277E-1,-8.820475110E-1,2.567434040E0,2.756010598E0
9.528398792E0,6.043132460E-1,-1.162724534E0,2.351230903E0,2.691729852E0
9.538344792E0,8.980441044E-1,-1.433466698E0,2.539425877E0,3.051228240E0
9.548290792E0,8.579801521E-1,-1.525024155E0,2.371761646E0,2.947385608E0
9.558236792E0,6.941133953E-1,-1.572616690E0,2.081967791E0,2.699908617E0
9.568181792E0,6.254537080E-1,-1.410430861E0,1.859940827E0,2.416585905E0
9.578127792E0,3.814361695E-1,-7.605475592E-1,1.288988285E0,1.544479505E0
9.588073792E0,8.766511157E-3,-1.059774216E-1,1.171744595E0,1.176560011E0
9.598019792E0,2.601936413E-1,-1.017812038E-1,1.430287421E0,1.457320229E0
9.607965792E0,5.831176740E-1,-2.040746602E-1,1.242419890E0,1.387544548E0
9.617911792E0,6.507388227E-1,-3.053516147E-1,1.142527227E0,1.349840394E0
9.627857792E0,5.746359953E-1,-5.856933725E-1,1.107984216E0,1.378721247E0
9.637803792E0,5.092405893E-1,-6.959120719E-1,6.626941860E-1,1.087558354E0
9.647749792E0,6.857452257E-1,-9.735119972E-1,3.424831152E-2,1.191278754E0
9.657695792E0,2.854271543E-1,-1.168867618E0,-4.740021980E-1,1.293212377E0
9.667641792E0,-1.603300685E-1,-8.242241031E-1,-6.866461354E-1,1.084681529E0
9.677586792E0,-2.087415057E-1,-4.531995589E-1,-9.156213462E-1,1.042748918E0
9.687532792E0,7.332993150E-3,-4.072395667E-1,-8.130430573E-1,9.093606823E-1
9.697478792E0,6.786450979E-1,-9.715119570E-1,-1.756012416E-1,1.198011038E0
9.707424792E0,1.212624818E0,-1.636469015E0,3.727646756E-1,2.070614230E0
9.717370792E0,2.273001882E0,-2.394325174E0,-4.607722878E-2,3.301734954E0
9.727316792E0,2.669854747E0,-2.452007957E0,3.015087515E-1,3.637495693E0
9.737262792E0,1.302392442E0,-2.410055354E0,6.463383543E-1,2.814666259E0
9.747208792E0,3.996133357E-2,-2.019532684E0,1.167092550E-1,2.023296869E0
9.757154792E0,-5.569198090E-1,-1.073807533E0,-1.166493795E0,1.680455315E0
9.767100792E0,-6.998672748E-1,-7.025733662E-1,-2.030699404E0,2.259903451E0
9.777046792E0,-3.188480848E-1,-9.044940948E-1,-2.545653162E0,2.720316836E0
9.786992792E0,-1.750820088E-1,-1.045105598E0,-3.261109698E0,3.428955509E0
9.796937792E0,-3.201303792E-1,-7.479623777E-1,-3.741726851E0,3.829158003E0
9.806883792E0,-5.113916337E-2,-8.854614079E-1,-3.926757898E0,4.025678167E0
9.816829792E0,2.585241151E-1,-1.004209587E0,-4.183970482E0,4.310554559E0
9.826775792E0,2.988067532E-1,-9.378495365E-1,-4.550024309E0,4.655273186E0
9.836721792E0,7.512502670E-2,-9.641497278E-1,-4.601847011E0,4.702363702E0
9.846667792E0,-2.762692451E-1,-1.257747781E0,-4.850926704E0,5.018938539E0
9.856613792E0,-5.878059715E-1,-1.164522699E0,-5.771316454E0,5.916901435E0
9.866559792E0,-6.678666329E-1,-5.282251829E-1,-7.160300313E0,7.210753654E0
9.876505792E0,-8.017456520E-1,-6.016036463E-1,-7.911207933E0,7.974455091E0
9.886451792E0,-9.127983105E-1,-7.314732295E-1,-8.393165853E0,8.474283856E0
9.896397792E0,-5.559228587E-1,-7.072973317E-1,-8.887341530E0,8.932757648E0
9.906342792E0,1.927008390E-1,-1.289877062E0,-8.424305200E0,8.524660377E0
9.916288792E0,2.996867591E-1,-1.825873194E0,-7.416857425E0,7.644174196E0
9.926234792E0,-2.092502135E-1,-1.880092671E0,-6.677704462E0,6.940480602E0
9.936180792E0,4.780940795E-1,-1.898258801E0,-5.975612322E0,6.288076260E0
9.946126792E0,1.089982393E0,-2.586417318E0,-4.299221442E0,5.134288769E0
9.956072792E0,8.317655495E-1,-2.806022074E0,-2.988313115E0,4.182775284E0
9.966018792E0,6.848460701E-1,-2.415335390E0,-2.668331839E0,3.663721331E0
9.975964792E0,5.796251321E-1,-1.686122109E0,-2.924397785E0,3.425065761E0
9.985910792E0,8.786485246E-1,-1.446924211E0,-3.502473990E0,3.890107576E0
9.995856792E0,1.590421315E0,-2.673159301E0,-3.324067254E0,4.552432725E0
1.000580279E1,2.889464180E0,-4.835387436E0,-2.450075744E0,6.142706737E0
1.001574779E1,4.319377086E0,-8.329397873E0,-1.176153395E0,9.456173864E0
1.002569379E1,4.831728833E0,-1.035986865E1,2.329156494E-1,1.143357913E1
1.003563979E1,4.251045940E0,-8.669840310E0,1.652631304E0,9.796362223E0
1.004558579E1,3.746136237E0,-6.253073230E0,2.922292203E0,7.853295693E0
1.005553179E1,3.399205145E0,-4.508790621E0,3.766709665E0,6.787627728E0
1.006547779E1,2.429365199E0,-3.703498048E0,4.746430528E0,6.492019395E0
1.007542379E1,1.573603407E0,-3.151520306E0,5.885299737E0,6.858940218E0
1.008536979E1,1.297461193E0,-2.672828056E0,6.380627900E0,7.038453507E0
1.009531579E1,1.337454540E0,-2.379761222E0,6.158800326E0,6.736680902E0
1.010526179E1,1.711538494E0,-1.936620044E0,5.844695503E0,6.390643686E0
1.011520779E1,2.035574228E0,-1.269459462E0,5.393213271E0,5.902697616E0
1.012515279E1,1.913238198E0,-7.338878372E-1,4.934989784E0,5.343519059E0
1.013509879E1,1.814082723E0,-6.398874137E-1,4.625471517E0,5.009524806E0
1.014504479E1,1.913656273E0,-5.536763585E-1,4.215406283E0,4.662433697E0
1.015499079E1,1.803753470E0,-4.032343702E-1,3.944426429E0,4.355987189E0
1.016493679E1,1.522892114E0,-4.168061963E-1,3.739870945E0,4.059502738E0
1.017488279E1,1.313324543E0,-6.394468260E-1,3.467852626E0,3.762939733E0
1.018482879E1,1.323444173E0,-9.819340342E-1,3.179500694E0,3.581190248E0
1.019477479E1,1.088644770E0,-1.258468304E0,2.967022233E0,3.401780540E0
1.020472079E1,5.152514539E-1,-1.270776401E0,2.675261375E0,3.006223569E0
1.021466679E1,3.322583815E-1,-1.354358402E0,2.367251104E0,2.747464304E0
1.022461279E1,3.193266794E-1,-1.514069981E0,2.414735173E0,2.867982460E0
1.023455779E1,1.658242585E-1,-1.409521473E0,2.633755499E0,2.991808232E0
1.024450379E1,3.008392453E-4,-9.488199364E-1,2.708626757E0,2.870003183E0
1.025444979E1,3.450715314E-1,-5.907399216E-1,2.651709960E0,2.738542263E0
1.026439579E1,5.255584140E-1,-3.644295428E-1,2.562428824E0,2.641034270E0
1.027434179E1,6.280245826E-1,-1.981712016E-1,2.780974356E0,2.857884719E0
1.028428779E1,8.675784297E-1,-1.245771587E-1,2.647312853E0,2.788633562E0
1.029423379E1,1.076573266E0,-4.350438812E-1,2.108150454E0,2.406776165E0
1.030417979E1,1.033276388E0,-9.969282686E-1,1.564895003E0,2.123775515E0
1.031412579E1,1.014870523E0,-1.373648220E0,1.058396319E0,2.009247217E0
1.032407179E1,8.297032365E-1,-1.438427330E0,6.864362204E-1,1.796851504E0
1.033401779E1,5.406625029E-1,-1.445150897E0,5.159957314E-1,1.626969161E0
1.034396379E1,5.213152358E-1,-1.416816021E0,3.915283906E-1,1.559625497E0
1.035390879E1,3.033716744E-1,-1.157517442E0,3.162811571E-1,1.237705446E0
1.036385479E1,5.059244871E-1,-1.073412846E0,1.424615622E-1,1.195186187E0
1.037380079E1,7.280982167E-1,-9.368698356E-1,-4.766123950E-1,1.278675673E0
1.038374679E1,6.156849110E-1,-7.254485509E-1,-1.104043193E0,1.457482378E0
1.039369279E1,6.462450913E-1,-1.032877608E0,-1.174598621E0,1.692380215E0
1.040363879E1,6.358823633E-1,-1.129993136E0,-1.194337651E0,1.762859408E0
1.041358442E1,7.464251447E-1,-1.097290828E0,-1.717338932E0,2.170357266E0
1.042353042E1,9.345996541E-1,-9.755436122E-1,-2.246141235E0,2.621128058E0
1.043347642E1,8.391497058E-1,-7.673087677E-1,-2.630895626E0,2.866103063E0
1.044342242E1,7.715728498E-1,-6.801697594E-1,-2.685867054E0,2.876080214E0
1.045336742E1,7.328432322E-1,-6.981020004E-1,-2.560311547E0,2.753107485E0
1.046331342E1,5.241607833E-1,-6.879237521E-1,-2.428652716E0,2.578049191E0
1.047325942E1,3.057117301E-1,-5.840082049E-1,-2.363122970E0,2.453339645E0
1.048320542E1,1.883195204E-1,-6.154802585E-1,-2.395801304E0,2.480754740E0
1.049315142E1,6.703423440E-2,-6.094079250E-1,-2.648195783E0,2.718237023E0
1.050309742E1,-1.859063745E-2,-4.411075169E-1,-2.992749982E0,3.025140312E0
1.051304342E1,-1.135277849E-1,-6.184120524E-1,-3.315080084E0,3.374178120E0
1.052298942E1,-3.331983215E-1,-7.879204953E-1,-3.433494387E0,3.538463442E0
1.053293542E1,-3.483531350E-1,-9.239091897E-1,-3.588553775E0,3.721918362E0
1.054288142E1,-3.092411095E-1,-9.350744480E-1,-3.951365905E0,4.072258194E0
1.055282742E1,-3.131616676E-1,-8.069356406E-1,-4.421839308E0,4.505760560E0
1.056277242E1,-3.474982721E-1,-7.755162120E-1,-4.645951974E0,4.723034003E0
1.057271842E1,-4.375687820E-1,-9.394429028E-1,-4.570728714E0,4.686745181E0
1.058266442E1,-3.612263650E-1,-1.207807882E0,-4.677970158E0,4.844862141E0
1.059261042E1,-5.949927843E-1,-1.098954946E0,-4.715930867E0,4.878700885E0
1.060255642E1,-6.900468761E-1,-8.171355236E-1,-4.516993972E0,4.641886438E0
1.061250242E1,-5.831708837E-1,-6.341124111E-1,-4.607871982E0,4.687714906E0
1.062244842E1,-4.228332138E-1,-4.584696543E-1,-4.865136023E0,4.904949630E0
1.063239442E1,-4.234939492E-1,-4.032894802E-1,-4.813478211E0,4.848872242E0
1.064234042E1,-4.459560281E-1,-1.976633710E-1,-4.825227022E0,4.849820965E0
1.065228642E1,-4.661914873E-1,8.034951389E-2,-5.043227593E0,5.065366236E0
1.066223242E1,-5.597030836E-1,3.073913428E-1,-5.104218730E0,5.144006787E0
1.067217842E1,-3.675828731E-1,-3.233510256E-4,-5.124488103E0,5.137654678E0
1.068212342E1,-2.828666586E-1,-8.404779008E-1,-4.775449090E0,4.857090761E0
1.069206942E1,4.910865927E-1,-2.850287250E0,-4.531440103E0,5.375802532E0
1.070201542E1,1.423871271E0,-4.865078720E0,-3.657643890E0,6.250980657E0
1.071196142E1,1.832715606E0,-5.980880079E0,-2.677878588E0,6.804469615E0
1.072190742E1,2.773169200E0,-7.118374608E0,-2.187929864E0,7.946619505E0
1.073185342E1,4.103152606E0,-7.859743665E0,-1.167361522E0,8.942827557E0
1.074179942E1,4.701092680E0,-7.238799768E0,1.866594958E-1,8.633384981E0
1.075174542E1,4.649015331E0,-5.840924633E0,1.313608571E0,7.579928205E0
1.076169142E1,4.088911713E0,-4.527636489E0,2.759471805E0,6.695772981E0
1.077163742E1,3.519183286E0,-3.700716235E0,3.970397422E0,6.468694408E0
1.078158342E1,3.010324958E0,-3.058467423E0,4.962123789E0,6.560407901E0
1.079152842E1,2.996597450E0,-2.493875775E0,5.670364276E0,6.881282125E0
1.080147442E1,2.857833374E0,-1.945503280E0,5.968138996E0,6.897164467E0
1.081142042E1,2.596297943E0,-1.494656640E0,5.905649217E0,6.622043050E0
1.082136642E1,2.468381330E0,-1.189638244E0,5.466415733E0,6.114723748E0
1.083131242E1,2.486557400E0,-1.257899955E0,4.761164342E0,5.516698822E0
1.084125842E1,2.291149008E0,-1.520448855E0,4.406072291E0,5.193707879E0
1.085120442E1,1.591302929E0,-1.529356503E0,4.124113705E0,4.677551729E0
1.086115042E1,1.122030544E0,-1.456002598E0,3.745563794E0,4.172306825E0
1.087109642E1,1.052620220E0,-1.510858544E0,3.369441648E0,3.839770811E0
1.088104242E1,9.061613553E-1,-1.367879650E0,3.024093981E0,3.440547565E0
1.089098842E1,6.780089939E-1,-1.009534792E0,2.542821940E0,2.818652180E0
1.090093342E1,4.092594874E-1,-7.188267253E-1,2.238051027E0,2.386017097E0
1.091087942E1,2.591177537E-1,-6.238673584E-1,2.121244708E0,2.226214636E0
1.092082542E1,1.890846285E-1,-6.547036734E-1,1.884072286E0,2.003526460E0
1.093077142E1,3.135832518E-1,-6.721735458E-1,1.731008552E0,1.883226577E0
1.094071742E1,4.757766818E-1,-7.567535202E-1,1.762521536E0,1.976239233E0
1.095066342E1,5.572612864E-1,-7.050157481E-1,1.679037330E0,1.904403766E0
1.096060942E1,3.695868601E-1,-5.449360136E-1,1.532620127E0,1.668074986E0
1.097055542E1,2.512288365E-1,-4.078821027E-1,1.428022209E0,1.506230782E0
1.098050142E1,3.529861763E-1,-3.968045526E-1,1.417528796E0,1.513750634E0
1.099044742E1,3.475280929E-1,-3.289733427E-1,1.273984914E0,1.360895587E0
1.100039242E1,3.494608900E-1,-2.384796040E-1,1.165423170E0,1.239841361E0
1.101033842E1,3.569073191E-1,-3.453521977E-1,1.258677489E0,1.353114923E0
1.102028442E1,2.942286757E-1,-5.802096344E-1,1.270833850E0,1.427666770E0
1.103023042E1,4.492544425E-1,-8.262098906E-1,1.062186484E0,1.418693929E0
1.104017642E1,6.146376747E-1,-8.461271882E-1,8.703855318E-1,1.360618118E0
1.105012242E1,5.793795490E-1,-5.992138892E-1,3.008836842E-1,8.861540150E-1
1.106006842E1,3.779552490E-1,-5.270726967E-1,-3.208133340E-2,6.493727818E-1
1.107001442E1,3.679836997E-1,-5.224662602E-1,-1.742283154E-1,6.623733858E-1
1.107996042E1,4.577422607E-1,-6.124174869E-1,-3.640388757E-1,8.468219757E-1
1.108990642E1,4.454701245E-1,-5.116006717E-1,-6.039396089E-1,9.082521293E-1
1.109985242E1,5.937330016E-1,-5.612330076E-1,-6.689325804E-1,1.055922423E0
1.110979842E1,5.363498890E-1,-8.987018430E-1,-3.707310140E-1,1.110305224E0
1.111974342E1,4.837074065E-1,-1.115803113E0,-1.486870927E-1,1.225192758E0
1.112968942E1,4.032976663E-1,-1.151785416E0,2.268719673E-2,1.220562723E0
1.113963542E1,4.871596026E-1,-1.234948026E0,5.142158389E-2,1.328557595E0
1.114958142E1,5.326708210E-1,-1.421711602E0,1.262337846E-1,1.523462192E0
1.115952742E1,7.768996632E-1,-1.439426034E0,-5.485916197E-2,1.636621496E0
1.116947342E1,1.187309883E0,-1.341765546E0,-6.629561412E-1,1.910379644E0
1.117941942E1,9.397989982E-1,-1.131947275E0,-1.173393509E0,1.881855233E0
1.118936542E1,2.950779837E-1,-6.304298347E-1,-1.659901147E0,1.799940169E0
1.119931142E1,1.125273263E-1,-1.524217093E-1,-2.110500450E0,2.118987240E0
1.120925742E1,1.332650614E-1,1.379574519E-1,-2.490458955E0,2.497834590E0
1.121920342E1,9.003659606E-2,7.603836179E-2,-2.588471153E0,2.591152510E0
1.122914842E1,2.706108946E-1,-2.434324515E-1,-2.496207352E0,2.522605946E0
1.123909442E1,5.974503690E-1,-8.496898967E-1,-2.234616080E0,2.464229878E0
1.124904042E1,2.690935421E-1,-1.313967006E0,-1.727325976E0,2.186910070E0
1.125898642E1,-5.334707201E-2,-1.446692369E0,-1.574555480E0,2.138922551E0
1.126893242E1,-2.883051538E-1,-1.342958086E0,-1.901611594E0,2.345801129E0
1.127887842E1,-4.236220032E-1,-1.251943250E0,-2.380541533E0,2.722828583E0
1.128882442E1,-5.121652204E-1,-1.048068382E0,-2.793098558E0,3.026906027E0
1.129877042E1,-6.329663569E-1,-8.467317903E-1,-3.477748161E0,3.634877358E0
1.130871642E1,-4.787928218E-1,-9.110827374E-1,-4.155157743E0,4.280730100E0
1.131866242E1,-4.821011764E-1,-8.097703707E-1,-4.777105021E0,4.869176725E0
1.132860742E1,-1.956548524E-1,-7.988384163E-1,-5.108515849E0,5.174297809E0
1.133855342E1,1.078945774E-1,-1.125804191E0,-5.155877711E0,5.278461072E0
1.134849942E1,-1.048014003E-1,-1.258562883E0,-5.007280666E0,5.164089806E0
1.135844542E1,-2.901481962E-1,-1.222639344E0,-5.013319085E0,5.168404124E0
1.136839142E1,-2.675323355E-1,-1.245321279E0,-4.884113746E0,5.047471220E0
1.137833742E1,-1.658416539E-1,-1.320598918E0,-4.635273789E0,4.822576910E0
1.138828342E1,-1.602312505E-1,-1.485011512E0,-4.204122911E0,4.461567291E0
1.139822942E1,-3.047989798E-1,-1.434927186E0,-3.963469056E0,4.226228272E0
1.140817638E1,-3.260986322E-1,-1.031896738E0,-4.229701556E0,4.365950807E0
1.141812238E1,-1.247041529E-1,-6.490029305E-1,-4.509186185E0,4.557358443E0
1.142806838E1,-1.520960194E-1,-3.779739600E-1,-4.666392086E0,4.684144812E0
1.143801438E1,3.591511881E-1,-1.486853385E-1,-4.967707880E0,4.982892582E0
1.144795938E1,5.486752349E-1,-3.762279814E-1,-5.157326066E0,5.200058092E0
1.145790538E1,3.940666670E-1,-7.728028116E-1,-5.131635740E0,5.204440228E0
1.146785137E1,5.834375167E-1,-2.794207482E0,-4.272476862E0,5.138292842E0
1.147779738E1,1.494892722E0,-5.730583581E0,-2.210354521E0,6.321389051E0
1.148774338E1,2.148207974E0,-7.128865682E0,-8.345672429E-1,7.492130931E0
1.149768938E1,2.603467507E0,-7.684738255E0,-2.690444255E-1,8.118228255E0
1.150763538E1,2.766796612E0,-7.763007914E0,7.456328470E-1,8.274987837E0
1.151758138E1,3.066903494E0,-7.412896521E0,2.055238999E0,8.281360952E0
1.152752738E1,3.706167594E0,-6.556406313E0,3.105425828E0,8.146521438E0
1.153747338E1,3.600302878E0,-5.165198758E0,4.036789048E0,7.479112570E0
1.154741838E1,3.077997708E0,-3.959457867E0,4.919675927E0,7.025282038E0
1.155736438E1,3.035839868E0,-3.684434078E0,5.706563219E0,7.440177549E0
1.156731038E1,3.007877898E0,-3.334708309E0,6.400756356E0,7.819033884E0
1.157725638E1,2.721719257E0,-2.386369307E0,6.639696976E0,7.562280748E0
1.158720237E1,2.451209666E0,-1.758197228E0,6.308077987E0,6.992248152E0
1.159714838E1,2.338472570E0,-1.480016528E0,5.849903033E0,6.471496610E0
1.160709438E1,2.089255469E0,-1.182407577E0,5.280551459E0,5.800629259E0
1.161704038E1,1.897425865E0,-1.124733712E0,4.976957590E0,5.443836670E0
1.162698638E1,1.625123955E0,-1.186861986E0,4.698775136E0,5.111570896E0
1.163693237E1,1.177753340E0,-1.265126529E0,4.306643897E0,4.640563513E0
1.164687838E1,8.747912626E-1,-1.163471223E0,3.867464207E0,4.132336438E0
1.165682438E1,7.688372299E-1,-9.868341471E-1,3.361582990E0,3.586808124E0
1.166676938E1,6.991664860E-1,-8.007568878E-1,2.834521987E0,3.027302473E0
1.167671538E1,4.209773076E-1,-5.340475479E-1,2.345691251E0,2.442272737E0
1.168666138E1,2.733972390E-1,-2.861566675E-1,2.090204179E0,2.127342286E0
1.169660738E1,1.825246373E-1,-2.010269087E-1,1.883439617E0,1.902911415E0
1.170655337E1,2.300385270E-1,-2.539159244E-1,1.727231251E0,1.760885804E0
1.171649938E1,3.744390258E-1,-4.696698863E-1,1.750604911E0,1.850786843E0
1.172644538E1,4.527463996E-1,-7.536634860E-1,1.827633206E0,2.028110226E0
1.173639138E1,4.942458433E-1,-8.495763876E-1,1.860787504E0,2.104421328E0
1.174633738E1,5.531404611E-1,-7.662267405E-1,1.857637024E0,2.084198431E0
1.175628337E1,3.896254143E-1,-3.890376960E-1,1.629526616E0,1.720033513E0
1.176622838E1,-2.918491513E-2,-1.819551185E-2,1.261140336E0,1.261609204E0
1.177617438E1,-3.987040937E-2,8.403545246E-2,1.062170112E0,1.066234943E0
1.178612038E1,7.561970115E-2,-4.323285073E-3,8.185131276E-1,8.220102007E-1
1.179606638E1,1.845433885E-1,-2.023404126E-1,5.718799102E-1,6.340698199E-1
1.180601238E1,4.130204165E-1,-4.957260659E-1,4.758370543E-1,8.017175931E-1
1.181595838E1,4.699877921E-1,-9.059573606E-1,5.730458450E-1,1.170482296E0
1.182590438E1,5.582851338E-1,-1.233664708E0,7.431062651E-1,1.544609279E0
1.183585038E1,5.813792968E-1,-1.568329073E0,6.864502537E-1,1.808002190E0
1.184579638E1,6.503173846E-1,-1.753272995E0,6.395497370E-1,1.976335691E0
1.185574238E1,6.342878276E-1,-1.733836558E0,4.649986553E-1,1.903873422E0
1.186568838E1,1.624128467E-1,-1.480708254E0,9.946932435E-2,1.492906230E0
1.187563437E1,1.837423199E-1,-1.158236942E0,-7.655291677E-2,1.175216747E0
1.188557937E1,3.211951572E-1,-1.034793156E0,-3.791106588E-1,1.147905962E0
1.189552538E1,4.789887035E-1,-8.320295513E-1,-8.299128592E-1,1.269038497E0
1.190547138E1,2.278648245E-1,-2.407073566E-1,-1.237577811E0,1.281195242E0
1.191541738E1,1.444654030E-1,1.438455981E-1,-1.381469017E0,1.396430612E0
1.192536338E1,4.559185141E-1,9.969795048E-2,-1.323591523E0,1.403458546E0
1.193530938E1,6.230307680E-1,2.650016606E-2,-1.563875248E0,1.683619728E0
1.194525538E1,6.288499171E-1,7.048701525E-2,-1.604056145E0,1.724359810E0
1.195520138E1,6.631151855E-1,-5.056730568E-2,-1.390749718E0,1.541578276E0
1.196514738E1,6.475656849E-1,-3.814787811E-1,-1.400314593E0,1.589260311E0
1.197509338E1,5.765676230E-1,-4.921250582E-1,-1.663098405E0,1.827707198E0
1.198503838E1,5.222464049E-1,-6.074239647E-1,-1.978624102E0,2.134633111E0
1.199498438E1,3.946765316E-1,-8.617486095E-1,-2.251380340E0,2.442763530E0
1.200493037E1,3.252542943E-1,-1.092753974E0,-2.554244476E0,2.797153275E0
1.201487638E1,2.437984872E-1,-1.203097365E0,-2.935564505E0,3.181889366E0
1.202482238E1,3.459388196E-2,-1.258918394E0,-3.084370589E0,3.331578333E0
1.203476838E1,-2.340757370E-2,-1.360576331E0,-3.265256544E0,3.537458998E0
1.204471438E1,-1.622081941E-1,-1.206010448E0,-3.533628539E0,3.737285559E0
1.205466037E1,-2.900365144E-1,-1.035161823E0,-3.703911446E0,3.856765637E0
1.206460638E1,-2.686082232E-1,-1.048045578E0,-3.695807498E0,3.850914563E0
1.207455238E1,-3.665233576E-1,-1.006687637E0,-3.835114487E0,3.981942051E0
1.208449838E1,-4.925635993E-1,-8.039325106E-1,-4.155458874E0,4.261075549E0
1.209444338E1,-6.331990761E-1,-9.145752794E-1,-4.571984112E0,4.705361594E0
1.210438938E1,-6.785734695E-1,-8.196369624E-1,-4.901536109E0,5.015707621E0
1.211433538E1,-6.806539088E-1,-5.430823731E-1,-5.290829110E0,5.362005303E0
1.212428137E1,-4.038970059E-1,-5.666390508E-1,-5.391794152E0,5.436511453E0
1.213422738E1,-3.343174785E-1,-6.823607111E-1,-5.053367250E0,5.110176600E0
1.214417338E1,-4.265613985E-1,-5.262248504E-1,-4.954593744E0,5.000686592E0
1.215411938E1,-3.281603605E-1,-8.102545202E-2,-5.343644670E0,5.354324673E0
1.216406538E1,-4.503624898E-1,1.391093534E-1,-5.343183909E0,5.363934383E0
1.217401137E1,-3.466872633E-2,2.479628742E-1,-5.334345258E0,5.340217864E0
1.218395738E1,5.112928158E-1,-1.231277436E-1,-5.154125885E0,5.180887417E0
1.219390338E1,5.118605804E-1,-9.233680299E-1,-4.591757056E0,4.711564776E0
1.220384838E1,7.530208039E-1,-2.521456507E0,-3.710302745E0,4.548750346E0
1.221379438E1,1.152800201E0,-4.456155155E0,-2.737483351E0,5.355378807E0
1.222374038E1,1.873312824E0,-6.300649685E0,-1.884833009E0,6.838134457E0
1.223368638E1,2.516918190E0,-7.094547204E0,-9.974063516E-1,7.593569426E0
1.224363238E1,3.701895034E0,-7.505747967E0,-7.852576733E-2,8.369375465E0
1.225357838E1,4.921271632E0,-7.670865151E0,1.009727604E0,9.169549415E0
1.226352438E1,4.850291404E0,-6.939509450E0,2.380541825E0,8.794833568E0
1.227347038E1,3.886608576E0,-5.613391346E0,3.858035572E0,7.842214426E0
1.228341638E1,3.051553091E0,-4.320396841E0,4.922236422E0,7.225386946E0
1.229336237E1,2.227353985E0,-3.582919398E0,5.844731755E0,7.208280410E0
1.230330838E1,1.553873586E0,-2.995342345E0,6.369823415E0,7.208415167E0
1.231325338E1,1.177382334E0,-2.145233057E0,6.349524806E0,6.804757107E0
1.232319938E1,8.476291917E-1,-1.600072145E0,6.096662550E0,6.359874241E0
1.233314538E1,6.460655817E-1,-1.556175196E0,5.736812620E0,5.979138818E0
1.234309138E1,7.282625234E-1,-1.489661949E0,5.135610677E0,5.396661565E0
1.235303737E1,7.095031938E-1,-1.410900393E0,4.561131095E0,4.826795165E0
1.236298338E1,5.426619583E-1,-1.559808510E0,4.066083598E0,4.388680943E0
1.237292938E1,6.247130120E-1,-1.574135358E0,3.496281788E0,3.884862265E0
1.238287538E1,6.340843445E-1,-1.310007271E0,2.769452417E0,3.128585735E0
1.239282138E1,4.304015574E-1,-1.095966653E0,2.304639119E0,2.588001135E0
1.240276738E1,1.491931692E-1,-9.723777104E-1,2.157490429E0,2.371189989E0
1.241271292E1,3.862085938E-4,-7.501221929E-1,1.902571707E0,2.045106978E0
1.242265792E1,-1.548523968E-1,-4.415431345E-1,1.631481925E0,1.697254511E0
1.243260392E1,-1.865928376E-1,-2.652296655E-1,1.416802572E0,1.453441843E0
1.244254992E1,-9.438780159E-2,-1.238276553E-1,1.368864759E0,1.377691212E0
1.245249592E1,-6.768415242E-2,1.470291147E-1,1.224390001E0,1.235042339E0
1.246244192E1,-4.280015677E-2,3.000863432E-1,1.126704662E0,1.166767784E0
1.247238792E1,2.054185331E-2,3.488098025E-1,1.097460397E0,1.151741972E0
1.248233392E1,1.257350171E-1,4.499164934E-1,1.080885880E0,1.177517911E0
1.249227992E1,1.585478371E-1,5.842594890E-1,8.797767448E-1,1.067943673E0
1.250222592E1,3.392671466E-2,5.972101946E-1,6.123473203E-1,8.560258636E-1
1.251217192E1,5.568069577E-2,3.625989988E-1,4.836863565E-1,6.070674306E-1
1.252211792E1,3.890211046E-2,1.089934154E-1,2.590790159E-1,2.837514322E-1
1.253206292E1,-4.923940301E-3,-1.403631426E-1,1.554897434E-1,2.095307073E-1
1.254200892E1,-1.040517873E-1,-3.964444372E-1,1.967050123E-1,4.546293304E-1
1.255195492E1,-2.633509916E-1,-6.630628529E-1,9.299002469E-2,7.194812273E-1
1.256190092E1,-2.759447247E-1,-7.839095977E-1,1.820542288E-1,8.507664137E-1
1.257184692E1,-1.637097591E-1,-8.803562039E-1,2.680392891E-1,9.347047617E-1
1.258179292E1,-9.491200447E-2,-9.680685318E-1,1.695827025E-1,9.873820252E-1
1.259173892E1,6.002108395E-2,-9.547652391E-1,2.167059982E-1,9.808877010E-1
1.260168492E1,7.879240036E-2,-7.408629808E-1,2.019107884E-1,7.719159055E-1
1.261163092E1,1.126758456E-3,-4.729318652E-1,-1.251274914E-1,4.892062017E-1
1.262157692E1,1.823939520E-1,-4.516988710E-1,-3.883223623E-1,6.229716533E-1
1.263152292E1,4.147090924E-1,-6.215867981E-1,-5.683008295E-1,9.387862439E-1
1.264146792E1,3.101398265E-1,-5.836027005E-1,-6.757802546E-1,9.452289546E-1
1.265141392E1,3.805847418E-1,-5.741243640E-1,-8.280756640E-1,1.077113196E0
1.266135992E1,3.208326298E-1,-5.355002886E-1,-9.140958077E-1,1.106917016E0
1.267130592E1,2.255528355E-1,-4.249285635E-1,-1.032275637E0,1.138872845E0
1.268125192E1,3.118507218E-1,-3.860124198E-1,-1.017487444E0,1.132049981E0
1.269119792E1,4.935699052E-1,-4.985856467E-1,-8.590460265E-1,1.109125319E0
1.270114392E1,5.002491796E-1,-5.420143792E-1,-8.653528333E-1,1.137041932E0
1.271108992E1,5.310634214E-1,-5.365735450E-1,-1.187909222E0,1.407504120E0
1.272103592E1,6.654125565E-1,-6.240054989E-1,-1.351306155E0,1.630394142E0
1.273098192E1,5.375742960E-1,-6.709802753E-1,-1.368478258E0,1.616147703E0
1.274092692E1,4.123678672E-1,-5.031698638E-1,-1.572968838E0,1.702192156E0
1.275087292E1,3.990104878E-1,-4.044554150E-1,-1.813188829E0,1.900117702E0
1.276081892E1,3.456990838E-1,-4.545695615E-1,-1.797793403E0,1.886319820E0
1.277076492E1,3.279317343E-1,-4.399749112E-1,-1.774625857E0,1.857529025E0
1.278071092E1,3.876943713E-1,-5.462158960E-1,-1.813436751E0,1.933186898E0
1.279065692E1,2.447083139E-1,-6.426090002E-1,-1.721714988E0,1.853950103E0
1.280060292E1,1.729214627E-1,-6.187155229E-1,-1.755301102E0,1.869168984E0
1.281054892E1,1.839557433E-1,-4.905808085E-1,-2.064715582E0,2.130154848E0
1.282049492E1,5.604673147E-2,-3.320961213E-1,-2.359093654E0,2.383013205E0
1.283044092E1,6.311426103E-2,-3.405816007E-1,-2.534604263E0,2.558163014E0
1.284038692E1,1.157649297E-1,-3.983181775E-1,-2.767184575E0,2.798101028E0
1.285033292E1,1.414558411E-2,-1.543208849E-1,-3.139629408E0,3.143451583E0
1.286027792E1,-1.579590225E-1,5.624670625E-2,-3.623203205E0,3.627080949E0
1.287022392E1,-8.780997634E-2,1.339035773E-1,-3.912333401E0,3.915608944E0
1.288016992E1,-8.410634995E-3,2.597479373E-1,-4.285510890E0,4.293383668E0
1.289011592E1,-5.963516772E-2,2.662032634E-1,-4.632489345E0,4.640514849E0
1.290006192E1,-6.259619772E-2,1.291544688E-1,-4.594271944E0,4.596513228E0
1.291000792E1,-1.371651542E-1,-1.281417310E-2,-4.536422516E0,4.538513823E0
1.291995392E1,-3.601364440E-1,-2.553829908E-2,-4.462833552E0,4.477413738E0
1.292989992E1,-3.584980541E-1,5.719687879E-2,-4.512881625E0,4.527459873E0
1.293984592E1,-4.372068393E-1,-1.741037697E-2,-4.307475956E0,4.329642255E0
1.294979192E1,-6.853118008E-1,1.409383625E-2,-4.025251907E0,4.083197743E0
1.295973692E1,-7.545650536E-1,-1.412041184E-1,-3.991539200E0,4.064688452E0
1.296968292E1,-4.655816227E-1,-7.177699873E-1,-3.717120599E0,3.814308004E0
1.297962892E1,9.096297044E-1,-2.191796335E0,-3.027101204E0,3.846392996E0
1.298957492E1,2.546263027E0,-4.236943333E0,-2.160547353E0,5.394729749E0
1.299952092E1,3.783655773E0,-6.465994910E0,-1.116029985E0,7.574342487E0
1.300946692E1,4.982325919E0,-8.343427098E0,3.956530166E-1,9.725887548E0
1.301941292E1,5.404912380E0,-8.816919419E0,2.128772414E0,1.055854241E1
1.302935892E1,4.596482483E0,-7.422447948E0,3.457220049E0,9.390034889E0
1.303930492E1,3.050717524E0,-5.429547869E0,4.390549103E0,7.619959901E0
1.304925092E1,1.738022872E0,-4.129124769E0,5.089242257E0,6.780175633E0
1.305919692E1,8.615144286E-1,-3.227345829E0,5.773973429E0,6.670587483E0
1.306914292E1,1.795843649E-1,-2.567626414E0,6.264974068E0,6.773097963E0
1.307908792E1,-2.167703176E-1,-2.220172434E0,6.252549319E0,6.638563700E0
1.308903392E1,-1.431500718E-1,-1.759977267E0,5.710533478E0,5.977307465E0
1.309897992E1,-5.502843887E-2,-1.033352110E0,5.191263306E0,5.293397720E0
1.310892592E1,-8.776963055E-3,-5.593103700E-1,4.755860918E0,4.788644714E0
1.311887192E1,1.475726134E-1,-4.863148262E-1,4.145639645E0,4.176674257E0
1.312881792E1,3.516749382E-1,-6.331952023E-1,3.412965982E0,3.488975239E0
1.313876392E1,6.080101481E-1,-8.598435136E-1,2.808457439E0,2.999406674E0
1.314870992E1,6.894738489E-1,-1.216874867E0,2.356634899E0,2.740417245E0
1.315865592E1,5.998293087E-1,-1.373387581E0,2.112163982E0,2.589831140E0
1.316860192E1,7.184710684E-1,-1.184783008E0,1.805533070E0,2.275930825E0
1.317854692E1,4.273253372E-1,-6.141010465E-1,1.554095196E0,1.724801124E0
1.318849292E1,1.178605717E-1,-5.990264129E-2,1.364165352E0,1.370557021E0
1.319843892E1,1.948523220E-1,2.895359197E-1,1.077371703E0,1.132487644E0
1.320838492E1,2.639120319E-1,5.024675401E-1,7.655396926E-1,9.529817472E-1
1.321833092E1,3.914950615E-1,4.942073978E-1,6.865151578E-1,9.321010660E-1
1.322827692E1,5.086867118E-1,2.708576471E-1,6.457302439E-1,8.655019258E-1
1.323822292E1,6.517704177E-1,2.252142817E-2,5.465217054E-1,8.508806418E-1
1.324816892E1,7.344444922E-1,-2.847968245E-1,5.887520510E-1,9.834362820E-1
1.325811492E1,5.463690931E-1,-5.517537940E-1,7.752793998E-1,1.097273705E0
1.326806092E1,4.089680037E-1,-6.897505684E-1,7.934478682E-1,1.128082530E0
1.327800692E1,2.378360814E-1,-7.395323007E-1,9.480061501E-1,1.225638481E0
1.328795192E1,8.822980642E-2,-7.284717076E-1,8.864425707E-1,1.150754517E0
1.329789792E1,-6.547127366E-3,-6.354675034E-1,7.696561325E-1,9.981144097E-1
1.330784392E1,-1.518545294E-1,-5.750061241E-1,6.533784020E-1,8.835129750E-1
1.331778992E1,-2.351334983E-1,-6.108682671E-1,4.766240895E-1,8.097026148E-1
1.332773592E1,-2.208370560E-1,-6.188719359E-1,1.192849535E-1,6.678325977E-1
1.333768192E1,-7.994430184E-2,-7.042406997E-1,-4.738525093E-2,7.103459837E-1
1.334762792E1,-4.028439224E-2,-7.696660727E-1,-2.321239364E-1,8.049162799E-1
1.335757392E1,3.392203689E-2,-7.298588133E-1,-4.922671455E-1,8.810059787E-1
1.336751992E1,2.080222982E-1,-7.603748471E-1,-5.454253525E-1,9.586094093E-1
1.337746592E1,2.449685150E-1,-6.637732896E-1,-6.943586129E-1,9.913316482E-1
1.338741192E1,4.265801096E-1,-6.288130796E-1,-8.800299293E-1,1.162681881E0
1.339735692E1,6.245820343E-1,-5.902059612E-1,-9.616517973E-1,1.289658859E0
1.340730292E1,4.055979609E-1,-4.538450915E-1,-1.091097457E0,1.249391346E0
1.341724888E1,3.573584318E-1,-1.829716569E-1,-1.517184647E0,1.569405279E0
1.342719488E1,3.612748969E-1,6.540344596E-2,-1.709368007E0,1.748352409E0
1.343714088E1,9.993651688E-2,2.713002813E-1,-2.036483470E0,2.056904488E0
1.344708688E1,2.572593623E-1,3.074389976E-1,-2.158333012E0,2.195245433E0
1.345703288E1,2.849260479E-1,2.992435402E-1,-2.215967848E0,2.254161274E0
1.346697888E1,2.821778566E-1,2.485002333E-1,-2.405335774E0,2.434546548E0
1.347692488E1,2.892524028E-1,-3.136680365E-2,-2.373854949E0,2.391618312E0
1.348687088E1,1.150591707E-1,-4.263772112E-1,-2.115175006E0,2.160787228E0
1.349681688E1,-3.275025487E-3,-6.228243613E-1,-1.987536720E0,2.082840158E0
1.350676188E1,6.795107782E-2,-8.866045386E-1,-1.980373004E0,2.170843659E0
1.351670788E1,1.484029180E-1,-1.234325590E0,-1.817930921E0,2.202375064E0
1.352665388E1,-5.940186381E-3,-1.290958797E0,-1.725375929E0,2.154885612E0
1.353659988E1,3.959208190E-2,-1.325252132E0,-1.763902649E0,2.206629398E0
1.354654587E1,1.202035511E-1,-1.292638702E0,-1.900831283E0,2.301852140E0
1.355649188E1,1.209256822E-1,-1.026495080E0,-2.250890928E0,2.476857917E0
1.356643788E1,6.838435650E-2,-6.839511538E-1,-2.533264081E0,2.624860474E0
1.357638388E1,3.545926988E-2,-4.892400420E-1,-2.713715004E0,2.757691480E0
1.358632988E1,6.574258447E-2,-2.948411715E-1,-3.067950438E0,3.082786611E0
1.359627588E1,1.557405889E-2,1.233990544E-1,-3.373477103E0,3.375769193E0
1.360622188E1,-3.734324276E-2,4.909784192E-1,-3.698122703E0,3.730759420E0
1.361616687E1,1.498705691E-1,5.945706153E-1,-3.880074313E0,3.928225054E0
1.362611288E1,4.831039739E-1,4.844324613E-1,-3.855183885E0,3.915419141E0
1.363605888E1,4.599776512E-1,7.142391461E-1,-4.004649827E0,4.093768097E0
1.364600488E1,1.641541475E-1,1.089582444E0,-4.180725862E0,4.323494561E0
1.365595088E1,1.218150437E-1,1.669177755E0,-4.539644916E0,4.838322979E0
1.366589687E1,4.449403667E-1,1.920521782E0,-4.780457815E0,5.170991468E0
1.367584288E1,6.160410064E-1,1.463959197E0,-4.606706048E0,4.872825019E0
1.368578888E1,6.425809336E-1,6.990132889E-1,-4.433841303E0,4.534366387E0
1.369573488E1,1.036130122E0,-1.030960599E0,-4.134624660E0,4.385380994E0
1.370568088E1,1.700669689E0,-3.927273622E0,-3.483211507E0,5.518017570E0
1.371562687E1,2.268168281E0,-6.868321939E0,-2.646835721E0,7.702218702E0
1.372557188E1,3.020967475E0,-9.377415385E0,-1.670323809E0,9.992604536E0
1.373551788E1,3.422625290E0,-1.051968124E1,-3.568555713E-3,1.106246220E1
1.374546388E1,2.931711775E0,-9.630063048E0,2.196881951E0,1.030336540E1
1.375540988E1,2.003006114E0,-7.304078668E0,3.679365127E0,8.420173776E0
1.376535588E1,1.489056616E0,-4.254751028E0,4.700117072E0,6.512395596E0
1.377530188E1,1.447355151E0,-2.158455365E0,5.660665500E0,6.228715790E0
1.378524787E1,1.277728887E0,-1.749168689E0,6.599445913E0,6.945852616E0
1.379519388E1,1.436391329E0,-1.916179932E0,6.819273155E0,7.227548128E0
1.380513988E1,1.534135725E0,-1.813943997E0,6.098958752E0,6.545323758E0
1.381508588E1,1.652218929E0,-1.535439362E0,5.640166916E0,6.074445181E0
1.382503188E1,1.550125082E0,-1.277747305E0,5.139998428E0,5.518614843E0
1.383497688E1,1.296788909E0,-1.045305134E0,4.265826239E0,4.579475712E0
1.384492288E1,9.588751008E-1,-1.049256390E0,3.536551563E0,3.811505921E0
1.385486888E1,7.383977947E-1,-1.224467038E0,2.986728519E0,3.311358947E0
1.386481488E1,6.577103117E-1,-1.331212053E0,2.384673468E0,2.809159293E0
1.387476088E1,5.748198903E-1,-1.228232206E0,1.915209879E0,2.346700053E0
1.388470688E1,4.606044728E-1,-1.063231309E0,1.679289930E0,2.040252917E0
1.389465288E1,3.368735889E-1,-7.794250026E-1,1.371977817E0,1.613477697E0
1.390459888E1,2.156233862E-1,-3.380988729E-1,1.046601316E0,1.120793740E0
1.391454488E1,1.177255011E-1,6.143230945E-5,1.030137895E0,1.036842988E0
1.392449088E1,1.004487330E-1,1.838898160E-1,1.032843987E0,1.053884298E0
1.393443688E1,7.874533027E-2,1.974785807E-1,1.063967546E0,1.085000256E0
1.394438188E1,4.076971114E-3,9.211392906E-2,1.039905084E0,1.043984761E0
1.395432788E1,3.146854520E-2,1.414295286E-2,1.132895694E0,1.133420904E0
1.396427387E1,1.354832026E-1,-3.021216859E-1,1.188444242E0,1.233706987E0
1.397421988E1,1.014638096E-1,-6.124589290E-1,1.163452658E0,1.318720187E0
1.398416588E1,1.117823911E-1,-7.257620347E-1,1.229689917E0,1.432258051E0
1.399411188E1,1.897675833E-1,-7.750639299E-1,1.147558172E0,1.397721570E0
1.400405788E1,7.790537775E-3,-3.892910998E-1,6.819204158E-1,7.852539120E-1
1.401400388E1,-1.689286914E-1,2.613179147E-2,4.407104909E-1,4.727002329E-1
1.402394988E1,-1.239843607E-2,1.786017403E-2,3.422293460E-1,3.429192796E-1
1.403389588E1,1.085363093E-1,-1.340534122E-1,1.828202140E-1,2.513437455E-1
1.404384188E1,1.327060676E-1,-2.405383721E-1,1.654586613E-1,3.206963945E-1
1.405378688E1,1.662106133E-1,-4.531405020E-1,-4.142869234E-2,4.844363932E-1
1.406373288E1,1.832923767E-1,-5.540447330E-1,-3.283451325E-1,6.696059943E-1
1.407367888E1,3.031336927E-1,-6.803229564E-1,-4.832799751E-1,8.878563482E-1
1.408362487E1,3.683959284E-1,-9.069566497E-1,-5.311961532E-1,1.113757280E0
1.409357088E1,3.593994024E-1,-1.157786121E0,-6.967179644E-1,1.398231939E0
1.410351688E1,3.403646690E-1,-1.272825996E0,-6.748634112E-1,1.480329270E0
1.411346288E1,2.126173326E-1,-1.089892931E0,-6.953707659E-1,1.310195876E0
1.412340888E1,-7.028177798E-2,-8.292424759E-1,-8.990123302E-1,1.225073786E0
1.413335487E1,3.817822516E-2,-8.760242942E-1,-9.659962785E-1,1.304616783E0
1.414330088E1,1.633279359E-1,-7.327262878E-1,-1.154684173E0,1.377265177E0
1.415324688E1,5.086551368E-2,-3.367850035E-1,-1.480610898E0,1.519282748E0
1.416319188E1,3.125167197E-1,-3.680161518E-1,-1.493076577E0,1.569197327E0
1.417313788E1,3.287719792E-1,-3.034441799E-1,-1.731935336E0,1.788789924E0
1.418308388E1,1.482994223E-1,-8.510622382E-2,-2.316829394E0,2.323130265E0
1.419302988E1,3.379556161E-1,9.145630002E-3,-2.555046714E0,2.577316696E0
1.420297587E1,2.765007949E-1,-2.672218484E-1,-2.660459733E0,2.688104573E0
1.421292188E1,1.125249875E-1,-4.986470425E-1,-2.715251652E0,2.762951733E0
1.422286788E1,1.804351348E-1,-6.345223010E-1,-2.680120411E0,2.760112462E0
1.423281388E1,2.404667437E-2,-8.556686747E-1,-2.695288673E0,2.827954765E0
1.424275988E1,-2.522956610E-1,-7.966655910E-1,-2.897144498E0,3.015257104E0
1.425270587E1,-4.441094774E-1,-5.827124619E-1,-3.055070191E0,3.141693956E0
1.426265188E1,-5.415620971E-1,-6.073847884E-1,-3.205414385E0,3.307096485E0
1.427259688E1,-4.712616080E-1,-7.248956966E-1,-3.220115454E0,3.334172283E0
1.428254288E1,-4.875765091E-1,-8.001961398E-1,-3.385083534E0,3.512383129E0
1.429248888E1,-4.290581596E-1,-7.224106300E-1,-3.553660516E0,3.651639506E0
1.430243488E1,-2.172427726E-1,-5.277930737E-1,-3.909345474E0,3.950790046E0
1.431238088E1,-8.971558392E-2,-1.197837210E-1,-4.395696407E0,4.398243277E0
1.432232688E1,-4.054927111E-2,3.913950741E-2,-4.721296856E0,4.721633208E0
1.433227288E1,2.574488121E-1,9.417233169E-2,-4.882224510E0,4.889914569E0
1.434221888E1,9.163756371E-3,2.534499013E-1,-4.954718290E0,4.961204910E0
1.435216488E1,-2.712038022E-1,3.530314922E-1,-4.908793089E0,4.928938255E0
1.436211088E1,-5.918750489E-1,1.862627622E-1,-4.751665540E0,4.792007439E0
1.437205687E1,-4.399643862E-1,-4.282258084E-1,-4.247063693E0,4.291211486E0
1.438200187E1,6.902111828E-2,-1.336377629E0,-3.479769251E0,3.728198375E0
1.439194788E1,4.470924345E-1,-2.069456796E0,-2.977529680E0,3.653522419E0
1.440189388E1,6.118272105E-1,-2.758177816E0,-2.805621539E0,3.981631528E0
1.441183963E1,1.004650759E0,-3.930725818E0,-2.187959100E0,4.609456978E0
1.442178563E1,2.000890007E0,-5.273091581E0,-1.361917098E0,5.802057723E0
1.443173163E1,2.679124922E0,-5.654777353E0,-7.961498666E-1,6.307778680E0
1.444167763E1,2.864271159E0,-5.195667429E0,3.647493124E-3,5.932876419E0
1.445162363E1,3.237336966E0,-4.935987904E0,1.078291470E0,6.000586614E0
1.446156963E1,3.208377753E0,-4.731758110E0,2.336105910E0,6.175808728E0
1.447151563E1,2.744642974E0,-4.351248797E0,3.357631441E0,6.143298792E0
1.448146163E1,1.789362449E0,-3.478307447E0,4.491267393E0,5.955831047E0
1.449140663E1,1.317593595E0,-2.782410724E0,5.270436945E0,6.103717548E0
1.450135262E1,9.396591036E-1,-2.374162074E0,5.543555710E0,6.103328166E0
1.451129863E1,7.758033103E-1,-1.851068847E0,5.758505205E0,6.098254574E0
1.452124463E1,8.674929142E-1,-1.428613801E0,5.727895031E0,5.966763179E0
1.453119063E1,1.012771957E0,-1.180962876E0,5.565283964E0,5.778647415E0
1.454113663E1,1.124923892E0,-1.042885703E0,5.276147336E0,5.494615097E0
1.455108263E1,1.050329062E0,-1.129615406E0,4.825344551E0,5.065883155E0
1.456102863E1,1.018146718E0,-1.299484914E0,4.118191645E0,4.436754017E0
1.457097463E1,1.142536875E0,-1.396879793E0,3.430429276E0,3.876146113E0
1.458092063E1,8.434199274E-1,-1.244213231E0,3.105957924E0,3.450564934E0
1.459086663E1,5.806827472E-1,-9.963659857E-1,2.737632455E0,2.970617627E0
1.460081163E1,4.110884964E-1,-6.383055957E-1,2.034680774E0,2.171716749E0
1.461075763E1,7.815096080E-3,-2.162073403E-1,1.439105022E0,1.455276590E0
1.462070362E1,-1.842931277E-1,1.045880957E-1,1.367208828E0,1.383532654E0
1.463064963E1,-2.787885180E-1,3.214147201E-1,1.155791051E0,1.231618210E0
1.464059563E1,-2.747977933E-1,2.921578660E-1,9.832291925E-1,1.061889679E0
1.465054163E1,-1.260291320E-1,1.131988425E-1,1.067737246E0,1.081092108E0
1.466048763E1,-1.508087549E-1,-8.166714739E-2,1.139893641E0,1.152723001E0
1.467043362E1,-7.751069069E-2,-2.505225659E-1,1.004134743E0,1.037813107E0
1.468037963E1,8.876365721E-2,-3.941931130E-1,1.120110172E0,1.190761939E0
1.469032563E1,2.627379110E-1,-3.819066511E-1,1.088289624E0,1.182902450E0
1.470027163E1,3.273031586E-1,-8.415159278E-2,6.185044384E-1,7.048096116E-1
1.471021663E1,2.737564042E-1,1.965863138E-2,5.439904457E-1,6.093066844E-1
1.472016263E1,3.780084586E-1,2.243985951E-2,3.915038323E-1,5.446734736E-1
1.473010863E1,3.761244857E-1,4.859226242E-2,8.088921189E-2,3.877807387E-1
1.474005462E1,3.997124460E-1,4.153160334E-2,-8.298953176E-2,4.103439727E-1
1.475000063E1,4.817061970E-1,-9.925136939E-2,-2.528219104E-1,5.530014583E-1
1.475994663E1,5.619405207E-1,-3.003887174E-1,-3.886913216E-1,7.463856067E-1
1.476989263E1,5.087165326E-1,-5.390195815E-1,-3.323025280E-1,8.122558648E-1
1.477983863E1,4.771918541E-1,-8.663085607E-1,-4.184396160E-1,1.073915406E0
1.478978462E1,7.955528659E-1,-1.234953580E0,-2.880665874E-1,1.496996014E0
1.479973063E1,7.060311171E-1,-1.426331487E0,-2.029463303E-1,1.604396666E0
1.480967563E1,5.721637926E-1,-1.126897328E0,-3.931340361E-1,1.323564642E0
1.481962163E1,1.636264363E-1,-5.834992048E-1,-4.872847331E-1,7.776190222E-1
1.482956763E1,-4.524166167E-2,-1.961214602E-1,-5.992647600E-1,6.321619157E-1
1.483951363E1,4.301299542E-2,-9.227052480E-2,-5.721231544E-1,5.811100337E-1
1.484945963E1,8.381515861E-2,-1.010501191E-1,-4.940201408E-1,5.111672983E-1
1.485940563E1,1.750670984E-1,-2.366911966E-1,-3.733225000E-1,4.754375884E-1
1.486935163E1,2.694858903E-1,-6.186266452E-1,-3.661678469E-1,7.677242105E-1
1.487929763E1,6.072409469E-1,-1.032880239E0,-1.999858850E-1,1.214733514E0
1.488924363E1,1.232759705E0,-1.276305090E0,1.053580552E-1,1.777568984E0
1.489918963E1,1.189129536E0,-1.001085127E0,-1.122431517E-2,1.554453753E0
1.490913562E1,5.926527286E-1,-6.095886040E-1,-6.481907523E-1,1.069105595E0
1.491908062E1,2.292389202E-1,-1.540788102E-1,-1.115232425E0,1.148927380E0
1.492902663E1,9.864895999E-2,2.244237381E-1,-1.644149918E0,1.662325655E0
1.493897263E1,-1.394245183E-1,2.935173619E-1,-1.957586405E0,1.984372992E0
1.494891863E1,-2.086239767E-1,2.662839550E-1,-1.949659334E0,1.978788172E0
1.495886463E1,-4.005401194E-2,8.797837615E-2,-1.997446289E0,1.999784037E0
1.496881063E1,-2.557396710E-2,-2.592591101E-1,-2.039203595E0,2.055777375E0
1.497875663E1,2.495065391E-2,-7.084281832E-1,-1.784317617E0,1.919969371E0
1.498870263E1,1.070525783E-1,-9.395481527E-1,-1.524917005E0,1.794319608E0
1.499864863E1,3.531776726E-2,-8.953706843E-1,-1.706702262E0,1.927632905E0
1.500859463E1,-1.343959129E-1,-8.944099867E-1,-1.918178510E0,2.120716926E0
1.501854063E1,-1.925879878E-1,-8.008112669E-1,-2.047914192E0,2.207338070E0
1.502848663E1,-3.354986161E-1,-6.138132173E-1,-2.437959729E0,2.536330741E0
1.503843162E1,-4.388411361E-1,-4.431008327E-1,-2.755802093E0,2.825484925E0
1.504837763E1,-3.852630991E-1,-1.732214248E-1,-3.210657583E0,3.238326023E0
1.505832363E1,-1.857806593E-1,2.051612556E-2,-3.590283381E0,3.595145355E0
1.506826963E1,-5.543394327E-2,2.137040377E-1,-4.085494015E0,4.091454960E0
1.507821563E1,-2.508818042E-1,5.174937880E-1,-4.681176771E0,4.716371217E0
1.508816162E1,4.425172806E-2,4.659108210E-1,-4.960954345E0,4.982980948E0
1.509810763E1,3.548733652E-1,3.904928488E-1,-5.461168442E0,5.486600087E0
1.510805363E1,6.720052922E-1,4.659909278E-1,-5.869121076E0,5.925818160E0
1.511799963E1,6.523539698E-1,4.138553989E-1,-5.888905131E0,5.939364076E0
1.512794563E1,4.621399516E-1,1.387737232E-1,-6.048076281E0,6.067294140E0
1.513789163E1,4.357865506E-1,-3.049109539E-1,-5.739988827E0,5.764577378E0
1.514783663E1,1.152573913E-1,-1.278488148E0,-4.867517009E0,5.033938621E0
1.515778262E1,4.176651523E-1,-2.064541042E0,-4.221630644E0,4.717938023E0
1.516772863E1,5.985142699E-1,-2.679019965E0,-3.924851705E0,4.789554073E0
1.517767463E1,4.941180816E-1,-3.276581431E0,-3.858175905E0,5.085829320E0
1.518762063E1,9.354565635E-1,-4.931590798E0,-3.170762615E0,5.937120711E0
1.519756663E1,2.022197845E0,-6.821906741E0,-2.120148940E0,7.424468145E0
1.520751262E1,3.658495537E0,-7.670130740E0,-1.082374581E0,8.566623016E0
1.521745863E1,4.166145245E0,-7.587432985E0,4.661312610E-1,8.668516820E0
1.522740463E1,3.835838957E0,-6.931658394E0,2.613277380E0,8.342108082E0
1.523735063E1,3.244624059E0,-5.646024072E0,4.501333959E0,7.916260513E0
1.524729563E1,2.192880409E0,-4.048854192E0,5.470297115E0,7.150251414E0
1.525724163E1,1.470258548E0,-3.147077591E0,6.249164951E0,7.149672730E0
1.526718763E1,8.662030184E-1,-2.914257251E0,7.133531175E0,7.754383923E0
1.527713363E1,7.187532697E-1,-2.446544172E0,7.289543660E0,7.722669967E0
1.528707963E1,6.248487405E-1,-2.179895643E0,6.695651906E0,7.069238673E0
1.529702563E1,9.045778562E-1,-2.008732439E0,6.090125948E0,6.476333929E0
1.530697163E1,1.082352946E0,-1.705355209E0,5.511641023E0,5.870086120E0
1.531691763E1,9.528479370E-1,-1.677663819E0,4.876463249E0,5.244270102E0
1.532686362E1,1.068862689E0,-1.602227428E0,4.313804398E0,4.724246878E0
1.533680963E1,1.100693177E0,-1.286734914E0,3.605832882E0,3.983621842E0
1.534675563E1,1.071261217E0,-1.040104913E0,2.980239279E0,3.333353415E0
1.535670163E1,7.657477073E-1,-9.257909699E-1,2.513404598E0,2.785796322E0
1.536664663E1,5.715969050E-1,-8.082036093E-1,2.145969075E0,2.363281483E0
1.537659263E1,6.280906561E-1,-6.697819615E-1,1.788128833E0,2.010102104E0
1.538653862E1,3.862349063E-1,-4.408694621E-1,1.290116798E0,1.417019632E0
1.539648463E1,2.383918592E-1,-1.935304859E-1,1.087221923E0,1.129750520E0
1.540643063E1,3.133367917E-1,-5.036188569E-2,1.015694103E0,1.064119719E0
1.541637650E1,3.134537360E-1,1.742615531E-2,8.312594730E-1,8.885658259E-1
1.542632250E1,2.248862529E-1,1.531159291E-1,5.654064578E-1,6.274573906E-1
1.543626850E1,2.167732412E-1,1.954599939E-1,4.408683658E-1,5.287344922E-1
1.544621450E1,3.361315772E-1,1.300292853E-2,5.173698270E-1,6.171102424E-1
1.545616050E1,2.353764501E-1,-2.566458432E-1,7.139959019E-1,7.943924157E-1
1.546610550E1,2.599221843E-1,-4.330300270E-1,8.828231442E-1,1.017079766E0
1.547605150E1,8.396572441E-2,-6.023202956E-1,8.687845641E-1,1.060484135E0
1.548599750E1,-2.197091281E-2,-7.056178652E-1,9.452047491E-1,1.179742052E0
1.549594350E1,1.804558924E-1,-6.461379410E-1,9.109178460E-1,1.131295669E0
1.550588950E1,1.626689547E-1,-5.997578265E-1,4.460209322E-1,7.649217680E-1
1.551583550E1,2.806499791E-1,-6.599369314E-1,1.068590355E-1,7.250517345E-1
1.552578150E1,4.065180203E-1,-7.040891106E-1,2.188846707E-2,8.133126592E-1
1.553572750E1,2.293567416E-1,-6.264513892E-1,-2.823105884E-1,7.243929364E-1
1.554567350E1,-7.016571075E-2,-4.347662115E-1,-5.532682228E-1,7.071425684E-1
1.555561950E1,-5.277141362E-2,-4.758847091E-1,-4.327038985E-1,6.453555162E-1
1.556556550E1,1.348192513E-2,-7.245527574E-1,-2.583007514E-1,7.693359077E-1
1.557551050E1,1.316810507E-1,-1.025057834E0,-3.530116117E-1,1.092108356E0
1.558545650E1,2.916924459E-1,-1.469107670E0,-2.385845250E-1,1.516668852E0
1.559540250E1,4.043194672E-1,-1.734206395E0,2.814264894E-1,1.802816385E0
1.560534850E1,4.962292188E-1,-1.479996355E0,1.664105880E-1,1.569816911E0
1.561529450E1,2.060383379E-1,-1.076514502E0,-3.551832676E-1,1.152167706E0
1.562524050E1,2.716768420E-1,-6.238213116E-1,-8.001727509E-1,1.050351259E0
1.563518650E1,4.476891428E-1,-2.775673270E-2,-1.409437419E0,1.479090884E0
1.564513250E1,1.309054175E-1,3.910962814E-1,-2.000958712E0,2.043019406E0
1.565507850E1,1.164864761E-1,4.990686268E-1,-2.301217328E0,2.357591946E0
1.566502450E1,2.405386645E-1,2.934419328E-1,-2.544527573E0,2.572661576E0
1.567497050E1,2.409152251E-1,4.761738539E-2,-2.548117179E0,2.559923576E0
1.568491550E1,3.544687378E-1,-2.757570291E-1,-2.265770922E0,2.309850189E0
1.569486150E1,3.676091856E-1,-5.955780905E-1,-1.997916990E0,2.116960574E0
1.570480750E1,2.794711804E-1,-8.237814689E-1,-1.839207770E0,2.034552843E0
1.571475350E1,2.307714754E-1,-1.016108086E0,-1.536107406E0,1.856167309E0
1.572469950E1,1.362775469E-1,-1.055972648E0,-1.310566850E0,1.688560118E0
1.573464550E1,-2.997282743E-2,-9.251224869E-1,-1.413757342E0,1.689810584E0
1.574459150E1,-1.435602540E-1,-6.790967953E-1,-1.650500579E0,1.790512263E0
1.575453750E1,-1.824676269E-1,-5.215616959E-1,-1.844788937E0,1.925764072E0
1.576448350E1,-1.573848259E-1,-5.251162183E-1,-2.046952325E0,2.119087268E0
1.577442950E1,-1.295760530E-1,-5.895396709E-1,-2.205577930E0,2.286683403E0
1.578437550E1,4.232214689E-3,-7.893431228E-1,-2.325993150E0,2.456282682E0
1.579432050E1,-2.773275912E-2,-7.967030132E-1,-2.308804091E0,2.442556269E0
1.580426650E1,-1.805965179E-1,-6.128963739E-1,-2.432717115E0,2.515227550E0
1.581421250E1,-1.828295696E-1,-5.812950969E-1,-2.619537410E0,2.689480783E0
1.582415850E1,-1.756217068E-1,-4.948024982E-1,-2.922713202E0,2.969499109E0
1.583410450E1,-3.089317918E-1,-1.461365372E-1,-3.522950939E0,3.539488389E0
1.584405050E1,-1.735342509E-1,1.483052695E-1,-4.226389693E0,4.232549873E0
1.585399650E1,-2.182116562E-1,3.990397239E-1,-4.880569748E0,4.901715016E0
1.586394250E1,-2.061880267E-1,3.693136489E-1,-5.385839932E0,5.402423331E0
1.587388850E1,1.120835227E-1,4.077561682E-1,-5.627994767E0,5.643859752E0
1.588383450E1,2.768206376E-1,6.344006789E-1,-6.103510224E0,6.142632249E0
1.589378050E1,3.677758312E-1,5.632517588E-1,-6.432263492E0,6.467342982E0
1.590372550E1,1.486590260E-1,-8.492437541E-2,-6.103831821E0,6.106232435E0
1.591367150E1,3.642148769E-1,-1.238630894E0,-5.377626348E0,5.530436159E0
1.592361750E1,5.632236922E-1,-2.629119827E0,-4.305927613E0,5.076465759E0
1.593356350E1,6.412387052E-1,-3.765121561E0,-3.356498836E0,5.084625048E0
1.594350950E1,8.295234346E-1,-4.879935325E0,-2.302428287E0,5.459217336E0
1.595345550E1,9.235232735E-1,-5.748280179E0,-1.443133169E0,5.998187526E0
1.596340150E1,1.316955225E0,-6.404076405E0,-4.557121074E-1,6.553948366E0
1.597334750E1,1.811756846E0,-6.361805128E0,7.602432847E-1,6.658302878E0
1.598329350E1,2.104885368E0,-5.586143906E0,1.691626385E0,6.204606835E0
1.599323950E1,2.403406193E0,-4.991547562E0,2.745381185E0,6.182962578E0
1.600318550E1,2.420147648E0,-4.501124921E0,3.956896201E0,6.463301613E0
1.601313050E1,2.486170607E0,-3.883097908E0,4.821242144E0,6.671122054E0
