"Time (s)","Linear Acceleration x (m/s^2)","Linear Acceleration y (m/s^2)","Linear Acceleration z (m/s^2)","Absolute acceleration (m/s^2)"
9.957041650E-3,-1.731572745E-2,3.470920916E-2,3.235849142E-2,5.051371679E-2
1.993504167E-2,-6.397231709E-2,4.915377785E-2,-5.296290994E-2,9.650710367E-2
2.991404169E-2,-1.333482746E-1,1.212648572E-2,-2.392563701E-2,1.360193004E-1
3.989204165E-2,-1.044773549E-1,1.270335009E-3,-1.123910862E-1,1.534564684E-1
4.987104167E-2,-7.665771897E-2,3.219084078E-2,-2.811809063E-2,8.776834924E-2
5.984904169E-2,-8.928246056E-3,2.879231114E-2,-1.474667788E-3,3.018087811E-2
6.982804165E-2,3.295439807E-2,-3.152528146E-2,-6.883459210E-2,8.257140421E-2
7.980604167E-2,3.453949601E-2,-6.006745054E-2,-4.638362288E-2,8.338174783E-2
8.978504164E-2,6.806525384E-2,-2.038506570E-2,4.957854152E-3,7.122506583E-2
9.976304165E-2,8.486532767E-2,1.350420850E-2,-8.365026712E-3,8.633922145E-2
1.097410417E-1,2.644102924E-2,-1.405390159E-2,-1.988930404E-2,3.594752554E-2
1.197200416E-1,-3.321027542E-2,-1.709153926E-2,-3.905179918E-2,5.403782127E-2
1.296980417E-1,-7.137899429E-2,3.091063860E-2,-5.656713367E-2,9.617831884E-2
1.396770417E-1,-8.918915179E-2,5.715797653E-2,-4.189822376E-2,1.139175150E-1
1.496550416E-1,-1.043003396E-1,3.336679808E-2,-1.764865100E-2,1.109205974E-1
1.596340417E-1,-9.276878066E-2,8.970679482E-3,-8.425896227E-2,1.256427176E-1
1.696120417E-1,-9.618452762E-3,1.275335292E-2,-4.279635608E-2,4.568031018E-2
1.795910416E-1,7.651885102E-3,-8.656885000E-3,2.471208751E-2,2.727966775E-2
1.895690417E-1,5.280028425E-2,-3.228550172E-2,-2.588270009E-2,6.708306644E-2
1.995480417E-1,5.939068558E-2,-2.840740903E-2,-5.028196156E-2,8.284026847E-2
2.095260416E-1,2.788435732E-2,-2.307125830E-2,-1.784570217E-3,3.623541132E-2
2.195040417E-1,2.829182146E-3,-3.270000536E-3,-1.855087638E-2,1.904815449E-2
2.294830417E-1,-2.652985895E-2,5.714867581E-3,-4.684204459E-2,5.413566541E-2
2.394610416E-1,-3.675167585E-2,-1.132442133E-2,-6.127882004E-3,3.894199704E-2
2.494400417E-1,-4.645370725E-2,2.227342400E-2,-3.681348503E-2,6.331891513E-2
2.594180417E-1,-2.863239208E-2,2.992958545E-2,-4.160293937E-2,5.870603483E-2
2.693970416E-1,-1.717014662E-2,3.613460502E-3,2.555233240E-3,1.773133522E-2
2.793750417E-1,-6.104043180E-3,1.086403532E-3,-3.336830556E-2,3.393940824E-2
2.893540417E-1,6.095538450E-3,-5.736209918E-4,-2.768013418E-2,2.834915269E-2
2.993320416E-1,2.388102515E-3,-1.645709809E-2,-4.249814808E-2,4.563585982E-2
3.093110417E-1,-1.111783189E-2,-2.419823603E-2,-3.411499500E-2,4.327809719E-2
3.192890417E-1,4.492838053E-3,-1.268462987E-2,-3.800748646E-2,4.031940545E-2
3.292670416E-1,-2.371201264E-2,1.698212324E-2,-2.273865223E-2,3.698240606E-2
3.392460417E-1,-5.680641726E-2,1.294597300E-2,-1.974604726E-2,6.151807573E-2
3.492240417E-1,-5.239952614E-2,1.985090428E-2,-4.534281850E-2,7.208148119E-2
3.592030416E-1,-3.629269454E-2,3.110855771E-3,-1.555593252E-2,3.960838468E-2
3.691810417E-1,4.144484185E-3,-3.042699164E-3,-6.704943717E-2,6.724627716E-2
3.791600417E-1,-2.423706519E-2,3.058157740E-3,-7.393394887E-2,7.786537391E-2
3.891380416E-1,3.144708523E-3,-1.459415691E-2,2.830344737E-2,3.199943344E-2
3.991170417E-1,7.547258429E-2,-3.961114017E-3,3.833317637E-2,8.474216078E-2
4.090950417E-1,9.135919056E-2,-2.180963016E-2,-3.261986196E-2,9.942945772E-2
4.190740417E-1,1.638307828E-2,-3.660755340E-2,-1.287194359E-1,1.348228890E-1
4.290520417E-1,-4.517132606E-2,-1.710670548E-2,-2.408818960E-2,5.397526237E-2
4.390300417E-1,-2.298643713E-2,2.444355413E-3,-1.346262932E-2,2.675058043E-2
4.490090417E-1,-2.992346414E-2,4.671618327E-2,-6.210853994E-2,8.327836586E-2
4.589870417E-1,-1.190284434E-1,3.158569051E-2,1.932036996E-2,1.246543336E-1
4.689660417E-1,-1.216311488E-1,3.460426991E-2,-3.067507803E-2,1.301251408E-1
4.789440416E-1,-4.943083994E-2,4.201999202E-2,-3.756017447E-2,7.496568797E-2
4.889223333E-1,4.072191929E-2,-7.878118102E-3,5.401073098E-3,4.182715680E-2
4.989003333E-1,4.344738873E-2,-4.329849486E-2,-3.336596668E-2,6.982637737E-2
5.088793333E-1,3.509432140E-2,-3.688995564E-2,-2.962257922E-2,5.890651425E-2
5.188573333E-1,4.377448106E-2,-1.529022225E-2,-4.668650866E-2,6.579989498E-2
5.288363333E-1,5.323222904E-2,-1.892269534E-2,-2.348651111E-2,6.118296177E-2
5.388143333E-1,-1.636082917E-2,-9.548539706E-3,-2.737607896E-2,3.329115560E-2
5.487923333E-1,-6.933810133E-2,3.024091314E-2,-3.425883651E-3,7.572332403E-2
5.587713333E-1,-1.055776273E-1,4.355759961E-2,-5.671506822E-2,1.275166610E-1
5.687493333E-1,-8.282509709E-2,5.054610039E-2,-2.063774765E-2,9.920091532E-2
5.787283333E-1,-5.088080781E-2,1.714773648E-2,-8.776670694E-4,5.369983025E-2
5.887063333E-1,-3.839472746E-2,6.973581249E-3,-8.035945415E-2,8.933324020E-2
5.986853333E-1,-2.998028492E-2,-1.441093806E-2,-4.114100933E-2,5.290628761E-2
6.086633333E-1,4.131945904E-2,-2.605974281E-2,-5.215131640E-3,4.912845905E-2
6.186423333E-1,9.886358935E-2,-1.730583971E-2,-3.066338360E-2,1.049463886E-1
6.286203333E-1,4.062875669E-2,-4.387018810E-2,-1.183798045E-1,1.326237814E-1
6.385993334E-1,-4.715509904E-2,-8.857316589E-3,-7.161085010E-3,4.851120036E-2
6.485773333E-1,-1.174151167E-2,1.744281074E-2,7.486599505E-2,7.776266429E-2
6.585553333E-1,3.986178929E-2,4.459702441E-2,-8.664521098E-2,1.052865111E-1
6.685343334E-1,-1.005654763E-1,-1.152034873E-2,-3.769875348E-2,1.080154131E-1
6.785123333E-1,-1.167214793E-1,2.113901848E-2,-4.443416119E-2,1.266694774E-1
6.884913333E-1,-4.729131632E-2,3.896100288E-2,-1.778839946E-2,6.380325619E-2
6.984693334E-1,4.177598954E-2,3.475237805E-3,6.312654018E-3,4.239292607E-2
7.084483333E-1,1.266362215E-2,-2.502082050E-2,-6.778033912E-2,7.335245842E-2
7.184263333E-1,-4.739498905E-3,-5.244322037E-2,-3.529964089E-2,6.339415478E-2
7.284053334E-1,5.122744263E-2,-1.446930058E-3,-6.074438453E-2,7.947467984E-2
7.383833333E-1,1.043540700E-1,-2.237013146E-2,3.640067160E-2,1.127617116E-1
7.483623333E-1,6.142427866E-2,-3.456818162E-2,-7.676107764E-2,1.042121117E-1
7.583403334E-1,-3.126851104E-2,-1.012833682E-2,-2.841279030E-2,4.344639964E-2
7.683183333E-1,-6.831039836E-2,1.555224147E-2,-2.227789164E-2,7.351521743E-2
7.782973333E-1,-4.978581161E-2,4.516018437E-2,-4.278524637E-2,7.967839479E-2
7.882753334E-1,-9.370090907E-2,2.375329946E-2,-1.718730569E-2,9.818086917E-2
7.982543333E-1,-1.070825270E-1,2.245741943E-2,-4.682684183E-2,1.190115809E-1
8.082323333E-1,-1.010695794E-1,1.857302271E-2,-5.401306987E-2,1.160923286E-1
8.182113333E-1,-1.948457622E-2,2.995896771E-2,-8.807076216E-3,3.680697010E-2
8.281893333E-1,2.139849324E-2,-5.191770187E-3,-2.527283549E-2,3.351963909E-2
8.381683333E-1,3.468783713E-2,-3.808005589E-2,-4.428447247E-2,6.792975197E-2
8.481463333E-1,2.183999685E-2,-1.444102381E-2,-2.063365459E-2,3.333581157E-2
8.581253333E-1,1.105532835E-2,7.225221656E-3,-9.708132148E-3,1.639121541E-2
8.681033333E-1,9.734328131E-3,1.468118906E-2,-4.323840559E-2,4.668890847E-2
8.780813334E-1,-4.089374520E-2,-1.056388129E-2,-2.916708112E-2,5.132847753E-2
8.880603333E-1,-6.143740749E-2,1.898526055E-2,-4.114276350E-2,7.633951890E-2
8.980383333E-1,-5.432677299E-2,4.967973489E-2,-2.617506087E-2,7.813199174E-2
9.080173333E-1,-4.464746579E-2,3.714721486E-2,-2.123533309E-2,6.184052995E-2
9.179953333E-1,-2.008722772E-2,-1.491615577E-3,-2.692350447E-2,3.362434725E-2
9.279743333E-1,2.118324033E-3,-1.168400682E-2,-3.785253525E-2,3.967137175E-2
9.379523333E-1,2.698105386E-2,1.480578957E-3,-2.842390001E-2,3.921845832E-2
9.479313333E-1,4.614495599E-2,-1.648603267E-2,-1.944257677E-2,5.271773921E-2
9.579093333E-1,3.738369590E-2,-2.288062080E-2,-4.069603622E-2,5.980995646E-2
9.678883333E-1,2.196488516E-2,-1.309507700E-2,-4.294253647E-2,4.997998260E-2
9.778663333E-1,-3.965001502E-3,3.711246047E-4,-2.243635118E-2,2.278703194E-2
9.878453334E-1,-2.033169616E-2,2.919959712E-2,-1.974253893E-2,4.069105779E-2
9.978233333E-1,-4.831022562E-2,2.145464022E-2,-4.758405626E-2,7.112258359E-2
1.007801333E0,-5.706755939E-2,2.769722815E-2,-3.815425158E-2,7.402425073E-2
1.017780333E0,-4.437537383E-2,2.326496559E-2,-2.333623767E-2,5.527216673E-2
1.027758333E0,-2.494062228E-2,9.454088900E-3,-3.216787219E-2,4.178739568E-2
1.037737333E0,3.853348805E-3,-1.264575502E-2,-4.010254383E-2,4.222531751E-2
1.047715333E0,1.138634128E-2,-1.931788489E-2,-4.085040271E-2,4.660026659E-2
1.057694333E0,8.486937733E-3,-3.121526940E-2,-2.094297230E-2,3.853607718E-2
1.067672333E0,3.993380141E-2,-1.257299373E-2,-1.944491565E-2,4.616160105E-2
1.077651333E0,2.216115517E-2,-2.669321554E-2,-2.109207630E-2,4.060197331E-2
1.087629333E0,-1.186419356E-2,-3.035865230E-3,-2.213989735E-2,2.530119802E-2
1.097608333E0,-4.729690772E-2,1.189269760E-2,-3.740990102E-2,6.146490406E-2
1.107586333E0,-5.421866802E-2,8.486265074E-3,-2.229075551E-2,5.923308567E-2
1.117564333E0,-4.046492502E-2,1.011721797E-2,-4.055277944E-2,5.817470392E-2
1.127543333E0,-3.104103379E-2,2.536010519E-3,-3.531308949E-2,4.708493833E-2
1.137521333E0,-1.317479556E-2,-2.689463384E-3,-3.261752307E-2,3.528046574E-2
1.147500333E0,1.886433967E-3,-1.541444818E-3,-2.707670152E-2,2.718607089E-2
1.157478333E0,3.017022578E-2,-7.882147199E-3,-2.168673813E-2,3.798269842E-2
1.167457333E0,2.674582906E-2,-1.479997890E-2,-1.794335067E-2,3.544492320E-2
1.177435333E0,3.088340108E-2,-3.386709133E-2,-2.273397446E-2,5.116246605E-2
1.187414333E0,1.066871205E-2,-1.601488413E-2,-2.183642685E-2,2.910545427E-2
1.197392333E0,-1.158755517E-2,-2.027540300E-3,-2.827421129E-2,3.062373880E-2
1.207371333E0,-1.604568708E-2,3.528447468E-3,-3.441261828E-2,3.813321796E-2
1.217349333E0,-3.474189646E-2,5.162086431E-4,-1.525246203E-2,3.794605960E-2
1.227328333E0,-4.343201238E-2,1.425258815E-3,-3.336479723E-2,5.478668412E-2
1.237306333E0,-3.875062189E-2,2.288607515E-2,-2.872386217E-2,5.338954383E-2
1.247284333E0,-3.596642219E-2,2.646718411E-2,-3.860331774E-2,5.902805689E-2
1.257263333E0,-2.098247755E-2,-1.304376768E-3,-4.983055651E-2,5.408373254E-2
1.267241333E0,-4.755148201E-3,-1.071266552E-2,-2.034304798E-2,2.347790958E-2
1.277220333E0,8.629581244E-3,-1.300772508E-2,-1.046417713E-2,1.879280679E-2
1.287198333E0,-1.824978817E-3,-2.009391091E-2,-2.049390614E-2,2.875927663E-2
1.297177333E0,1.526998084E-2,-1.458588858E-2,-2.004483998E-2,2.911556405E-2
1.307155333E0,1.107379961E-2,3.340861481E-3,-3.935351551E-2,4.101816154E-2
1.317134333E0,-2.128960484E-2,-8.485680353E-4,-3.276721179E-2,3.908525951E-2
1.327112333E0,-3.084499218E-2,1.933952873E-2,-2.842799306E-2,4.619071014E-2
1.337091333E0,-4.965127083E-2,2.433230172E-2,-3.606270254E-2,6.601384791E-2
1.347069333E0,-2.699035916E-2,1.454532352E-2,-1.854853749E-2,3.583425968E-2
1.357047333E0,-2.428911683E-2,6.580310315E-3,-8.818770647E-3,2.666519072E-2
1.367026333E0,-1.301410905E-2,-3.071295703E-3,-2.887647450E-2,3.182217263E-2
1.377004333E0,2.599242103E-3,-8.389173886E-3,-3.830627918E-2,3.930019495E-2
1.386983333E0,3.134164691E-4,8.216982521E-4,-1.705106556E-2,1.707372996E-2
1.396961333E0,2.332991537E-2,-1.391340396E-2,-2.468752921E-2,3.670615560E-2
1.406940333E0,1.583822513E-2,4.787928583E-3,-2.498690665E-2,2.996863592E-2
1.416918333E0,3.650379616E-3,-1.247625886E-2,-1.929756582E-2,2.326753861E-2
1.426897333E0,-3.686478178E-3,-9.393177358E-3,-1.720075428E-2,1.994211248E-2
1.436875333E0,-2.476307706E-2,2.268788195E-2,-2.333799183E-2,4.089757738E-2
1.446854333E0,-2.659101489E-2,1.247247644E-2,-2.528394520E-2,3.875464651E-2
1.456832333E0,-3.664069752E-2,6.948118452E-3,-1.839650989E-2,4.158423548E-2
1.466810333E0,-2.089965723E-2,-7.699832842E-3,-4.593748033E-2,5.105227906E-2
1.476789333E0,1.603610313E-3,7.146677105E-3,-2.707670152E-2,2.804985428E-2
1.486767333E0,3.191540495E-4,2.451015757E-3,-2.752635241E-2,2.763710213E-2
1.496746333E0,-1.177115203E-2,-1.202237788E-2,-3.126798570E-2,3.550752765E-2
1.506724333E0,1.816802422E-3,9.385621659E-3,-2.198845446E-2,2.397671359E-2
1.516703333E0,-2.217242477E-3,3.783450024E-3,-2.707728624E-2,2.743009458E-2
1.526681333E0,-2.662298956E-2,-8.053790387E-3,-2.827304184E-2,3.966121541E-2
1.536660333E0,-1.747803565E-2,-3.839903064E-3,-4.174502671E-2,4.541887097E-2
1.546638333E0,-1.915136259E-2,2.493106574E-4,-4.578603745E-2,4.963061625E-2
1.556617333E0,-4.090522950E-2,4.682651293E-3,-2.468051255E-2,4.800304910E-2
1.566595333E0,-3.199018079E-2,1.427436903E-2,-2.378179550E-2,4.234032446E-2
1.576574333E0,-4.948002393E-3,1.203914294E-3,-3.396004379E-2,3.433972498E-2
1.586552333E0,5.435097726E-3,2.698069755E-3,-2.243225813E-2,2.323846106E-2
1.596530333E0,1.103125198E-3,-6.784405550E-3,-2.722288191E-2,2.807722108E-2
1.606509333E0,2.222051812E-2,-4.909102991E-3,-1.899117172E-2,2.963975912E-2
1.616487333E0,-2.877682630E-3,-1.039581039E-2,-2.692525864E-2,2.900557677E-2
1.626466333E0,-8.179318230E-4,-2.286233911E-3,-2.033837020E-2,2.048280207E-2
1.636444333E0,-1.411442713E-2,2.873796858E-3,-2.887179673E-2,3.226540574E-2
1.646423333E0,-9.129291488E-3,2.330572251E-4,-3.530899644E-2,3.647085834E-2
1.656401333E0,-2.229776532E-2,-1.829621186E-3,-3.755374253E-2,4.371294350E-2
1.666380333E0,-2.181594789E-2,2.676499011E-3,-3.455996811E-2,4.095718039E-2
1.676358333E0,-6.813054623E-3,-5.026686843E-3,-1.195755601E-2,1.465156782E-2
1.686337333E0,1.197770835E-2,-1.902675751E-2,-4.189646959E-2,4.754784078E-2
1.696315333E0,-1.387494025E-2,6.154861422E-3,-3.935117662E-2,4.217714295E-2
1.706293333E0,-2.023140499E-2,-7.555306116E-3,-2.962257922E-2,3.665909979E-2
1.716272333E0,1.881221723E-4,-4.442540864E-3,-3.037277699E-2,3.069653305E-2
1.726250333E0,-1.185241005E-2,1.371842673E-2,-3.052305043E-2,3.550114735E-2
1.736229333E0,-2.164639235E-2,2.883709716E-3,-2.797775745E-2,3.549136508E-2
1.746207333E0,-1.853094560E-2,7.509167930E-3,-3.501137316E-2,4.031847961E-2
1.756186333E0,-1.331738654E-2,5.749768149E-3,-2.528160632E-2,2.914742246E-2
1.766164333E0,-2.193798568E-2,1.217352840E-2,-3.785428941E-2,4.541384411E-2
1.776143333E0,-3.330631137E-3,6.173883146E-3,-2.722639024E-2,2.811558754E-2
1.786121333E0,-3.114309283E-3,-2.828334756E-3,-4.039899766E-2,4.061745206E-2
1.796100333E0,1.476218099E-3,-9.550001509E-3,-3.201467514E-2,3.344130938E-2
1.806078333E0,1.705634062E-2,-2.724985220E-4,-1.480222642E-2,2.258536955E-2
1.816056333E0,5.361535870E-3,-9.803862032E-3,-3.276428819E-2,3.461734187E-2
1.826035333E0,5.618813930E-3,2.257125741E-3,-2.543012559E-2,2.614109742E-2
1.836013333E0,-1.060541937E-2,3.767964039E-3,-2.857475817E-2,3.071138677E-2
1.845992333E0,-2.935663826E-2,-1.076116087E-3,-4.354421496E-2,5.252683973E-2
1.855970333E0,-2.871369350E-2,3.857919797E-3,-2.408585072E-2,3.767609247E-2
1.865949333E0,-1.238141291E-2,5.939227073E-3,-1.794861317E-2,2.259925924E-2
1.875927333E0,-1.757850383E-2,-1.095082993E-3,-3.501488149E-2,3.919496051E-2
1.885906333E0,-2.496814188E-3,4.735431550E-3,-3.321861684E-2,3.364721234E-2
1.895884333E0,-1.826725558E-3,7.764362348E-3,-2.678141713E-2,2.794398956E-2
1.905863333E0,1.245079377E-2,9.129659794E-3,-2.408702016E-2,2.861044379E-2
1.915841333E0,-1.419168803E-2,3.118676422E-3,-2.528511465E-2,2.916277035E-2
1.925820333E0,-9.713632185E-3,-2.545987330E-3,-2.229250968E-2,2.444979937E-2
1.935798333E0,-6.492001370E-3,-9.817328900E-3,-2.004600942E-2,2.324582806E-2
1.945777333E0,-1.801443774E-2,-1.151928892E-2,-1.944783926E-2,2.890384812E-2
1.955755333E0,-2.278336287E-2,1.051846487E-2,-2.139496207E-2,3.297672102E-2
1.965733333E0,-4.411201729E-3,6.200615885E-3,-3.037628531E-2,3.131493330E-2
1.975712333E0,-4.706292545E-3,4.911350515E-3,-2.798068106E-2,2.879564318E-2
1.985690333E0,-2.040366487E-3,2.579389550E-3,-2.753278434E-2,2.772851528E-2
1.995669333E0,1.378328857E-2,5.129497340E-3,-2.453900993E-2,2.860863148E-2
2.005647333E0,-3.488168489E-3,-3.096118961E-3,-2.992604971E-2,3.028731951E-2
2.015626333E0,5.899044595E-3,-2.055776870E-2,-2.588386953E-2,3.357670744E-2
2.025604333E0,5.891572836E-3,-5.098836003E-3,-3.950378895E-2,4.026484944E-2
2.035583333E0,-1.557423362E-2,1.256538321E-2,-3.022425771E-2,3.624846703E-2
2.045561333E0,-2.027809135E-2,1.383598317E-2,-2.319005728E-2,3.377001889E-2
2.055540333E0,-3.070620304E-2,5.117857726E-3,-2.872737050E-2,4.235947578E-2
2.065518333E0,-1.135027356E-2,-9.410682460E-3,-1.794978261E-2,2.322895499E-2
2.075496333E0,-7.728154722E-3,1.309807369E-2,-3.815892935E-2,4.107782612E-2
2.085475333E0,-4.650439644E-3,7.163615758E-3,-2.498573720E-2,2.640513290E-2
2.095453333E0,-5.830860008E-3,-3.172379443E-3,-3.022484243E-2,3.094517765E-2
2.105432333E0,-1.198168491E-2,-3.615854206E-3,-2.797951162E-2,3.065107250E-2
2.115410333E0,-3.395182343E-3,-1.620659058E-2,-4.429558218E-2,4.728931636E-2
2.125389333E0,-7.370421040E-4,-8.576092925E-3,-2.902733266E-2,3.027670131E-2
2.135367333E0,1.498221674E-3,-3.415842885E-3,-2.693110585E-2,2.718817966E-2
2.145346333E0,-4.165229238E-3,3.736937251E-3,-3.935410023E-2,3.974995647E-2
2.155324333E0,-2.905844625E-3,4.372639228E-3,-2.827830434E-2,2.876154382E-2
2.165303333E0,-1.378911066E-2,5.176878059E-3,-2.797834218E-2,3.161846407E-2
2.175281333E0,-2.417578363E-2,5.309308358E-3,-3.486402333E-2,4.275695724E-2
2.185260333E0,-1.684947824E-2,4.967118334E-4,-3.561246693E-2,3.940050051E-2
2.195238333E0,-2.248480541E-3,-3.276167521E-3,-3.411616445E-2,3.434678464E-2
2.205216333E0,6.975129276E-3,-1.222485599E-2,-2.259013295E-2,2.661604101E-2
2.215195333E0,-9.576827324E-3,-3.463059152E-3,-2.722931385E-2,2.907135933E-2
2.225173333E0,-9.516563887E-3,-6.944381716E-3,-3.875476062E-2,4.050581312E-2
2.235152333E0,7.092363666E-3,-5.785152940E-3,-4.025047839E-2,4.127796782E-2
2.245130333E0,-7.252383229E-3,-3.122020299E-3,-3.830335557E-2,3.910870902E-2
2.255109333E0,-2.446852129E-2,3.403298780E-3,-3.126681626E-2,3.984852288E-2
2.265087333E0,-1.911281664E-2,-5.629397733E-3,-3.156677842E-2,3.732896166E-2
2.275066333E0,-4.511526588E-4,-3.383600973E-3,-4.009903550E-2,4.024406717E-2
2.285044333E0,-7.215698803E-3,1.308734771E-2,-2.348183334E-2,2.783417820E-2
2.295023333E0,-8.499893541E-3,-4.034094578E-3,-1.914144516E-2,2.132878412E-2
2.305001333E0,-1.586007453E-2,-1.198238840E-2,-2.348241806E-2,3.076594796E-2
2.314979333E0,-2.715993412E-3,1.438278006E-3,-3.351214707E-2,3.365277500E-2
2.324958333E0,1.045048871E-2,-1.244884090E-2,-1.899234116E-2,2.499790745E-2
2.334936333E0,5.030616013E-3,2.593861409E-3,-3.500961900E-2,3.546418809E-2
2.344915333E0,4.584890301E-3,3.421461694E-3,-3.156736314E-2,3.208155288E-2
2.354893333E0,6.228633412E-3,-2.810528157E-3,-1.914378405E-2,2.032681506E-2
2.364872333E0,-5.840432540E-3,5.935910605E-3,-3.096860826E-2,3.206868230E-2
2.374850333E0,-2.083946288E-2,5.083989557E-3,-1.704697251E-2,2.739944224E-2
2.384829333E0,-3.133256774E-3,1.181649193E-2,-2.857300401E-2,3.107834194E-2
2.394807333E0,-1.134439779E-2,-1.928183315E-3,-2.887238145E-2,3.108098555E-2
2.404786333E0,-2.894379057E-2,6.504287375E-3,-2.632708848E-2,3.966313596E-2
2.414764333E0,-1.823767461E-2,6.416231962E-3,-2.617798448E-2,3.254332004E-2
2.424743333E0,-8.356958240E-3,4.842079282E-3,-2.004191637E-2,2.224776156E-2
2.434721333E0,-1.006151411E-2,7.617825642E-5,-2.258603990E-2,2.472587850E-2
2.444699333E0,-9.112542984E-3,-2.372039974E-2,-2.049039781E-2,3.264279715E-2
2.454678333E0,-1.626139224E-3,-2.229835689E-3,-3.081950426E-2,3.094282371E-2
2.464656333E0,-7.001522260E-3,2.032144982E-3,-2.333448350E-2,2.444686171E-2
2.474635333E0,-1.039398542E-2,2.737447098E-3,-3.276487291E-2,3.448282828E-2
2.484613458E0,-1.098170254E-2,4.641821282E-3,-2.842448473E-2,3.082362126E-2
2.494592458E0,-2.117269479E-2,3.677807283E-3,-4.054985583E-2,4.589226600E-2
2.504570458E0,-1.469508419E-2,8.124276744E-3,-2.872620106E-2,3.327377344E-2
2.514549458E0,-4.852741314E-3,9.721233565E-3,-2.154172719E-2,2.412669663E-2
2.524527458E0,-1.114452009E-2,3.222592408E-3,-2.692935169E-2,2.932192716E-2
2.534506458E0,4.539417350E-3,-1.631226987E-2,-1.719783068E-2,2.413424617E-2
2.544484458E0,-6.988737186E-3,-9.644982219E-4,-2.483254015E-2,2.581526205E-2
2.554463458E0,-7.300836890E-3,-8.579281485E-3,-3.366534412E-2,3.550016457E-2
2.564441458E0,1.813710365E-3,-7.230045609E-3,-2.782865345E-2,2.880966952E-2
2.574419458E0,-5.024025904E-3,-3.853287706E-3,-4.414530873E-2,4.459705086E-2
2.584398458E0,-1.238753878E-2,1.247215667E-2,-3.231989980E-2,3.679105505E-2
2.594376458E0,-2.713327333E-2,1.487547194E-2,-2.273982167E-2,3.840043850E-2
2.604355458E0,-1.842223307E-2,-8.658593483E-3,-2.004542470E-2,2.856867102E-2
2.614333458E0,-1.041033250E-2,2.989297640E-4,-3.770752430E-2,3.911932733E-2
2.624312458E0,-1.382155471E-2,-4.258335298E-3,-3.950320423E-2,4.206746888E-2
2.634290458E0,-6.186905763E-3,5.361503894E-3,-3.620946765E-2,3.712343026E-2
2.644269458E0,-1.416046367E-2,4.860187378E-3,-2.707728624E-2,3.094058149E-2
2.654247458E0,-1.103720998E-2,-5.754299741E-4,-2.797600329E-2,3.008002466E-2
2.664226458E0,6.941140622E-3,-5.162122976E-3,-3.186907947E-2,3.302219213E-2
2.674204458E0,-1.693404702E-2,-4.986359328E-3,-1.944433093E-2,2.626228728E-2
2.684182458E0,-2.802576401E-2,1.062738754E-2,-2.842506945E-2,4.130822421E-2
2.694161458E0,-1.485184553E-2,1.009966719E-2,-2.363444567E-2,2.968446757E-2
2.704139458E0,-2.942632291E-2,-8.816057174E-3,-3.111771226E-2,4.372577455E-2
2.714118458E0,-1.259326141E-2,-8.465671912E-4,-1.704697251E-2,2.121099198E-2
2.724096458E0,-9.530520688E-3,-3.895533839E-3,-4.429090440E-2,4.547186186E-2
2.734075458E0,-1.868979800E-2,5.237433286E-3,-2.662763536E-2,3.295102763E-2
2.744053458E0,-2.980534810E-3,1.427781341E-2,-3.306366563E-2,3.613786834E-2
2.754032458E0,-1.628616296E-3,1.407898067E-2,-3.515989244E-2,3.790894517E-2
2.764010458E0,-3.029408169E-3,-1.649837578E-3,-2.333448350E-2,2.358807746E-2
2.773989458E0,-6.764861917E-3,-1.458573326E-2,-3.052012682E-2,3.449616084E-2
2.783967458E0,1.287796714E-3,-6.430201326E-4,-2.917409778E-2,2.920958535E-2
2.793946458E0,-2.979364225E-3,-2.423853613E-4,-3.456347644E-2,3.469249581E-2
2.803924458E0,-2.991565720E-3,-6.730949208E-3,-3.755608141E-2,3.827158729E-2
2.813902458E0,-2.787981659E-2,-2.338968487E-3,-2.288600206E-2,3.614587165E-2
2.823881458E0,-2.150062309E-2,3.789224150E-3,-2.168907702E-2,3.077419495E-2
2.833859458E0,-2.271091907E-2,1.221664248E-2,-3.261576891E-2,4.157908825E-2
2.843838458E0,7.974938628E-3,1.026729955E-2,-2.303452134E-2,2.645007107E-2
2.853816458E0,2.698842912E-3,6.766023366E-3,-2.393323839E-2,2.501724855E-2
2.863795458E0,-8.340653416E-3,8.983150497E-4,-1.570035875E-2,1.780097565E-2
2.873773458E0,6.704109118E-3,-6.577149164E-3,-2.453199327E-2,2.626828247E-2
2.883752458E0,-1.676453258E-2,7.104083793E-3,-3.650826037E-2,4.079669882E-2
2.893730458E0,-2.424469398E-2,8.299665805E-3,-2.228783190E-2,3.396228923E-2
2.903709458E0,-3.140278001E-3,-4.783314764E-3,-3.306600451E-2,3.355744479E-2
2.913687458E0,7.709074183E-5,-1.511313384E-3,-2.767604113E-2,2.771738198E-2
2.923666458E0,-1.432552760E-2,1.336920178E-3,-4.369098008E-2,4.599901995E-2
2.933644458E0,1.409738569E-4,6.323380005E-3,-2.991903305E-2,3.058028036E-2
2.943622458E0,-1.404111423E-2,3.178500747E-3,-1.884206772E-2,2.371242864E-2
2.953601458E0,-1.273089139E-2,1.160763670E-3,-2.318245590E-2,2.647355717E-2
2.963579458E0,-1.420709065E-2,1.037553700E-2,-2.557806015E-2,3.104400673E-2
2.973558458E0,5.139314267E-4,8.752459567E-3,-2.438055038E-2,2.590908935E-2
2.983536458E0,-2.188128596E-3,-3.872017069E-3,-1.390117049E-2,1.459530623E-2
2.993515458E0,-1.824787983E-2,-4.200594043E-3,-2.273338974E-2,2.945228544E-2
3.003493458E0,-1.460086294E-3,-3.138483865E-3,-1.749253035E-2,1.783172877E-2
3.013472458E0,-6.048476358E-3,2.284982242E-5,-3.515696883E-2,3.567347819E-2
3.023450458E0,1.211931489E-2,8.523184760E-3,-2.632533431E-2,3.020837133E-2
3.033429458E0,-7.372522383E-3,-5.152895339E-3,-2.003899276E-2,2.196514620E-2
3.043407458E0,-2.059823554E-2,3.037500624E-3,-1.704580307E-2,2.690860680E-2
3.053385458E0,-4.177612887E-3,-3.922102125E-3,-3.111595809E-2,3.163918745E-2
3.063364458E0,-3.265587715E-3,8.161406564E-3,-3.710233748E-2,3.812946455E-2
3.073342458E0,-7.856171628E-3,1.530883284E-3,-3.635389388E-2,3.722457033E-2
3.083321458E0,-7.590216963E-3,6.188464640E-3,-3.904829085E-2,4.025763911E-2
3.093299458E0,-5.423488948E-3,-5.071637314E-3,-2.826953351E-2,2.922844954E-2
3.103278458E0,7.040199536E-3,1.031888296E-2,-3.096393049E-2,3.338875179E-2
3.113256458E0,-3.924249150E-3,8.693548869E-3,-1.659381330E-2,1.913980572E-2
3.123235458E0,-1.595421242E-2,-2.602285054E-4,-3.216085553E-2,3.590160500E-2
3.133213458E0,-2.306712414E-2,7.758442042E-3,-2.138268292E-2,3.239606099E-2
3.143192458E0,-7.320646617E-3,1.152856224E-2,-3.605217755E-2,3.855203134E-2
3.153170458E0,-7.305885823E-3,1.670091785E-2,-2.961439312E-2,3.477511904E-2
3.163149458E0,-8.804399287E-4,-1.687981524E-3,-1.823921978E-2,1.833830948E-2
3.173127458E0,-4.889632448E-3,4.344271095E-3,-2.961673200E-2,3.033038099E-2
3.183105458E0,-5.445563329E-3,-2.582395384E-3,-4.069428205E-2,4.113815161E-2
3.193084458E0,2.217089444E-3,-1.274339438E-2,-3.500552595E-2,3.731884822E-2
3.203062458E0,-1.236637003E-2,-1.363231734E-2,-2.737140119E-2,3.298425059E-2
3.213041458E0,-4.820606753E-3,1.351517203E-2,-3.216085553E-2,3.521673967E-2
3.223019458E0,8.075508453E-3,3.863904057E-3,-3.230995953E-2,3.352725870E-2
3.232998458E0,-1.842264306E-2,-9.045596933E-3,-3.620186627E-2,4.161480172E-2
3.242976458E0,-1.074218597E-2,6.245703399E-3,-3.245906353E-2,3.475621060E-2
3.252955458E0,-5.886976719E-3,-7.867245935E-5,-1.988579571E-2,2.073903458E-2
3.262933458E0,-2.075639587E-2,-7.805740535E-3,-2.332805157E-2,3.218626329E-2
3.272912458E0,-1.656269515E-3,-6.073977984E-3,-4.188828349E-2,4.235876215E-2
3.282890458E0,1.863224404E-3,-1.896749963E-2,-3.125921488E-2,3.661114806E-2
3.292869458E0,2.775809172E-3,-5.162031613E-3,-2.168030620E-2,2.245856994E-2
3.302847458E0,-1.729712371E-2,-2.363736928E-4,-3.530197978E-2,3.931254428E-2
3.312825458E0,-2.325146218E-2,-6.947159143E-3,-3.500084817E-2,4.259052578E-2
3.322804458E0,2.498200047E-5,2.067557182E-3,-2.721644998E-2,2.729488168E-2
3.332782458E0,-2.834337745E-2,5.513531500E-3,-1.254870951E-2,3.148358597E-2
3.342761458E0,-1.389898121E-2,6.923569283E-3,-3.545166850E-2,3.870320775E-2
3.352739458E0,-9.037132175E-3,-7.978434395E-4,-3.470264018E-2,3.586892175E-2
3.362718458E0,-7.573765959E-3,3.555673566E-3,-3.125979960E-2,3.236015785E-2
3.372696458E0,6.302303761E-3,-2.478881394E-3,-1.673882425E-2,1.805691344E-2
3.382675458E0,-2.456206303E-3,2.730805026E-3,-3.410271585E-2,3.429993402E-2
3.392653458E0,-5.500221091E-3,2.064953344E-3,-1.284750223E-2,1.412709375E-2
3.402632458E0,-6.962850695E-3,-7.162400633E-3,-3.066104472E-2,3.224718493E-2
3.412610458E0,-5.233805043E-3,5.808788482E-3,-2.811575174E-2,2.918270438E-2
3.422589458E0,6.375791385E-3,-6.068815989E-3,-2.886478007E-2,3.017709018E-2
3.432567458E0,-1.147942165E-2,2.070307201E-3,-2.497170389E-2,2.756173594E-2
3.442545458E0,-5.261569039E-4,1.984946989E-3,-4.428096414E-2,4.432855333E-2
3.452524458E0,-1.034598458E-2,3.509197338E-3,-3.470088601E-2,3.638001309E-2
3.462502458E0,-1.055937140E-2,-8.476562351E-3,-2.991201639E-2,3.283414622E-2
3.472481458E0,-2.300714221E-2,-2.356391363E-3,-3.724734843E-2,4.384342753E-2
3.482459458E0,-2.199363930E-3,-9.388636630E-3,-4.009084940E-2,4.123420795E-2
3.492438542E0,1.128070425E-2,6.352497311E-3,-2.886536479E-2,3.163570443E-2
3.502416542E0,-5.301330106E-3,-5.356762167E-3,-2.946470439E-2,3.041328339E-2
3.512395542E0,-5.638954276E-4,3.766995594E-3,-3.545225322E-2,3.565628265E-2
3.522373542E0,-3.608739332E-3,-5.248469906E-3,-1.868828595E-2,1.974389697E-2
3.532352542E0,-1.218964479E-2,-1.611630592E-2,-2.377887189E-2,3.120508781E-2
3.542330542E0,6.495950525E-3,1.668893105E-2,-2.737081647E-2,3.270901079E-2
3.552308542E0,-7.139557663E-3,-8.600614686E-3,-3.350805402E-2,3.532327194E-2
3.562287542E0,-3.274277454E-3,9.034140045E-3,-1.255221784E-2,1.580805971E-2
3.572265542E0,-1.250456189E-2,4.297438553E-3,-2.587392926E-2,2.905670769E-2
3.582244542E0,-1.423304109E-2,4.831618248E-3,-2.078509748E-2,2.565042438E-2
3.592222542E0,-1.986101814E-2,-4.409997454E-3,-2.886770368E-2,3.531646124E-2
3.602201542E0,-1.364655851E-2,-4.107449725E-3,-3.216085553E-2,3.517698581E-2
3.612179542E0,-1.095223806E-2,6.144144572E-5,-3.260992169E-2,3.440003323E-2
3.622158542E0,3.875778930E-3,9.177195830E-3,-2.841922224E-2,3.011469372E-2
3.632136542E0,6.812468759E-3,3.998125065E-4,-3.710058331E-2,3.772297527E-2
3.642115542E0,-1.416444595E-2,8.274970455E-3,-3.799930036E-2,4.138905040E-2
3.652093542E0,9.615791822E-4,-4.488596823E-3,-3.395478129E-2,3.426367331E-2
3.662072542E0,-1.282760685E-2,-3.382248804E-3,-3.036049783E-2,3.313226423E-2
3.672050542E0,-1.115191819E-2,2.525905799E-3,-2.811399758E-2,3.035032684E-2
3.682028542E0,-8.821712527E-3,-4.919545753E-3,-1.598921120E-2,1.891241437E-2
3.692007542E0,-1.486309914E-2,8.484858088E-4,-1.089920998E-2,1.845059409E-2
3.701985542E0,-1.418488950E-2,1.713703791E-2,-2.661652565E-2,3.468902703E-2
3.711964542E0,-6.881564119E-3,1.255866805E-2,-2.017932594E-2,2.474431780E-2
3.721942542E0,-1.928815546E-2,-6.395392120E-8,-2.706442237E-2,3.323425791E-2
3.731921542E0,-8.632362097E-3,1.352360481E-3,-3.350103736E-2,3.462175701E-2
3.741899542E0,-5.528770806E-3,-2.391328476E-3,-2.317076147E-2,2.394096793E-2
3.751878542E0,-3.768757753E-3,-5.736018056E-3,-3.499500096E-2,3.566168154E-2
3.761856542E0,-1.176086344E-3,-3.038176708E-3,-3.215149999E-2,3.231613603E-2
3.771835542E0,2.151980926E-2,-1.125972737E-3,-3.724091649E-2,4.302622301E-2
3.781813542E0,1.857722197E-2,-1.813696660E-3,-2.855838597E-2,3.411721092E-2
3.791792542E0,-2.188237775E-2,1.419201465E-3,-2.825842381E-2,3.576857706E-2
3.801770542E0,-2.451353800E-2,-1.425916627E-3,-8.050446510E-3,2.584098435E-2
3.811748542E0,-2.223810773E-2,1.080459472E-2,-2.840869725E-2,3.766067952E-2
3.821727542E0,-4.096373820E-2,1.067531643E-2,-4.023235202E-2,5.840061966E-2
3.831705542E0,-2.697723033E-2,1.208126117E-3,-3.050141573E-2,4.073778205E-2
3.841684542E0,-1.181033751E-2,-2.333797356E-3,-2.735736787E-2,2.988906588E-2
3.851662542E0,-1.477929438E-4,-8.243075721E-3,-2.481499851E-2,2.614869578E-2
3.861641542E0,1.445915132E-2,-2.907464029E-3,-3.110250950E-2,3.442218037E-2
3.871619542E0,1.053131162E-2,-1.430441824E-2,-2.092367649E-2,2.744676927E-2
3.881598542E0,2.007899137E-2,-1.322143167E-2,-3.873780370E-2,4.559155169E-2
3.891576542E0,1.001581789E-2,5.185877290E-3,-2.556461155E-2,2.794207034E-2
3.901555542E0,-2.652469696E-2,-2.947024098E-3,-3.903601170E-2,4.728694015E-2
3.911533542E0,-2.147536129E-2,2.264005356E-3,-3.140071750E-2,3.810934166E-2
3.921512542E0,-2.238046002E-2,2.474422893E-3,-3.289643526E-2,3.986456086E-2
3.931490542E0,-3.076439425E-2,5.245957430E-4,-3.334550142E-2,4.537230014E-2
3.941468542E0,-1.340561097E-2,7.345555527E-3,-3.304495454E-2,3.640929293E-2
3.951447542E0,-1.310369821E-2,-3.465050859E-3,-2.630779266E-2,2.959414535E-2
3.961425542E0,6.531179999E-4,3.475740300E-3,-1.837429047E-2,1.871154413E-2
3.971404542E0,-1.071119458E-2,3.745762892E-3,-3.064876556E-2,3.268191028E-2
3.981382542E0,-1.315078771E-3,-1.226790612E-2,-4.067732513E-2,4.250736092E-2
3.991361542E0,-1.653486377E-3,-1.683547690E-2,-3.244386077E-2,3.658922521E-2
4.001339542E0,1.632243397E-3,6.983475834E-3,-2.780351043E-2,2.871355682E-2
4.011318542E0,-8.969096623E-3,1.394634023E-2,-1.762409270E-2,2.419821778E-2
4.021296542E0,-1.857538329E-2,-1.692805476E-3,-2.151658416E-2,2.847584676E-2
4.031275542E0,-5.439525393E-3,4.439772572E-3,-2.540673673E-2,2.635910257E-2
4.041253542E0,-1.307275936E-2,1.708476928E-2,-1.343105435E-2,2.536098578E-2
4.051232542E0,-2.082514405E-2,1.884987923E-2,-4.815766811E-2,5.575092439E-2
4.061210542E0,-6.193587806E-3,4.108582623E-4,-1.627455533E-2,1.741810798E-2
4.071188542E0,-5.034529193E-3,6.215243060E-3,-3.393665493E-2,3.486649220E-2
4.081167542E0,3.562437835E-3,8.207846247E-3,-2.824965298E-2,2.963279597E-2
4.091145542E0,1.156731375E-2,-1.381797558E-3,-3.049498379E-2,3.264438923E-2
4.101124542E0,-8.280994686E-3,-1.377593044E-2,-3.543295741E-2,3.890816885E-2
4.111102542E0,5.383903754E-3,-2.909336966E-3,-1.447712123E-2,1.571743301E-2
4.121081542E0,-4.221015901E-3,-1.656461377E-3,-3.438513637E-2,3.468282633E-2
4.131059542E0,-1.135725253E-2,1.190486711E-2,-2.196155727E-2,2.744126534E-2
4.141038542E0,-2.359062353E-2,2.092531188E-2,-4.321677089E-2,5.349836896E-2
4.151016542E0,-2.325203776E-2,1.879715379E-2,-3.169132411E-2,4.356983217E-2
4.160995542E0,-1.518993108E-2,7.949253134E-3,-3.348700404E-2,3.762052726E-2
4.170973542E0,-1.647841188E-2,-7.205067035E-3,-3.498272181E-2,3.933499554E-2
4.180952542E0,-1.127879706E-2,-7.385398820E-4,-4.141933680E-2,4.293388132E-2
4.190930542E0,-4.658927814E-3,-4.865614325E-4,-3.183925867E-2,3.218199408E-2
4.200908542E0,5.509076425E-3,-3.539648540E-3,-6.394515038E-3,9.152532841E-3
4.210887542E0,1.330273309E-2,-7.361827232E-4,-3.603288174E-2,3.841709566E-2
4.220865542E0,-1.266120903E-3,-7.197310338E-3,-3.244093716E-2,3.325385304E-2
4.230844542E0,-1.063286474E-2,1.102319836E-2,-2.525587857E-2,2.953689416E-2
4.240822542E0,-1.640201435E-2,2.371374853E-3,-3.468626797E-2,3.844199109E-2
4.250801542E0,-5.271909018E-3,3.198600551E-3,-2.929805875E-2,2.993994517E-2
4.260779542E0,-3.505732634E-2,9.843915459E-3,-2.720183194E-2,4.545171572E-2
4.270758542E0,-1.755203262E-2,1.468541002E-2,-3.034646451E-2,3.800845991E-2
4.280736542E0,-1.838601002E-3,-2.457027426E-3,-3.348934293E-2,3.362965250E-2
4.290715542E0,-5.940169251E-3,3.271489749E-3,-1.477942228E-2,1.626098333E-2
4.300693542E0,3.048337387E-3,7.427233821E-3,-2.914953947E-2,3.023494360E-2
4.310672542E0,3.398649559E-3,-1.586112063E-2,-4.142518401E-2,4.448788416E-2
4.320650542E0,1.452218248E-2,-5.696266126E-3,-4.741273284E-2,4.991300900E-2
4.330628542E0,1.675983425E-2,6.581196534E-3,2.653174102E-2,3.206458286E-2
4.340607542E0,1.314100505E-2,-1.449168446E-3,-5.699222624E-2,5.850555491E-2
4.350585542E0,-1.979621454E-2,-2.099762550E-3,2.880923152E-3,2.011464221E-2
4.360564542E0,-1.804047384E-2,1.871089823E-2,-4.816117644E-2,5.472709864E-2
4.370542542E0,-2.415526356E-2,1.872655780E-2,-5.498136878E-3,3.105463305E-2
4.380521542E0,-2.637349618E-2,9.294258915E-3,-3.214272916E-2,4.260398558E-2
4.390499542E0,-8.057044043E-3,-1.026975721E-2,-6.492397428E-2,6.622315537E-2
4.400478542E0,-1.478090579E-2,1.175099398E-2,-2.825023770E-2,3.397994947E-2
4.410456542E0,1.796978877E-2,3.934920318E-3,6.924857497E-3,1.965580214E-2
4.420435542E0,2.282286127E-2,-2.826891225E-2,-4.217479706E-2,5.566621869E-2
4.430413542E0,4.271300813E-3,-3.129612543E-3,-7.046479583E-2,7.066346960E-2
4.440392542E0,2.746211069E-2,-1.239518356E-3,3.865594268E-2,4.743401558E-2
4.450370542E0,6.598541751E-3,1.037462337E-2,-4.846055388E-2,4.999598830E-2
4.460348542E0,-2.829987965E-2,3.017324075E-2,-4.232214689E-2,5.918168436E-2
4.470327542E0,-3.931344837E-2,3.160429196E-3,3.072477937E-2,4.999547582E-2
4.480305542E0,-6.591600923E-2,1.386067852E-2,-8.558277190E-2,1.089102820E-1
4.490284792E0,-4.657014906E-2,5.736373457E-2,-2.959977508E-2,7.959600186E-2
4.500262792E0,-3.481840591E-2,2.635449730E-4,1.979516387E-2,4.005295693E-2
4.510241792E0,1.454982542E-3,-2.499212346E-2,-4.172923923E-2,4.866264086E-2
4.520219792E0,3.818388508E-2,-2.304450729E-2,-7.211488008E-2,8.479159349E-2
4.530198792E0,8.991954211E-2,-1.953935732E-2,8.939691067E-2,1.282930948E-1
4.540176792E0,2.944827280E-2,3.349458715E-3,-8.813215792E-2,9.298223973E-2
4.550155792E0,1.959741378E-2,-7.596291443E-3,-4.996153414E-2,5.420255681E-2
4.560133792E0,-1.580415939E-2,-1.891413465E-2,-1.478760839E-2,2.874350893E-2
4.570112792E0,1.993102484E-2,1.041540770E-2,-3.364838719E-2,4.047147674E-2
4.580090792E0,-2.119300929E-2,3.934759520E-2,-2.915655613E-2,5.336179960E-2
4.590068792E0,-8.505277662E-2,1.822949879E-2,1.530216336E-3,8.699787927E-2
4.600047792E0,-8.250022030E-2,2.309135810E-2,-9.471729219E-2,1.277139875E-1
4.610025792E0,-5.317569834E-2,2.979960367E-3,2.878584266E-3,5.333686628E-2
4.620004792E0,-2.207682508E-2,1.696238888E-2,1.889352322E-2,3.364630829E-2
4.629982792E0,-1.473580685E-2,1.285565179E-4,-7.915258884E-2,8.051268752E-2
4.639961792E0,2.300982828E-2,-4.798030562E-2,-2.601367772E-2,5.923067915E-2
4.649939792E0,1.269892631E-1,-5.787166575E-2,-1.419002295E-2,1.402738728E-1
4.659918792E0,1.520314533E-1,-1.349534632E-2,-5.819733739E-2,1.633481474E-1
4.669896792E0,-1.686584701E-2,-1.740641182E-2,-6.507834077E-2,6.944516114E-2
4.679875792E0,-7.295031929E-2,-2.146299991E-2,5.137772977E-2,9.177189421E-2
4.689853792E0,-5.824349385E-2,3.987510541E-2,-1.168694687E-1,1.365313199E-1
4.699832792E0,-4.512448895E-2,8.382957565E-2,1.871109009E-4,9.520321563E-2
4.709810792E0,-1.774830035E-1,3.492078700E-2,-3.888164520E-2,1.850174593E-1
4.719789792E0,-9.364514125E-2,8.742820797E-3,-9.394721389E-3,9.452042205E-2
4.729767792E0,2.761847803E-2,1.055862794E-2,-8.064655244E-2,8.589604981E-2
4.739745792E0,7.856004663E-2,-1.826937863E-2,2.728895545E-3,8.070252780E-2
4.749724792E0,2.509998403E-3,-1.910148310E-2,-1.987527072E-2,2.768019391E-2
4.759702792E0,8.153637989E-2,-4.025014948E-2,-4.921192110E-2,1.033927897E-1
4.769681792E0,1.145915762E-1,-6.937043460E-2,-1.433561862E-2,1.347182114E-1
4.779659792E0,6.281967557E-2,-8.826783160E-3,-3.693803072E-2,7.340736920E-2
4.789638792E0,-2.660384450E-2,3.355931765E-2,-1.568281710E-2,4.560639315E-2
4.799616792E0,-1.054507245E-1,1.872170644E-2,-3.693744600E-2,1.132904784E-1
4.809595792E0,-6.118655280E-2,2.429211125E-2,-3.798468232E-2,7.600484855E-2
4.819573792E0,-9.479273954E-2,5.057888134E-2,-5.505387425E-2,1.207262017E-1
4.829552792E0,-1.088507068E-1,6.763257816E-2,-1.155263633E-1,1.725369021E-1
4.839530792E0,-1.117460470E-1,2.068266157E-2,4.194909453E-2,1.211390855E-1
4.849509792E0,6.160130312E-2,-2.165084171E-2,1.525655508E-1,1.659509771E-1
4.859487792E0,1.509818873E-1,-3.772064399E-2,-2.056331259E-1,2.578824533E-1
4.869465792E0,1.186412390E-1,-9.466193550E-2,7.221896052E-3,1.519499306E-1
4.879444792E0,6.723060035E-2,-5.691720829E-2,-6.777215302E-2,1.111421925E-1
4.889422792E0,1.066331868E-1,6.484077936E-3,9.616915584E-3,1.072621315E-1
4.899401792E0,2.807077843E-2,3.235456282E-3,-4.995685637E-2,5.739446208E-2
4.909379792E0,-7.962989523E-2,9.747728761E-3,-3.704795837E-3,8.030979979E-2
4.919358792E0,-1.556974291E-1,6.916563587E-2,5.409493089E-2,1.787507655E-1
4.929336792E0,-1.782608111E-1,1.044236245E-1,-1.212063485E-1,2.395249236E-1
4.939315792E0,-1.557496704E-1,4.228077784E-2,-1.508698583E-2,1.620902253E-1
4.949293792E0,1.287433090E-1,-1.441821054E-2,-6.538356543E-3,1.297130468E-1
4.959272792E0,-6.059629465E-3,-1.660705176E-2,-5.592861772E-2,5.865597631E-2
4.969250792E0,6.039566207E-2,-5.156281242E-2,9.166796923E-2,1.212822172E-1
4.979229792E0,1.747296045E-1,-4.890693398E-2,-1.021666449E-1,2.082314727E-1
4.989207792E0,1.525620425E-1,-9.241123256E-2,-1.175231874E-2,1.787543837E-1
4.999185792E0,3.708739967E-2,-2.493002420E-2,-7.581090510E-2,8.800156051E-2
5.009164792E0,-2.240387172E-2,2.419604332E-2,-1.996239424E-2,3.854710319E-2
5.019142792E0,-1.201070537E-1,2.552968358E-2,6.312654018E-2,1.380667562E-1
5.029121792E0,-8.510615073E-2,7.835545803E-2,-8.102077425E-2,1.412338506E-1
5.039099792E0,-1.348186483E-1,7.558079889E-2,-1.965640944E-1,2.500519312E-1
5.049078792E0,-7.725812752E-2,4.902653695E-2,6.450414419E-2,1.119517941E-1
5.059056792E0,-3.110440071E-2,3.826554967E-2,-6.765286982E-2,8.371766140E-2
5.069035792E0,3.687202570E-2,-4.489349652E-2,-5.761144638E-2,8.181718074E-2
5.079013792E0,1.415416764E-2,-7.414829501E-2,-1.269184935E-1,1.476706271E-1
5.088992792E0,1.050722908E-1,-4.161839794E-2,-4.337230682E-2,1.210513707E-1
5.098970792E0,5.063834022E-2,-8.097560450E-2,2.852219170E-1,3.007870210E-1
5.108949792E0,1.615666084E-1,-6.529412130E-3,-4.719346225E-2,1.684447240E-1
5.118927792E0,1.384360283E-2,-2.531150021E-2,-9.214217842E-2,9.655308605E-2
5.128905792E0,-3.318758092E-2,1.070178422E-2,1.259846932E-1,1.307214084E-1
5.138884792E0,-6.272137382E-2,1.252554814E-1,-7.384565592E-2,1.583543093E-1
5.148862792E0,-9.787911924E-2,8.231945911E-2,-1.177687705E-2,1.284348479E-1
5.158841792E0,-1.062549085E-1,7.533142428E-2,1.298567194E-1,1.839230726E-1
5.168819792E0,6.604707822E-2,2.734617046E-1,-3.930738097E-1,4.833741204E-1
5.178798792E0,4.010879304E-1,3.251452802E-1,-1.931522441E-1,5.512701430E-1
5.188776792E0,3.239190460E-1,2.519318728E-1,1.683080095E-1,4.435321893E-1
5.198755792E0,8.268230443E-1,2.980195352E-1,3.052755278E-1,9.304005255E-1
5.208733792E0,1.563017754E0,2.759098972E-1,5.831001323E-1,1.690904059E0
5.218712792E0,1.642448963E0,7.035545290E-1,9.189934355E-1,2.009272631E0
5.228690792E0,-2.416101667E-1,1.701114004E-1,3.571686312E0,3.583888457E0
5.238669792E0,2.176973205E0,-6.523250261E-1,-9.516343474E-1,2.463807664E0
5.248647792E0,1.765965839E0,-5.024160481E-1,2.069212675E-1,1.847667080E0
5.258625792E0,-4.291593895E-1,-3.489695777E-1,1.880424208E0,1.960089985E0
5.268604792E0,-2.540385113E0,4.179257919E-1,2.574401582E0,3.640846330E0
5.278582792E0,-9.837130496E-1,2.488034114E-2,2.634519145E0,2.812294708E0
5.288561792E0,4.068792321E-1,-3.648669145E-1,2.864267358E0,2.915939998E0
5.298539792E0,3.354249997E0,-1.477096429E0,3.199544950E0,4.865171609E0
5.308518792E0,1.490203547E0,-3.971273920E0,4.349812721E0,6.075573542E0
5.318496792E0,-4.636549944E0,-4.638335391E0,5.406035630E0,8.499233602E0
5.328475792E0,-3.122882690E0,-3.776506967E0,2.759803342E0,5.624136881E0
5.338453792E0,-5.936827156E-1,-8.025043282E-1,2.230391175E0,2.443586944E0
5.348432792E0,-1.603929260E-1,-6.413329185E-1,3.539483356E0,3.600691077E0
5.358410792E0,2.926882267E-2,-2.137046516E0,5.970235807E0,6.341256979E0
5.368389792E0,7.426808801E-1,-2.540252381E0,7.067840046E0,7.547106728E0
5.378367792E0,1.124334493E0,-2.588282288E0,6.871674732E0,7.428542715E0
5.388346792E0,1.471681615E0,-2.385537686E0,6.300149163E0,6.895543220E0
5.398324792E0,1.580911696E0,-2.136074709E0,6.002949225E0,6.564868342E0
5.408303792E0,1.632470689E0,-2.203227203E0,6.133304712E0,6.718377583E0
5.418281792E0,2.078205985E0,-2.280695063E0,6.222657768E0,6.945644663E0
5.428259792E0,1.856786546E0,-2.696173941E0,5.654404301E0,6.533704784E0
5.438238792E0,1.307774512E0,-2.740599039E0,4.925911982E0,5.786688701E0
5.448216792E0,1.837208314E0,-2.624293242E0,4.919965364E0,5.870971691E0
5.458195792E0,2.613749251E0,-2.920497692E0,5.636898322E0,6.865538188E0
5.468173792E0,4.425707826E0,-3.513851794E0,6.906512443E0,8.923786098E0
5.478152792E0,6.528655427E0,-4.020016602E0,7.876189544E0,1.099173494E1
5.488130958E0,6.583008220E0,-5.198585190E0,7.069071470E0,1.096964250E1
5.498109958E0,3.679099371E0,-6.382289679E0,4.062555388E0,8.412713594E0
5.508087958E0,1.194756312E0,-5.599442228E0,1.535888135E0,5.927912641E0
5.518066958E0,8.843206161E-1,-4.172742659E0,2.295008755E-1,4.271589271E0
5.528044958E0,1.424371793E0,-3.417823264E0,1.682419360E-2,3.702787318E0
5.538023958E0,2.783810840E0,-3.334291111E0,8.531800997E-1,4.426625835E0
5.548001958E0,4.105646444E0,-3.750645025E0,2.190500885E0,5.976785503E0
5.557979958E0,5.345454383E0,-4.746478475E0,3.429186158E0,7.928572266E0
5.567958958E0,6.756983351E0,-6.541869550E0,3.841583846E0,1.015926413E1
5.577936958E0,7.573845810E0,-7.735278078E0,2.989132310E0,1.123087616E1
5.587915958E0,7.319004271E0,-8.038432236E0,1.287116299E0,1.094718615E1
5.597893958E0,6.327767901E0,-7.964376665E0,-5.173607638E-1,1.018526408E1
5.607872958E0,5.106603225E0,-7.768069848E0,-2.018617887E0,9.512892507E0
5.617850958E0,4.553175958E0,-7.159899779E0,-2.761561892E0,8.923104854E0
5.627829958E0,4.554074090E0,-6.408760024E0,-2.600123484E0,8.280847662E0
5.637807958E0,4.800260580E0,-6.507592002E0,-1.949465207E0,8.318153034E0
5.647786958E0,5.429717438E0,-6.613458180E0,-1.185408953E0,8.638567876E0
5.657764958E0,5.222959893E0,-7.005207011E0,-9.362203561E-1,8.787988613E0
5.667743958E0,3.955474159E0,-7.292605847E0,-1.387011447E0,8.411401584E0
5.677721958E0,3.202695429E0,-6.777351542E0,-2.383040341E0,7.865661651E0
5.687699958E0,2.949733770E0,-6.012955565E0,-3.354755196E0,7.490724022E0
5.697678958E0,2.389162960E0,-5.300783994E0,-4.111741582E0,7.121294084E0
5.707656958E0,7.015810937E-1,-5.008848889E0,-4.610253553E0,6.843626308E0
5.717635958E0,-1.131524522E0,-4.741867361E0,-4.474876478E0,6.617414397E0
5.727613958E0,-2.727765863E0,-4.706281499E0,-4.372340873E0,6.979051287E0
5.737592958E0,-4.153392468E0,-4.858498848E0,-4.489458264E0,7.810948442E0
5.747570958E0,-4.747399412E0,-4.653192874E0,-4.965636796E0,8.297442611E0
5.757549958E0,-4.616253381E0,-4.389116535E0,-5.571947451E0,8.462903617E0
5.767527958E0,-4.646184109E0,-4.391708314E0,-6.134185302E0,8.860155642E0
5.777506958E0,-5.169929155E0,-4.529581273E0,-6.881215049E0,9.726067784E0
5.787484958E0,-6.060206915E0,-4.531710244E0,-7.714169630E0,1.080605935E1
5.797463958E0,-7.264625750E0,-4.393892541E0,-8.608396014E0,1.209072210E1
5.807441958E0,-8.444313787E0,-4.383544723E0,-9.544208965E0,1.347641734E1
5.817420958E0,-9.132734553E0,-4.421025668E0,-1.050764884E1,1.460695014E1
5.827398958E0,-9.469763970E0,-4.476651400E0,-1.128375562E1,1.539610270E1
5.837376958E0,-9.464211454E0,-4.540897974E0,-1.149022431E1,1.556330002E1
5.847355958E0,-9.263670668E0,-4.664032442E0,-1.110211304E1,1.519294924E1
5.857333958E0,-8.399167435E0,-5.001220611E0,-1.062095969E1,1.443478459E1
5.867312958E0,-7.497646065E0,-5.685858228E0,-1.051573788E1,1.411114536E1
5.877290958E0,-8.035639021E0,-6.505997466E0,-1.125871434E1,1.528588061E1
5.887269958E0,-8.963283412E0,-6.830371755E0,-1.302100666E1,1.722036708E1
5.897247958E0,-9.962755001E0,-7.316581185E0,-1.476619237E1,1.925692822E1
5.907226958E0,-9.888853211E0,-7.906764634E0,-1.576726727E1,2.022159890E1
5.917204958E0,-8.977634819E0,-8.973285660E0,-1.507813782E1,1.970959215E1
5.927183958E0,-7.544121489E0,-9.896511894E0,-1.298788803E1,1.798721636E1
5.937161958E0,-6.186603836E0,-1.035616152E1,-1.018967842E1,1.579093711E1
5.947140958E0,-5.481695677E0,-1.046582722E1,-7.490362773E0,1.398885490E1
5.957118958E0,-5.405583640E0,-1.040203058E1,-5.440677459E0,1.292375897E1
5.967097958E0,-5.389852291E0,-1.053998277E1,-4.063787981E0,1.251623415E1
5.977075958E0,-5.757377277E0,-1.095138585E1,-2.775268351E0,1.267999841E1
5.987053958E0,-6.900292175E0,-1.104363854E1,-9.143212178E-1,1.305419349E1
5.997032958E0,-7.874670437E0,-1.098589846E1,1.274499762E0,1.357662510E1
6.007010958E0,-7.847535263E0,-1.134546012E1,2.494048268E0,1.401868581E1
6.016989958E0,-7.269005899E0,-1.224372810E1,2.993282371E0,1.455015683E1
6.026967958E0,-7.534005806E0,-1.341882900E1,3.590502360E0,1.580246570E1
6.036946958E0,-7.541412474E0,-1.461533070E1,4.900160844E0,1.716077999E1
6.046924958E0,-6.730812968E0,-1.581471158E1,7.578425349E0,1.878407507E1
6.056903958E0,-4.815786107E0,-1.626494016E1,1.188210822E1,2.071049420E1
6.066881958E0,-1.024968957E0,-1.625637048E1,1.792391804E1,2.421955781E1
6.076860958E0,3.731980128E0,-1.540089009E1,2.476253027E1,2.939894550E1
6.086838958E0,7.842160503E0,-1.372742165E1,2.976743580E1,3.370521948E1
6.096817958E0,1.177667239E1,-1.125949435E1,3.305872824E1,3.685574227E1
6.106795958E0,1.541235414E1,-8.610074750E0,3.376742949E1,3.810398065E1
6.116774958E0,1.792887648E1,-6.776730568E0,2.967417037E1,3.532598302E1
6.126752958E0,1.891036320E1,-5.907626746E0,2.254316578E1,3.001160131E1
6.136730958E0,1.826753083E1,-5.421190444E0,1.548419888E1,2.455305284E1
6.146709958E0,1.635815063E1,-4.787786130E0,9.833750221E0,1.967776998E1
6.156687958E0,1.329428447E1,-4.240804249E0,5.658908996E0,1.505807661E1
6.166666958E0,9.808857454E0,-4.172482458E0,2.353386186E0,1.091612207E1
6.176644958E0,7.061291165E0,-4.149210539E0,-2.089478759E-1,8.192767556E0
6.186623958E0,5.213434778E0,-3.997516224E0,-1.572681155E0,6.755247158E0
6.196601958E0,3.773197736E0,-3.929996670E0,-2.089662727E0,5.835116562E0
6.206580958E0,2.554286576E0,-3.910634201E0,-2.406633271E0,5.254457485E0
6.216558958E0,1.882149868E0,-3.507839980E0,-2.382987131E0,4.639618208E0
6.226537958E0,1.864785684E0,-2.360090604E0,-2.192166756E0,3.721968349E0
6.236515958E0,1.768683625E0,-1.671821281E0,-1.660715665E0,2.946388413E0
6.246494958E0,1.651973785E0,-1.250936360E0,-5.938245106E-1,2.155571087E0
6.256472958E0,1.652084590E0,-6.925746274E-1,7.675617329E-1,1.948895615E0
6.266451958E0,1.380814421E0,-3.804736447E-1,2.024612453E0,2.480012953E0
6.276429958E0,1.146983975E-1,-9.385354149E-1,2.028183786E0,2.237751979E0
6.286407958E0,-9.707933342E-1,-1.097145817E0,1.151933059E0,1.863630439E0
6.296386958E0,-1.216213254E0,-6.066778600E-1,6.898581572E-1,1.524184038E0
6.306364958E0,-9.331694251E-1,-1.824214339E-1,9.635009062E-1,1.353667888E0
6.316343958E0,-6.363618350E-1,-1.227102524E-1,1.628030899E0,1.752283880E0
6.326321958E0,-2.228286177E-1,-1.717689764E-1,2.387740771E0,2.404259379E0
6.336300958E0,3.525157678E-1,-1.928797638E-1,2.901315901E0,2.929010742E0
6.346278958E0,6.942595026E-1,-3.068250400E-1,3.253398975E0,3.340769785E0
6.356257958E0,6.691720238E-1,-5.138813782E-1,3.453693008E0,3.555258171E0
6.366235958E0,4.599381825E-1,-6.422359478E-1,3.366408112E0,3.457848135E0
6.376214958E0,6.198533911E-1,-1.039788725E0,3.330969307E0,3.544112773E0
6.386192958E0,1.702612134E0,-2.669528764E0,3.330046617E0,4.595049768E0
6.396171958E0,4.936482579E-1,-1.029819222E0,2.451816899E0,2.704740716E0
6.406149958E0,2.708500457E-1,2.656156182E-1,1.389100511E0,1.439969317E0
6.416127958E0,-4.376407027E-1,6.345369190E-1,9.120438735E-1,1.194148447E0
6.426106958E0,5.261500061E-2,-5.901963133E-1,1.228541085E0,1.363969657E0
6.436084958E0,1.062584680E0,-1.785920924E0,1.821127302E0,2.763169267E0
6.446063958E0,1.723501312E0,-2.111834199E0,1.965004913E0,3.360289388E0
6.456041958E0,1.723404248E0,-2.069162974E0,1.575740711E0,3.120018654E0
6.466020958E0,1.352759773E0,-1.918844508E0,1.174134644E0,2.624979126E0
6.475998958E0,1.056386631E0,-1.878515092E0,8.904856279E-1,2.331895435E0
6.485977958E0,9.005314368E-1,-1.922969134E0,7.105653405E-1,2.239122654E0
6.495955167E0,5.872066319E-1,-1.868590613E0,6.228454113E-1,2.055329393E0
6.505934167E0,2.331635714E-1,-1.869527922E0,3.965382850E-1,1.925290241E0
6.515912167E0,-2.148413211E-1,-1.981613783E0,1.172229329E-1,1.996670027E0
6.525891167E0,-4.924530870E-1,-1.935811958E0,-3.533180058E-2,1.997780348E0
6.535869167E0,-7.370070344E-1,-1.726519645E0,1.382866502E-4,1.877245182E0
6.545847167E0,-1.179355915E0,-1.526141996E0,7.199676633E-2,1.930070802E0
6.555826167E0,-1.882166094E0,-1.302315259E0,-1.025312188E-1,2.291088582E0
6.565804167E0,-2.636546375E0,-9.842556712E-1,-6.790242898E-1,2.895031952E0
6.575783167E0,-3.122574542E0,-7.048719066E-1,-1.464214720E0,3.520119447E0
6.585761167E0,-3.366640831E0,-5.818286553E-1,-2.112870911E0,4.017090808E0
6.595740167E0,-3.360591887E0,-8.631662670E-1,-2.529220732E0,4.293668751E0
6.605718167E0,-3.235076725E0,-1.223313821E0,-2.963232068E0,4.554444248E0
6.615697167E0,-3.257375666E0,-1.316011485E0,-3.369795989E0,4.868049657E0
6.625675167E0,-3.442250007E0,-1.338149335E0,-3.787526922E0,5.290093472E0
6.635654167E0,-3.598550760E0,-1.273824116E0,-4.408119401E0,5.831270196E0
6.645632167E0,-3.725472177E0,-1.177424580E0,-4.966566503E0,6.319197292E0
6.655611167E0,-3.769499372E0,-1.182747593E0,-5.260481476E0,6.578805571E0
6.665589167E0,-3.821788098E0,-1.156146854E0,-5.264549968E0,6.607437187E0
6.675568167E0,-4.005543866E0,-1.098868115E0,-5.178074327E0,6.638098111E0
6.685546167E0,-4.461827831E0,-1.114254770E0,-5.058318672E0,6.836377628E0
6.695524167E0,-5.122932744E0,-1.106043818E0,-4.972420735E0,7.224454360E0
6.705503167E0,-5.661143217E0,-9.835534206E-1,-4.887938117E0,7.543729773E0
6.715481167E0,-5.976492328E0,-9.063663733E-1,-4.804335505E0,7.721502457E0
6.725460167E0,-6.010916056E0,-8.717863785E-1,-4.686079954E0,7.671405911E0
6.735438167E0,-5.644258212E0,-9.370202552E-1,-4.437811855E0,7.240844687E0
6.745417167E0,-5.471756580E0,-1.174690568E0,-4.524823101E0,7.196807771E0
6.755395167E0,-5.689983439E0,-1.333636308E0,-5.162711352E0,7.797953952E0
6.765374167E0,-5.881397890E0,-1.394420015E0,-5.913345323E0,8.455938814E0
6.775352167E0,-5.824369996E0,-1.528847357E0,-6.455488633E0,8.828023198E0
6.785331167E0,-5.613418828E0,-1.590344570E0,-6.338158404E0,8.614633987E0
6.795309167E0,-5.603894298E0,-1.699968754E0,-5.827166719E0,8.261319328E0
6.805288167E0,-5.792854673E0,-1.997238274E0,-5.350796399E0,8.134933810E0
6.815266167E0,-6.013055552E0,-2.564422724E0,-5.217557065E0,8.363970511E0
6.825244167E0,-6.453127527E0,-3.283650422E0,-5.624780552E0,9.168607923E0
6.835223167E0,-7.194002495E0,-3.922734721E0,-6.719133739E0,1.059661634E1
6.845201167E0,-7.866069183E0,-4.595123298E0,-8.110391580E0,1.219707564E1
6.855180167E0,-7.989395147E0,-5.242442815E0,-9.313891234E0,1.334399533E1
6.865158167E0,-7.604065974E0,-5.706504747E0,-1.038853755E1,1.408217768E1
6.875137167E0,-6.920844553E0,-6.358834158E0,-1.129000513E1,1.469003325E1
6.885115167E0,-6.361036220E0,-7.139043345E0,-1.202075622E1,1.535992519E1
6.895094167E0,-6.106126853E0,-7.889401327E0,-1.240765596E1,1.592097248E1
6.905072167E0,-6.375923815E0,-9.008261365E0,-1.220451199E1,1.645452188E1
6.915051167E0,-7.146771610E0,-1.013824982E1,-1.097785620E1,1.656423196E1
6.925029167E0,-7.700288340E0,-1.101327863E1,-8.651537941E0,1.598236076E1
6.935008167E0,-7.709633360E0,-1.174672179E1,-5.897735596E0,1.523834651E1
6.944986167E0,-7.122542503E0,-1.235420773E1,-3.545949792E0,1.469458473E1
6.954965167E0,-5.914094351E0,-1.314300882E1,-1.251613760E0,1.446657284E1
6.964943167E0,-4.502088250E0,-1.411454709E1,1.575562809E0,1.489871257E1
6.974922167E0,-3.256314982E0,-1.516962803E1,5.616185145E0,1.650038598E1
6.984900167E0,-1.828485146E0,-1.547653084E1,1.085444369E1,1.899171695E1
6.994878167E0,5.882608849E-1,-1.399660290E1,1.652819117E1,2.166638057E1
7.004857167E0,2.523737798E0,-1.188769582E1,2.163052768E1,2.481060846E1
7.014835167E0,3.436824084E0,-1.036698237E1,2.500744675E1,2.728843118E1
7.024814167E0,3.782219112E0,-9.144761106E0,2.632334860E1,2.812206462E1
7.034792167E0,3.824511146E0,-8.127241502E0,2.598537251E1,2.749397252E1
7.044771167E0,3.712596608E0,-7.059411870E0,2.392096859E1,2.521569765E1
7.054749167E0,4.411645565E0,-5.782905636E0,2.115462514E1,2.237013140E1
7.064728167E0,5.935389326E0,-5.151067792E0,1.872932521E1,2.031132612E1
7.074706167E0,7.729191127E0,-4.677298898E0,1.619161140E1,1.854146165E1
7.084685167E0,9.251486825E0,-4.058005085E0,1.317752610E1,1.660435509E1
7.094663167E0,9.726951996E0,-3.555414096E0,9.768706378E0,1.423664949E1
7.104642167E0,9.082573628E0,-3.200411507E0,6.281420531E0,1.149747892E1
7.114620167E0,7.637747691E0,-3.056175900E0,2.934947916E0,8.734375775E0
7.124598167E0,6.169204862E0,-2.756304368E0,1.607843971E-1,6.758857449E0
7.134577167E0,5.363687171E0,-2.242012516E0,-1.388127826E0,5.976843569E0
7.144555167E0,4.822822354E0,-2.091027467E0,-1.727566881E0,5.533217749E0
7.154534167E0,4.467104943E0,-2.086269588E0,-1.326280657E0,5.105542846E0
7.164512167E0,4.523852464E0,-1.987245237E0,-5.720494795E-1,4.974095430E0
7.174491167E0,4.795629585E0,-1.538263274E0,4.018113041E-1,5.052303370E0
7.184469167E0,4.413000072E0,-1.177953753E0,9.875093544E-1,4.673041772E0
7.194448167E0,2.366340985E0,-1.707960582E0,2.120212090E-1,2.926030075E0
7.204426167E0,7.259780163E-1,-1.418622810E0,-7.070430509E-1,1.743400308E0
7.214405167E0,4.527218413E-1,-6.208596969E-1,-5.666372236E-1,9.547259146E-1
7.224383167E0,1.178234127E0,4.450596499E-1,-3.744907737E-1,1.313985194E0
7.234362167E0,1.760031500E0,9.613144130E-1,-2.697811747E-1,2.023516287E0
7.244340167E0,1.761851445E0,1.085482961E0,2.975180999E-1,2.090672331E0
7.254319167E0,1.572195836E0,1.009701292E0,1.445627006E0,2.362442357E0
7.264297167E0,1.301848359E0,7.100981480E-1,2.577225788E0,2.973405672E0
7.274276167E0,2.248763126E-1,4.039139628E-2,2.777554904E0,2.786935964E0
7.284254167E0,-8.485160682E-1,-1.175606096E-1,2.021944953E0,2.195919263E0
7.294232167E0,-1.194741694E0,2.564337355E-1,1.131349763E0,1.665268225E0
7.304211167E0,-9.252426472E-1,6.081811792E-1,4.902023475E-1,1.210890847E0
7.314189167E0,8.690775096E-2,8.147498596E-1,-3.033665581E-1,8.737285387E-1
7.324168167E0,4.047676563E-1,3.321446532E-1,1.021776085E-1,5.334765130E-1
7.334146167E0,7.909110537E-1,-1.778477418E-1,6.963330714E-1,1.068667329E0
7.344125167E0,1.364191372E0,-2.093841147E-1,1.078521412E0,1.751590204E0
7.354103167E0,1.223471988E0,-2.894313276E-1,1.030875814E0,1.625841057E0
7.364082167E0,7.585914463E-1,-2.340605342E-1,7.582612248E-1,1.097818474E0
7.374060167E0,3.743416697E-1,-2.255271077E-2,7.185491288E-1,8.105264714E-1
7.384039167E0,1.648692620E-1,3.425825179E-2,9.504497015E-1,9.652513333E-1
7.394017167E0,1.399653858E-1,7.358720899E-3,1.393607691E0,1.400638017E0
7.403996167E0,2.216065496E-1,-1.111152238E-1,1.845561500E0,1.862136758E0
7.413974167E0,4.442445481E-1,-2.867930639E-1,2.056850492E0,2.123731957E0
7.423952167E0,7.400265366E-1,-5.583342505E-1,2.032948244E0,2.234335465E0
7.433931167E0,9.549321771E-1,-8.293714070E-1,1.675484562E0,2.099285810E0
7.443909167E0,9.342640239E-1,-9.073621541E-1,9.229807980E-1,1.596260912E0
7.453888167E0,5.074816006E-1,-8.216244310E-1,1.069759798E-1,9.716213979E-1
7.463866167E0,-8.540209293E-2,-6.343100470E-1,-3.498225403E-1,7.293960261E-1
7.473845167E0,-3.446606183E-1,-4.072726035E-1,-2.237027764E-1,5.785368161E-1
7.483823167E0,-2.648876399E-1,-3.344192201E-1,1.887655167E-1,4.665126974E-1
7.493803708E0,3.816711545E-2,-4.532340574E-1,5.804786794E-1,7.374505656E-1
7.503781708E0,4.872367859E-1,-6.570475298E-1,8.768730175E-1,1.199173645E0
7.513760708E0,9.214258772E-1,-9.008635587E-1,1.052519867E0,1.663844605E0
7.523738708E0,1.171639929E0,-1.209490126E0,8.687252149E-1,1.894806055E0
7.533717708E0,1.307804625E0,-1.475939557E0,3.500084817E-1,2.002812136E0
7.543695708E0,1.397252991E0,-1.570477924E0,-2.624084204E-2,2.102238192E0
7.553674708E0,1.566359146E0,-1.647090483E0,-8.042143464E-2,2.274391268E0
7.563652708E0,1.733377844E0,-1.711856582E0,7.670421347E-2,2.437403382E0
7.573630708E0,1.597106144E0,-1.741707788E0,2.659114873E-1,2.378025015E0
7.583609708E0,1.274858488E0,-1.764865685E0,3.610586961E-1,2.206893390E0
7.593587708E0,7.009039861E-1,-1.770868437E0,2.440959643E-1,1.920110481E0
7.603566708E0,1.894573885E-1,-1.796457607E0,-2.127553269E-2,1.806545511E0
7.613544708E0,-2.002560264E-1,-1.771083030E0,-1.947483878E-1,1.792976438E0
7.623523708E0,-5.617981410E-1,-1.585966614E0,-3.442045355E-1,1.717377074E0
7.633501708E0,-8.905367911E-1,-1.300445027E0,-5.028068979E-1,1.654396513E0
7.643480708E0,-1.283303622E0,-1.242371358E0,-6.029474826E-1,1.885179155E0
7.653458708E0,-1.619085828E0,-1.346690363E0,-7.933503659E-1,2.250426328E0
7.663437708E0,-2.065700837E0,-1.469396815E0,-1.133580841E0,2.776914200E0
7.673415708E0,-2.681359436E0,-1.533957677E0,-1.596963472E0,3.477500095E0
7.683394708E0,-3.261731257E0,-1.423124874E0,-1.934234526E0,4.050362750E0
7.693372708E0,-3.942086958E0,-1.077890936E0,-2.009247140E0,4.554006206E0
7.703351708E0,-4.812275439E0,-7.684928289E-1,-1.939523917E0,5.245028994E0
7.713329708E0,-5.332712131E0,-5.622980779E-1,-2.038640947E0,5.736728572E0
7.723307708E0,-5.649534740E0,-5.589280352E-1,-2.233720579E0,6.100750032E0
7.733286708E0,-5.789217705E0,-7.067136334E-1,-2.425022618E0,6.316266341E0
7.743264708E0,-5.864333961E0,-9.143085001E-1,-2.738074504E0,6.536315845E0
7.753243708E0,-6.223517309E0,-1.197357007E0,-3.394657180E0,7.189543022E0
7.763221708E0,-6.836458706E0,-1.470879961E0,-4.273382596E0,8.195270240E0
7.773200708E0,-7.405238423E0,-1.520778053E0,-5.022736026E0,9.076243671E0
7.783178708E0,-8.351324932E0,-1.398723566E0,-5.704149488E0,1.020971974E1
7.793157708E0,-9.341561428E0,-1.346329152E0,-6.381902593E0,1.139324593E1
7.803135708E0,-1.005838504E1,-1.517001629E0,-6.975840540E0,1.233429183E1
7.813114708E0,-1.099137847E1,-1.911893338E0,-7.651543611E0,1.352818748E1
7.823092708E0,-1.240886984E1,-2.495121232E0,-8.883564813E0,1.546361550E1
7.833071708E0,-1.361202100E1,-3.122590037E0,-1.048954937E1,1.746620538E1
7.843049708E0,-1.392798115E1,-3.850951670E0,-1.197168873E1,1.876538885E1
7.853028708E0,-1.339170259E1,-4.689569280E0,-1.301191307E1,1.925200354E1
7.863006708E0,-1.207408634E1,-5.398715501E0,-1.323878972E1,1.871350430E1
7.872985708E0,-1.051749204E1,-6.253323491E0,-1.235974972E1,1.739209897E1
7.882963708E0,-9.363960357E0,-7.056066678E0,-1.102938537E1,1.609717901E1
7.892941708E0,-8.728056943E0,-7.363989825E0,-9.676477661E0,1.496801737E1
7.902920708E0,-8.771873054E0,-7.812589964E0,-8.452301084E0,1.447147928E1
7.912898708E0,-9.539482661E0,-8.626693121E0,-8.050730685E0,1.517352392E1
7.922877708E0,-1.027923789E1,-9.596455007E0,-7.980765241E0,1.616933190E1
7.932855708E0,-1.019210736E1,-1.082277751E1,-6.247780330E0,1.612595189E1
7.942834708E0,-9.275667985E0,-1.228254893E1,-2.536311650E0,1.559909939E1
7.952812708E0,-7.201684567E0,-1.364158569E1,1.812802036E0,1.553201120E1
7.962791708E0,-4.372591719E0,-1.499388061E1,5.769326062E0,1.664995908E1
7.972769708E0,-1.235157064E0,-1.559856808E1,9.792015134E0,1.845872421E1
7.982748708E0,1.735840691E0,-1.465543324E1,1.514941304E1,2.114945820E1
7.992726708E0,3.591321262E0,-1.264250704E1,2.053245099E1,2.437851751E1
8.002705708E0,3.716748131E0,-1.086006170E1,2.449267659E1,2.704896233E1
8.012683708E0,3.907289008E0,-8.932047586E0,2.643533447E1,2.817579262E1
8.022662708E0,4.884197361E0,-7.514588957E0,2.686588835E1,2.832137687E1
8.032640708E0,6.722250305E0,-6.495768347E0,2.570009856E1,2.734737138E1
8.042618708E0,9.446000301E0,-5.452271903E0,2.315300932E1,2.559328098E1
8.052597708E0,1.234427448E1,-4.916134268E0,2.031068949E1,2.427083839E1
8.062575708E0,1.445072106E1,-4.323637075E0,1.743642163E1,2.305528087E1
8.072554708E0,1.496274419E1,-3.708509989E0,1.410509915E1,2.089475011E1
8.082532708E0,1.309943770E1,-3.621798120E0,1.023467976E1,1.701356399E1
8.092511708E0,1.021558159E1,-3.470277466E0,6.340741704E0,1.251422943E1
8.102489708E0,8.027009701E0,-3.045789490E0,3.345245869E0,9.214140669E0
8.112468708E0,6.590303206E0,-2.914648138E0,1.306915994E0,7.323612465E0
8.122446708E0,5.421635417E0,-2.914967396E0,-5.937482044E-2,6.155866379E0
8.132425708E0,4.553055213E0,-2.668296756E0,-6.618615425E-1,5.318663371E0
8.142403708E0,4.060680479E0,-2.329803196E0,-5.704787712E-1,4.716201322E0
8.152382708E0,3.776217530E0,-2.127852647E0,-3.446829839E-1,4.348146971E0
8.162360708E0,3.557602124E0,-2.037626016E0,-2.301604414E-1,4.106266733E0
8.172339708E0,3.199537933E0,-1.765342818E0,-2.515096490E-1,3.662886205E0
8.182317708E0,2.657965311E0,-1.391449630E0,-1.941719985E-1,3.006428850E0
8.192295708E0,1.847317858E0,-1.105161180E0,-1.391694336E-1,2.157158463E0
8.202274708E0,1.058415030E0,-8.230470586E-1,-4.886167288E-2,1.341654315E0
8.212252708E0,3.518187797E-1,-5.363300085E-1,4.456177667E-2,6.429712931E-1
8.222231708E0,-1.635536385E-1,-1.777231961E-1,3.062854882E-1,3.900591332E-1
8.232209708E0,-6.131559902E-1,1.328832382E-1,8.517624423E-1,1.057883491E0
8.242188708E0,-8.706217593E-1,1.703013253E-1,1.445129993E0,1.695696166E0
8.252166708E0,-8.094587141E-1,2.260048252E-1,1.775283815E0,1.964162472E0
8.262145708E0,-7.165897268E-1,2.918052971E-1,1.852455221E0,2.007546143E0
8.272123708E0,-1.266384704E0,3.669186294E-2,1.286741492E0,1.805763046E0
8.282102708E0,-2.324989768E0,-1.574368662E-1,1.707769963E-1,2.336563411E0
8.292080708E0,-2.839602048E0,-6.900123775E-2,-4.323377167E-1,2.873154515E0
8.302059708E0,-2.596388867E0,1.047025824E-1,-7.524781823E-2,2.599588432E0
8.312037708E0,-1.654729285E0,1.664924490E-1,8.372674870E-1,1.861952091E0
8.322016708E0,-4.871572638E-1,1.202824885E-1,1.709056935E0,1.781197823E0
8.331994708E0,4.228969485E-1,1.895316482E-2,2.146199455E0,2.187549577E0
8.341972708E0,1.070280200E0,-1.397309124E-1,2.165551693E0,2.419636040E0
8.351951708E0,1.289329178E0,-4.755464476E-1,1.716241702E0,2.198635879E0
8.361929708E0,8.135114193E-1,-8.418698305E-1,8.733028539E-1,1.460549046E0
8.371908708E0,6.316980958E-2,-9.309948456E-1,-9.905037135E-3,9.331880503E-1
8.381886708E0,-2.933670884E-1,-8.159415221E-1,-3.502761380E-1,9.351567724E-1
8.391865708E0,-1.843346429E-1,-7.779007065E-1,6.957397252E-2,8.024645210E-1
8.401843708E0,2.200693166E-1,-7.878561759E-1,8.116536127E-1,1.152358210E0
8.411822708E0,8.094201225E-1,-7.778498358E-1,1.653664069E0,1.998703618E0
8.421800708E0,1.628001662E0,-7.372070092E-1,2.382892552E0,2.978597070E0
8.431779708E0,1.981657637E0,-1.009134697E0,2.692729054E0,3.492292884E0
8.441757708E0,1.137116214E0,-1.366137033E0,1.787833110E0,2.521053531E0
8.451736708E0,1.809543675E-1,-1.179743001E0,4.563982782E-1,1.277825270E0
8.461714708E0,-2.982062441E-1,-8.293977195E-1,-3.403807488E-1,9.448209329E-1
8.471693708E0,-5.121090871E-1,-7.228421545E-1,-4.482887748E-1,9.928339856E-1
8.481671708E0,-5.233024120E-1,-6.039477950E-1,-1.073458162E-1,8.063011087E-1
8.491652542E0,-2.318309909E-1,-4.848116532E-1,3.889868984E-1,6.633993929E-1
8.501630542E0,-1.193592131E-2,-4.302135694E-1,7.732523163E-1,8.849549854E-1
8.511608542E0,7.407603621E-2,-4.215658298E-1,7.980022645E-1,9.055454832E-1
8.521587542E0,3.932661831E-2,-4.351799020E-1,5.801386638E-1,7.262843791E-1
8.531565542E0,-1.361921775E-1,-4.057473573E-1,2.895365775E-1,5.167307392E-1
8.541544542E0,-7.188403201E-1,-4.505770826E-1,-7.817522675E-2,8.519756330E-1
8.551522542E0,-1.551459271E0,-5.489766589E-1,-6.469982126E-1,1.768334790E0
8.561501542E0,-1.931162252E0,-4.497134489E-1,-1.031230009E0,2.234964242E0
8.571479542E0,-1.909486624E0,-4.343621689E-1,-1.298032758E0,2.349403904E0
8.581458542E0,-1.675675181E0,-5.111311403E-1,-1.710532919E0,2.448482228E0
8.591436542E0,-1.684892732E0,-6.296170717E-1,-2.222874140E0,2.859449356E0
8.601415542E0,-1.980698694E0,-8.745700917E-1,-2.550459573E0,3.345576811E0
8.611393542E0,-2.363100750E0,-1.093026454E0,-2.967097077E0,3.947482369E0
8.621372542E0,-2.976671308E0,-1.181201296E0,-3.551390626E0,4.782069004E0
8.631350542E0,-3.841882054E0,-1.268014615E0,-4.206757082E0,5.836499287E0
8.641329542E0,-4.686482534E0,-1.390623272E0,-4.660060136E0,6.753748004E0
8.651307542E0,-5.216231502E0,-1.528333825E0,-4.659753742E0,7.159481846E0
8.661285542E0,-5.509413233E0,-1.700852853E0,-4.639502496E0,7.400778203E0
8.671264542E0,-5.543309543E0,-1.806362790E0,-4.855871694E0,7.587536960E0
8.681242542E0,-5.445870371E0,-2.032114577E0,-5.182448044E0,7.787474654E0
8.691221542E0,-5.431638249E0,-2.409047440E0,-5.497016551E0,8.094652222E0
8.701199542E0,-5.828259564E0,-2.717586445E0,-6.147197696E0,8.896174748E0
8.711178542E0,-7.479788083E0,-3.029188660E0,-7.810572674E0,1.123068383E1
8.721156542E0,-9.519612068E0,-3.340223696E0,-9.854346453E0,1.410277463E1
8.731135542E0,-1.073468336E1,-3.674389731E0,-1.097363334E1,1.578465063E1
8.741113542E0,-1.129939809E1,-4.002945656E0,-1.082089003E1,1.614904431E1
8.751092542E0,-1.119340912E1,-4.125131121E0,-9.847105261E0,1.546850337E1
8.761070542E0,-1.094035800E1,-4.102609108E0,-8.797919476E0,1.462621693E1
8.771049542E0,-1.068817227E1,-3.916320033E0,-7.814179237E0,1.380709912E1
8.781027542E0,-1.030675138E1,-3.828566482E0,-6.903952532E0,1.298274261E1
8.791006542E0,-1.001663242E1,-3.981918776E0,-6.278900381E0,1.247450168E1
8.800984542E0,-9.814970133E0,-4.399136324E0,-6.127216591E0,1.237856301E1
8.810962542E0,-9.705192168E0,-5.067050319E0,-6.381250044E0,1.267225734E1
8.820941542E0,-9.335216029E0,-5.940463539E0,-6.794540017E0,1.298465015E1
8.830919542E0,-8.472803761E0,-7.092671417E0,-7.149123945E0,1.316071292E1
8.840898542E0,-7.160426028E0,-8.547617131E0,-7.121307571E0,1.323051326E1
8.850876542E0,-5.807275661E0,-9.823722246E0,-5.580049353E0,1.270302799E1
8.860855542E0,-4.913369704E0,-1.081862716E1,-3.311798626E0,1.233498705E1
8.870833542E0,-4.364008006E0,-1.174451388E1,-1.784789926E0,1.265557771E1
8.880812542E0,-3.426344411E0,-1.280870713E1,-6.275278616E-1,1.327390694E1
8.890790542E0,-1.289422733E0,-1.384871629E1,1.574221312E0,1.399741857E1
8.900769542E0,1.091374615E0,-1.452642028E1,5.347659953E0,1.551790745E1
8.910747542E0,3.307154183E0,-1.423299530E1,9.831231240E0,1.761160219E1
8.920726542E0,5.077421526E0,-1.271294611E1,1.393113046E1,1.953140046E1
8.930704542E0,5.551254739E0,-1.038004739E1,1.731555033E1,2.093776722E1
8.940683542E0,4.435705980E0,-8.475833203E0,1.998276594E1,2.215459705E1
8.950661542E0,2.851650236E0,-7.357065552E0,2.212908701E1,2.349371862E1
8.960640542E0,1.710338645E0,-6.194329178E0,2.314844147E1,2.402384888E1
8.970618542E0,1.913013080E0,-4.995016716E0,2.309097270E1,2.370238029E1
8.980596542E0,3.666728709E0,-3.921643338E0,2.157903944E1,2.223688667E1
8.990575542E0,5.665919223E0,-3.572341200E0,1.902620122E1,2.017078568E1
9.000553542E0,7.265724442E0,-3.031757927E0,1.598398847E1,1.781769332E1
9.010532542E0,8.182074936E0,-2.239585336E0,1.295071962E1,1.548170635E1
9.020510542E0,7.900239726E0,-1.924975898E0,9.738106145E0,1.268660834E1
9.030489542E0,6.599045963E0,-1.889088027E0,6.339677510E0,9.343852104E0
9.040467542E0,5.324642388E0,-1.691103060E0,3.580834866E0,6.635813775E0
9.050446542E0,4.226084176E0,-1.686437566E0,1.693259951E0,4.854996230E0
9.060424542E0,3.657640090E0,-1.606780363E0,5.972580687E-1,4.039404827E0
9.070403542E0,3.748449980E0,-1.370307267E0,4.191985846E-1,4.013022142E0
9.080381542E0,4.104535765E0,-1.295679254E0,7.633645284E-1,4.371352649E0
9.090360542E0,4.380235784E0,-1.020188273E0,1.051778440E0,4.618818845E0
9.100338542E0,4.465465969E0,-5.384256506E-1,1.494104079E0,4.739476289E0
9.110317542E0,4.202230167E0,-2.735450274E-1,2.094718230E0,4.703340273E0
9.120295542E0,3.152412883E0,-4.855153656E-1,2.017538638E0,3.774108413E0
9.130273542E0,1.428545535E0,-7.230795515E-1,7.479828429E-1,1.767219488E0
9.140252542E0,1.606183362E-1,-4.246259701E-1,-2.515434167E-1,5.190178753E-1
9.150230542E0,-1.185879654E-1,8.670075953E-2,1.848377958E-1,2.361040830E-1
9.160209542E0,1.627560782E-1,3.165372652E-1,1.647757065E0,1.685760578E0
9.170187542E0,7.635978323E-1,4.895949680E-1,3.168100963E0,3.295398093E0
9.180166542E0,1.375484977E0,6.760082960E-1,4.130469629E0,4.405647000E0
9.190144542E0,1.594697092E0,5.600439763E-1,4.173539050E0,4.502792052E0
9.200123542E0,7.377198100E-1,2.557221293E-2,2.923501407E0,3.015252051E0
9.210101542E0,-8.014988995E-1,-1.561645120E-1,1.013750489E0,1.301721128E0
9.220080542E0,-1.717828928E0,4.285073519E-2,-2.556225805E-1,1.737272378E0
9.230058542E0,-1.656205122E0,2.485364860E-1,-3.326410818E-1,1.707464753E0
9.240037542E0,-9.827894819E-1,4.243453038E-1,3.998735368E-1,1.142734855E0
9.250015542E0,-6.417143762E-2,4.171602452E-1,1.180449929E0,1.253635784E0
9.259994542E0,1.004980835E0,1.449138844E-1,1.731501911E0,2.007258175E0
9.269972542E0,1.522719621E0,-3.201251167E-1,1.757594380E0,2.347401359E0
9.279950542E0,7.555204886E-1,-7.774972486E-1,7.686691225E-1,1.328971557E0
9.289929542E0,-8.769127786E-1,-8.839651054E-1,-9.302206743E-1,1.554246065E0
9.299907542E0,-1.999757109E0,-5.286315644E-1,-2.100595705E0,2.948047174E0
9.309886542E0,-2.015277373E0,-3.749486107E-1,-2.160436256E0,2.978156169E0
9.319864542E0,-1.209526963E0,-4.115328848E-1,-1.147967477E0,1.717598358E0
9.329843542E0,-6.449011087E-2,-4.696045071E-1,1.494479616E-1,4.970131394E-1
9.339821542E0,6.961993164E-1,-5.586201793E-1,1.101279653E0,1.417591925E0
9.349800542E0,8.683354980E-1,-6.683654004E-1,1.469187631E0,1.832820542E0
9.359778542E0,7.725282848E-1,-8.089488369E-1,1.259251685E0,1.684313800E0
9.369757542E0,1.880540568E-1,-1.015364905E0,4.174865198E-1,1.113833566E0
9.379735542E0,-7.878707939E-1,-1.144861436E0,-7.795015280E-1,1.593446180E0
9.389714542E0,-1.426642267E0,-9.631644720E-1,-1.372326165E0,2.201425234E0
9.399692542E0,-1.615555279E0,-7.673385885E-1,-1.193290415E0,2.150062646E0
9.409671542E0,-1.322258357E0,-7.133673263E-1,-5.232720065E-1,1.590934851E0
9.419649542E0,-6.787184805E-1,-7.269892922E-1,1.076975993E-1,1.000385416E0
9.429628542E0,1.195229352E-2,-8.463286248E-1,5.529560546E-1,1.011026902E0
9.439606542E0,5.909102583E-1,-1.063126132E0,8.282288611E-1,1.471521373E0
9.449584542E0,4.097664410E-1,-1.295023489E0,4.516705851E-1,1.431433090E0
9.459563542E0,-2.644970459E-1,-1.241909721E0,-3.107923027E-1,1.307245309E0
9.469541542E0,-8.317102933E-1,-9.812583885E-1,-7.561851709E-1,1.492121325E0
9.479520542E0,-1.475073000E0,-9.630156603E-1,-1.000733344E0,2.026007587E0
9.489499167E0,-2.115814399E0,-9.024250576E-1,-1.165268072E0,2.578544403E0
9.499478167E0,-2.483949249E0,-7.564440563E-1,-1.323556001E0,2.914448828E0
9.509456167E0,-2.626808422E0,-6.624135196E-1,-1.402950518E0,3.050767824E0
9.519435167E0,-2.529049408E0,-6.652535123E-1,-1.391174226E0,2.962097040E0
9.529413167E0,-2.223472749E0,-7.391257730E-1,-1.308777602E0,2.683847385E0
9.539392167E0,-2.192484260E0,-6.977210543E-1,-1.307318137E0,2.646296017E0
9.549370167E0,-2.534341139E0,-6.699821556E-1,-1.412394941E0,2.977687117E0
9.559349167E0,-3.222589996E0,-6.394757697E-1,-1.884403238E0,3.787478199E0
9.569327167E0,-4.175266902E0,-4.207901967E-1,-2.526468447E0,4.898261008E0
9.579306167E0,-5.272645438E0,-2.046285743E-1,-3.141009643E0,6.140733209E0
9.589284167E0,-6.062304896E0,-8.181190252E-2,-3.707980231E0,7.106852414E0
9.599263167E0,-6.366423844E0,3.090545833E-3,-4.054538856E0,7.547890265E0
9.609241167E0,-6.204407439E0,-1.249566065E-1,-4.074866116E0,7.423935593E0
9.619219167E0,-5.855043320E0,-5.298806758E-1,-3.921591883E0,7.066908002E0
9.629198167E0,-5.969623019E0,-9.748093481E-1,-4.061183631E0,7.285592958E0
9.639176167E0,-7.064028246E0,-1.251910944E0,-4.912715986E0,8.694972940E0
9.649155167E0,-8.750617256E0,-1.500424042E0,-6.144904418E0,1.079742678E1
9.659133167E0,-1.071569745E1,-1.739029178E0,-7.490972053E0,1.318958137E1
9.669112167E0,-1.234366754E1,-2.085292226E0,-8.635163398E0,1.520791304E1
9.679090167E0,-1.304453586E1,-2.631445849E0,-9.121802598E0,1.613355837E1
9.689069167E0,-1.312977072E1,-3.112193395E0,-9.184165492E0,1.632254645E1
9.699047167E0,-1.288799537E1,-3.641731862E0,-9.100608780E0,1.619208806E1
9.709026167E0,-1.227468209E1,-4.235709862E0,-8.846791674E0,1.571224940E1
9.719004167E0,-1.160463795E1,-4.978630478E0,-8.537068169E0,1.524256922E1
9.728983167E0,-1.117632590E1,-5.632968993E0,-8.212974547E0,1.496975455E1
9.738961167E0,-1.105698423E1,-6.089234247E0,-8.048281871E0,1.497032114E1
9.748940167E0,-1.145803773E1,-6.744601287E0,-7.984499273E0,1.550898139E1
9.758918167E0,-1.183832427E1,-7.846602632E0,-7.723933311E0,1.616707271E1
9.768897167E0,-1.138917975E1,-9.339661083E0,-6.994786688E0,1.630551212E1
9.778875167E0,-9.567020708E0,-1.077714584E1,-4.675120225E0,1.515029725E1
9.788853167E0,-6.608942376E0,-1.224587052E1,-8.178500533E-1,1.393945274E1
9.798832167E0,-2.942285587E0,-1.315568090E1,3.783352010E0,1.400152623E1
9.808810167E0,7.218627459E-1,-1.301202417E1,7.888441215E0,1.523356044E1
9.818789167E0,3.229913049E0,-1.229861474E1,1.084117519E1,1.670985764E1
9.828767167E0,4.671880283E0,-1.123907822E1,1.304184380E1,1.783908726E1
9.838746167E0,5.238283691E0,-1.027659611E1,1.577306654E1,1.954066712E1
9.848724167E0,5.364915086E0,-9.064564789E0,1.935505798E1,2.203558300E1
9.858703167E0,5.616811967E0,-7.177533227E0,2.223341537E1,2.402894752E1
9.868681167E0,5.919694814E0,-5.604259164E0,2.310557437E1,2.450138923E1
9.878660167E0,6.370104082E0,-4.765925145E0,2.205524604E1,2.344623949E1
9.888638167E0,6.911083211E0,-4.232039858E0,1.960521239E1,2.121408931E1
9.898617167E0,7.661504928E0,-3.818130664E0,1.685908159E1,1.890781351E1
9.908595167E0,8.393479264E0,-3.402329897E0,1.452627644E1,1.711838339E1
9.918574167E0,8.566605379E0,-3.049971419E0,1.218010571E1,1.520013252E1
9.928552167E0,7.905433223E0,-2.962906378E0,9.369812250E0,1.261221909E1
9.938530167E0,6.695863575E0,-2.873834572E0,6.418707308E0,9.710474637E0
9.948509167E0,5.590049846E0,-2.629483523E0,3.962890767E0,7.339437588E0
9.958487167E0,4.774579317E0,-2.461730999E0,2.115425559E0,5.773365783E0
9.968466167E0,4.142834443E0,-2.360327416E0,7.085560910E-1,4.820401899E0
9.978444167E0,3.873191555E0,-2.209787925E0,-2.062981005E-1,4.464004302E0
9.988423167E0,3.944797435E0,-1.941991296E0,-6.248685479E-1,4.441082942E0
9.998401167E0,3.986871660E0,-1.561724058E0,-5.141127817E-1,4.312590824E0
1.000838017E1,3.562318488E0,-1.498720894E0,-3.291806996E-1,3.878741711E0
1.001835817E1,2.922397745E0,-1.315303094E0,-4.148808543E-1,3.231494536E0
1.002833717E1,2.405175268E0,-8.078162313E-1,-3.602364314E-1,2.562655931E0
1.003831517E1,1.834748683E0,-4.239968097E-1,2.842448473E-2,1.883317280E0
1.004829417E1,1.369832473E0,-8.125758648E-2,7.485921228E-1,1.563148735E0
1.005827217E1,1.260300091E0,2.814498782E-1,1.676284461E0,2.116010385E0
1.006825117E1,1.574636464E0,6.408121508E-1,2.722612127E0,3.209787688E0
1.007822917E1,2.202003527E0,7.699344599E-1,3.647590188E0,4.329726641E0
1.008820817E1,2.647935289E0,3.192456955E-1,4.057958307E0,4.855976188E0
1.009818617E1,2.295501675E0,-6.867478770E-1,3.258024123E0,4.044214605E0
1.010816417E1,1.518186859E0,-1.015921560E0,1.738376190E0,2.521693823E0
1.011814317E1,7.114365757E-1,-8.048160249E-1,4.254458959E-1,1.155367926E0
1.012812117E1,1.994906259E-1,-4.477487844E-1,-3.443447225E-1,5.990398748E-1
1.013810017E1,1.821150398E-1,7.472390771E-2,-3.778130154E-1,4.260190427E-1
1.014807817E1,4.207890272E-1,4.645490044E-1,5.341548443E-2,6.290647001E-1
1.015805717E1,9.309661943E-1,4.785823220E-1,7.145544572E-1,1.267409628E0
1.016803517E1,1.622873654E0,-6.604897857E-2,1.395627611E0,2.141461603E0
1.017801417E1,2.476092930E0,-5.910348040E-1,2.005952965E0,3.241019228E0
1.018799217E1,1.892870591E0,-1.351954027E0,1.496663990E0,2.765997445E0
1.019797117E1,4.638876843E-1,-1.404861973E0,1.978170066E-1,1.492635426E0
1.020794917E1,-5.771178460E-1,-1.061895878E0,-5.012958312E-1,1.308428589E0
1.021792817E1,-1.195284900E0,-1.004655730E0,-5.797046542E-1,1.665561951E0
1.022790617E1,-1.094212854E0,-9.366485184E-1,-1.646178317E-1,1.449727991E0
1.023788517E1,-7.424507922E-1,-9.416432101E-1,3.951605348E-1,1.262567607E0
1.024786317E1,-2.117136455E-1,-9.793606746E-1,9.065488064E-1,1.351221942E0
1.025784217E1,6.718813312E-1,-1.168254976E0,1.521153298E0,2.032277434E0
1.026782017E1,1.182892896E0,-1.565103164E0,1.934027388E0,2.754858518E0
1.027779817E1,3.001580447E-1,-1.883521478E0,1.086350834E0,2.194972926E0
1.028777717E1,-1.261894042E0,-1.679157198E0,-4.893967474E-1,2.156723127E0
1.029775517E1,-2.816335977E0,-1.425762845E0,-2.053370375E0,3.765750646E0
1.030773417E1,-3.265628427E0,-1.126685366E0,-2.505972787E0,4.267745136E0
1.031771217E1,-3.189267883E0,-8.898234308E-1,-2.155792397E0,3.951032299E0
1.032769117E1,-2.747910690E0,-5.481750056E-1,-1.654452127E0,3.254031475E0
1.033766917E1,-2.074420790E0,-4.929252496E-1,-1.042839217E0,2.373543880E0
1.034764817E1,-1.197185830E0,-7.667208302E-1,-4.778286159E-1,1.499811631E0
1.035762617E1,-1.081875229E-1,-1.059008815E0,1.879610860E-1,1.080987317E0
1.036760517E1,1.102417667E0,-1.377011685E0,9.755284095E-1,2.015723585E0
1.037758317E1,1.169025055E0,-1.840732139E0,9.045934975E-1,2.360763389E0
1.038756217E1,-1.752196523E0,-1.908802500E0,-1.448471092E0,2.968465621E0
1.039754017E1,-4.895150950E0,-7.913820469E-1,-3.604894989E0,6.130583679E0
1.040751917E1,-5.883563699E0,-2.158116665E-1,-4.051171444E0,7.146669612E0
1.041749717E1,-5.350216940E0,-3.360757363E-1,-3.276905367E0,6.282983128E0
1.042747617E1,-4.247698701E0,-3.471760905E-1,-1.776583505E0,4.617328713E0
1.043745417E1,-3.189047443E0,-3.578428736E-1,-1.298801082E-1,3.211688646E0
1.044743217E1,-2.495769981E0,-5.518593362E-1,9.448784745E-1,2.725107678E0
1.045741117E1,-2.458598061E0,-8.800865011E-1,1.077822524E0,2.825058950E0
1.046738917E1,-3.368251739E0,-1.037177651E0,-5.746051513E-2,3.524792046E0
1.047736817E1,-5.057481351E0,-7.741549802E-1,-1.813974110E0,5.428437678E0
1.048734617E1,-6.838613990E0,-4.244585936E-1,-3.280117242E0,7.596444927E0
1.049732517E1,-7.783206536E0,-2.910122685E-1,-3.914266491E0,8.716907380E0
1.050730317E1,-7.659990499E0,-2.788439204E-1,-3.783482988E0,8.547979404E0
1.051728217E1,-6.792291763E0,-4.608234510E-1,-2.975669680E0,7.429818012E0
1.052726017E1,-5.962274823E0,-8.789274368E-1,-2.072129851E0,6.372986476E0
1.053723917E1,-5.695934735E0,-1.186609094E0,-1.678227491E0,6.055424110E0
1.054721717E1,-6.260790970E0,-1.409880492E0,-1.890232328E0,6.690160299E0
1.055719617E1,-7.313667517E0,-1.483791783E0,-2.613712413E0,7.907140013E0
1.056717417E1,-8.655033406E0,-1.635207771E0,-3.528271320E0,9.488530246E0
1.057715317E1,-1.006647876E1,-1.860060695E0,-4.382654192E0,1.113559510E1
1.058713117E1,-1.171135315E1,-1.978546626E0,-5.565366994E0,1.311654486E1
1.059711017E1,-1.365331872E1,-2.309495232E0,-6.751126195E0,1.540534274E1
1.060708817E1,-1.512537864E1,-2.874768665E0,-7.224745401E0,1.700700797E1
1.061706617E1,-1.497342588E1,-3.783808970E0,-6.159486789E0,1.662708545E1
1.062704517E1,-1.408858662E1,-4.838077155E0,-5.104380698E0,1.574642708E1
1.063702317E1,-1.319489116E1,-5.936420190E0,-4.992586613E0,1.530595173E1
1.064700217E1,-1.174866774E1,-7.689627696E0,-5.705489670E0,1.515632476E1
1.065698017E1,-9.678335322E0,-9.731490605E0,-6.671480101E0,1.526043023E1
1.066695917E1,-7.452745296E0,-1.165056666E1,-7.186999869E0,1.558627868E1
1.067693717E1,-5.231117343E0,-1.292808505E1,-7.000759034E0,1.560482614E1
1.068691617E1,-3.513250408E0,-1.325006432E1,-5.715574948E0,1.485176521E1
1.069689417E1,-2.161275916E0,-1.325311656E1,-3.038596830E0,1.376768982E1
1.070687317E1,-3.045475495E-1,-1.349863881E1,8.376440477E-1,1.352803188E1
1.071685117E1,2.425180054E0,-1.305433930E1,6.157038560E0,1.463579163E1
1.072683017E1,5.422624766E0,-1.155066464E1,1.259961537E1,1.793245718E1
1.073680817E1,7.898358092E0,-1.008987932E1,1.800246836E1,2.209702677E1
1.074678717E1,9.616471780E0,-9.282601029E0,2.006647935E1,2.411030495E1
1.075676517E1,1.074625968E1,-8.602553476E0,1.857986687E1,2.312352647E1
1.076674417E1,1.097845612E1,-7.961580527E0,1.484072449E1,2.010374012E1
1.077672217E1,1.065091381E1,-7.309558679E0,1.126442005E1,1.713939241E1
1.078670017E1,1.013948592E1,-6.582094300E0,8.907182302E0,1.501569302E1
1.079667917E1,9.475503012E0,-5.796783417E0,7.685328239E0,1.350748405E1
1.080665717E1,8.710688374E0,-5.003019215E0,7.250362637E0,1.238846446E1
1.081663617E1,7.798290013E0,-4.323382137E0,6.908514529E0,1.127973995E1
1.082661417E1,6.610600061E0,-3.843305266E0,6.124139786E0,9.796740104E0
1.083659317E1,5.573816805E0,-3.358830705E0,5.198761775E0,8.329243752E0
1.084657117E1,4.850737839E0,-2.861267152E0,4.371815209E0,7.129465304E0
1.085655017E1,4.334767250E0,-2.512166158E0,3.560127536E0,6.146193456E0
1.086652817E1,4.090997707E0,-2.254026205E0,2.842418067E0,5.467745133E0
1.087650717E1,4.002270887E0,-1.915756593E0,2.443812938E0,5.065621112E0
1.088648517E1,3.867770602E0,-1.632077172E0,2.374634237E0,4.823091652E0
1.089646417E1,3.408093790E0,-1.740271127E0,2.049828570E0,4.341133958E0
1.090644217E1,2.923511932E0,-1.797326503E0,1.263573947E0,3.657037557E0
1.091642117E1,2.928216017E0,-1.301916479E0,8.912857463E-1,3.326232981E0
1.092639917E1,3.202832839E0,-8.025128067E-1,1.269397043E0,3.537447364E0
1.093637817E1,3.365566113E0,-6.165637475E-1,2.051804345E0,3.989622436E0
1.094635617E1,3.423761111E0,-4.419676423E-1,2.730156789E0,4.401276138E0
1.095633517E1,3.364047299E0,-3.071676868E-1,3.264323913E0,4.697550087E0
1.096631317E1,3.021310414E0,-5.642995799E-1,3.459026839E0,4.627268882E0
1.097629117E1,2.390108162E0,-9.937120807E-1,2.955481583E0,3.928734162E0
1.098627017E1,1.453112319E0,-1.297351558E0,1.879320254E0,2.706751022E0
1.099624817E1,5.550761819E-1,-1.242916319E0,8.679051429E-1,1.614376003E0
1.100622717E1,2.445413759E-1,-8.567667818E-1,7.953400272E-1,1.194326405E0
1.101620517E1,3.889059144E-1,-4.968817681E-1,1.554175887E0,1.677379501E0
1.102618417E1,8.113923883E-1,-2.620037931E-1,2.536133310E0,2.675626237E0
1.103616217E1,1.251875423E0,-1.201930261E-1,3.233865767E0,3.469802045E0
1.104614117E1,1.427393049E0,-1.489437854E-1,3.575078866E0,3.852379014E0
1.105611917E1,1.008506121E0,-5.204793763E-1,3.248247578E0,3.440798702E0
1.106609817E1,1.672327065E-1,-9.768896413E-1,2.019679742E0,2.249752522E0
1.107607617E1,-6.354753971E-1,-1.187182413E0,6.821314272E-1,1.509481483E0
1.108605517E1,-8.622812909E-1,-1.231629438E0,-8.148219265E-2,1.505682385E0
1.109603317E1,-4.381885868E-1,-1.225834263E0,-1.358074307E-1,1.308863070E0
1.110601217E1,2.131409508E-1,-1.001733291E0,1.858045598E-1,1.040875586E0
1.111599017E1,8.494098151E-1,-8.203707880E-1,5.642843040E-1,1.308786476E0
1.112596817E1,1.406895635E0,-8.223565024E-1,8.904105643E-1,1.857002024E0
1.113594717E1,1.568133191E0,-1.017576322E0,7.886853111E-1,2.028922816E0
1.114592517E1,1.001252065E0,-1.085854844E0,-1.443443656E-2,1.477089975E0
1.115590417E1,4.096266925E-2,-9.932425493E-1,-8.734769547E-1,1.323318062E0
1.116588217E1,-8.210385400E-1,-8.685518450E-1,-1.106299122E0,1.628614239E0
1.117586117E1,-1.503975202E0,-7.857482547E-1,-7.378355849E-1,1.850335936E0
1.118583917E1,-1.976136112E0,-6.456998384E-1,-3.102381328E-1,2.101972862E0
1.119581817E1,-2.207343205E0,-5.369843119E-1,-8.167624712E-2,2.273188770E0
1.120579617E1,-2.183359095E0,-4.465039122E-1,-1.562235689E-1,2.234016223E0
1.121577517E1,-1.984565458E0,-4.677790064E-1,-2.962468421E-1,2.060359058E0
1.122575317E1,-1.631302416E0,-5.079932320E-1,-2.829666460E-1,1.731841453E0
1.123573217E1,-1.278670873E0,-6.350000185E-1,-3.789756612E-1,1.477107571E0
1.124571017E1,-1.524947995E0,-7.410930687E-1,-9.955668906E-1,1.966173634E0
1.125568917E1,-1.970950801E0,-6.382770905E-1,-1.622887688E0,2.631693210E0
1.126566717E1,-2.147713299E0,-5.086039737E-1,-1.760237614E0,2.823081096E0
1.127564617E1,-2.139000363E0,-4.697793388E-1,-1.525118734E0,2.668707990E0
1.128562417E1,-2.085774329E0,-3.928074691E-1,-1.140809315E0,2.409605393E0
1.129560317E1,-1.957926128E0,-2.979425347E-1,-8.561411297E-1,2.157596373E0
1.130558117E1,-1.640541016E0,-3.235460302E-1,-7.321333802E-1,1.825397531E0
1.131555917E1,-1.303092354E0,-4.913774917E-1,-7.456650066E-1,1.579720806E0
1.132553817E1,-1.053988103E0,-7.730983883E-1,-1.058906196E0,1.682217100E0
1.133551617E1,-1.001870701E0,-9.668201512E-1,-1.674170108E0,2.177459909E0
1.134549517E1,-1.231255217E0,-1.040311173E0,-2.343414345E0,2.844262213E0
1.135547317E1,-1.784490110E0,-1.024472820E0,-2.924744525E0,3.576042512E0
1.136545217E1,-2.467036763E0,-9.500485826E-1,-3.423239540E0,4.325208856E0
1.137543017E1,-3.092961903E0,-9.085777903E-1,-3.746588227E0,4.942555035E0
1.138540917E1,-3.583198310E0,-8.565910730E-1,-3.973436805E0,5.418602997E0
1.139538717E1,-3.893621142E0,-8.560636541E-1,-4.027601902E0,5.666984000E0
1.140536617E1,-4.053209199E0,-9.613708386E-1,-3.958111253E0,5.746249506E0
1.141534417E1,-4.238940157E0,-1.067102823E0,-3.979482826E0,5.911311669E0
1.142532317E1,-4.618587590E0,-1.303131530E0,-4.404712229E0,6.513907654E0
1.143530117E1,-5.316054583E0,-1.604591750E0,-5.261269096E0,7.649581917E0
1.144528017E1,-6.018040304E0,-1.772526122E0,-6.156249771E0,8.789656944E0
1.145525817E1,-6.840069947E0,-1.910440890E0,-6.853560058E0,9.869530219E0
1.146523617E1,-8.015287203E0,-2.008286150E0,-7.408602911E0,1.109799258E1
1.147521517E1,-9.686455350E0,-2.014814858E0,-7.849834388E0,1.262960000E1
1.148519317E1,-1.112941018E1,-1.907104761E0,-7.957976888E0,1.381413101E1
1.149516971E1,-1.171589059E1,-2.055461778E0,-7.702883334E0,1.417114770E1
1.150514771E1,-1.179722185E1,-2.404653111E0,-7.422704641E0,1.414402150E1
1.151512671E1,-1.209982812E1,-2.825364078E0,-7.557094706E0,1.454297780E1
1.152510471E1,-1.319485257E1,-3.328225209E0,-8.175284564E0,1.587502740E1
1.153508371E1,-1.569549387E1,-4.000326980E0,-9.202929207E0,1.862914517E1
1.154506171E1,-1.850135631E1,-4.893112318E0,-1.014141784E1,2.165851078E1
1.155504071E1,-2.104597451E1,-6.228276942E0,-1.097899640E1,2.454104397E1
1.156501871E1,-2.259808283E1,-8.047925191E0,-1.074866990E1,2.628642904E1
1.157499771E1,-2.127287221E1,-1.054771630E1,-7.932322229E0,2.503419955E1
1.158497571E1,-1.778419999E1,-1.335163162E1,-3.601526992E0,2.252808986E1
1.159495471E1,-1.399266538E1,-1.547024275E1,2.688222313E-1,2.086133650E1
1.160493271E1,-1.079609082E1,-1.717060019E1,2.590218301E0,2.044735481E1
1.161491171E1,-8.207516171E0,-1.888548914E1,3.729143643E0,2.092681376E1
1.162488971E1,-4.475491312E0,-2.078469519E1,5.788233034E0,2.203490908E1
1.163486871E1,1.338903626E0,-2.188315780E1,9.315146046E0,2.382094045E1
1.164484671E1,6.471853820E0,-2.272608539E1,1.404182410E1,2.748695460E1
1.165482571E1,1.195060367E1,-2.308368707E1,1.764528301E1,3.141702642E1
1.166480371E1,1.748964299E1,-2.067907343E1,1.811672296E1,3.258415781E1
1.167478171E1,2.070082273E1,-1.769187362E1,1.680752319E1,3.200030140E1
1.168476071E1,2.217553496E1,-1.513483008E1,1.470999946E1,3.061374718E1
1.169473871E1,2.246306126E1,-1.300070864E1,1.251678839E1,2.881453692E1
1.170471771E1,2.157692275E1,-1.089675415E1,1.083696520E1,2.649042583E1
1.171469571E1,1.950064897E1,-9.088551237E0,9.466460878E0,2.350512615E1
1.172467471E1,1.664333805E1,-7.813229649E0,8.188475298E0,2.012705608E1
1.173465271E1,1.335905174E1,-6.767280298E0,7.077233014E0,1.656344086E1
1.174463171E1,1.012798796E1,-5.816432401E0,6.023881672E0,1.314131563E1
1.175460971E1,7.257809066E0,-4.978452723E0,5.094905285E0,1.016950558E1
1.176458871E1,4.984812155E0,-4.078904788E0,4.140398785E0,7.656939244E0
1.177456671E1,3.056337575E0,-3.343198759E0,3.191223192E0,5.540946018E0
1.178454571E1,1.481498066E0,-2.772134535E0,2.290551276E0,3.889240485E0
1.179452371E1,4.703968048E-1,-2.111916645E0,1.598354964E0,2.690019267E0
1.180450271E1,-1.508808218E-1,-1.479497588E0,1.159542040E0,1.885793169E0
1.181448071E1,-5.078992380E-1,-1.019447431E0,1.070486022E0,1.563065905E0
1.182445871E1,-5.265226199E-1,-6.834161335E-1,1.275055540E0,1.539496772E0
1.183443771E1,-1.243635526E-1,-4.377342582E-1,1.539549223E0,1.605393841E0
1.184441571E1,3.691139665E-1,-4.779397130E-1,1.624434861E0,1.733049367E0
1.185439471E1,7.832611415E-1,-7.082223612E-1,1.460654351E0,1.802383994E0
1.186437271E1,1.329214790E0,-7.236666119E-1,1.259054634E0,1.968685829E0
1.187435171E1,1.879480467E0,-3.721553957E-1,1.221006217E0,2.271960089E0
1.188432971E1,2.159560928E0,-8.131313503E-2,1.250444755E0,2.496783393E0
1.189430871E1,2.142251123E0,5.203671098E-2,1.300015111E0,2.506389232E0
1.190428671E1,1.881860577E0,1.917886734E-4,1.297425233E0,2.285762783E0
1.191426571E1,1.553844350E0,-2.252645677E-1,1.273936383E0,2.021902643E0
1.192424371E1,1.090340243E0,-5.305903816E-1,1.140035144E0,1.664346156E0
1.193422271E1,4.324220628E-1,-7.315907586E-1,8.881769279E-1,1.229256740E0
1.194420071E1,-1.050259334E-1,-9.127024162E-1,6.529983330E-1,1.127148158E0
1.195417971E1,-5.358607695E-1,-1.155858294E0,3.398997422E-1,1.318592809E0
1.196415771E1,-8.858256894E-1,-1.275260777E0,-1.043412610E-1,1.556234012E0
1.197413671E1,-9.105518103E-1,-1.281823107E0,-2.296534878E-1,1.588998364E0
1.198411471E1,-5.243765455E-1,-1.009153408E0,5.617244661E-2,1.138646875E0
1.199409371E1,9.452082574E-2,-6.347749007E-1,4.856422502E-1,8.048116278E-1
1.200407171E1,7.989003968E-1,-5.514099777E-1,9.191448784E-1,1.336832867E0
1.201404971E1,1.405882897E0,-5.161518520E-1,1.290303324E0,1.976816158E0
1.202402871E1,1.815303183E0,-5.808711737E-1,1.575868472E0,2.473074687E0
1.203400671E1,1.901017517E0,-9.278507978E-1,1.642999186E0,2.678473638E0
1.204398571E1,1.503136126E0,-1.365576870E0,1.237012970E0,2.377902330E0
1.205396371E1,1.012952929E0,-1.405301684E0,7.539978737E-1,1.889301260E0
1.206394271E1,4.454157454E-1,-1.419919138E0,5.578799218E-1,1.589275166E0
1.207392071E1,1.207683921E-1,-1.409070214E0,5.871400102E-1,1.531273086E0
1.208389971E1,-2.153997302E-2,-1.279451476E0,7.307750720E-1,1.473598404E0
1.209387771E1,-2.541702783E-1,-1.039723236E0,7.623260629E-1,1.314065434E0
1.210385671E1,-4.902668130E-1,-5.857185155E-1,6.254140931E-1,9.872033809E-1
1.211383471E1,-8.692956108E-1,-3.650603843E-1,3.364277387E-1,1.001063218E0
1.212381371E1,-1.555737094E0,-4.865123159E-1,-1.928610528E-1,1.641404132E0
1.213379171E1,-2.110464197E0,-5.044445568E-1,-8.016368937E-1,2.313254233E0
1.214377071E1,-2.392432138E0,-3.475883192E-1,-1.149814028E0,2.677054627E0
1.215374871E1,-2.332423334E0,-2.789326519E-1,-1.128917248E0,2.606234100E0
1.216372771E1,-2.141794163E0,-3.476959080E-1,-7.215347171E-1,2.286654112E0
1.217370571E1,-1.910983511E0,-3.923797452E-1,-2.297090364E-1,1.964328406E0
1.218368371E1,-1.716406885E0,-3.468559554E-1,3.931901693E-1,1.794703362E0
1.219366271E1,-1.597556965E0,-4.182650766E-1,6.446274590E-1,1.772760133E0
1.220364071E1,-1.665009860E0,-5.385396713E-1,7.396260023E-2,1.751500293E0
1.221361971E1,-2.021573070E0,-6.127203727E-1,-1.047134582E0,2.357684196E0
1.222359771E1,-2.297282737E0,-6.413392773E-1,-1.951695335E0,3.081872600E0
1.223357671E1,-2.326196049E0,-7.137851098E-1,-2.266232268E0,3.325129461E0
1.224355471E1,-2.311063455E0,-7.071789256E-1,-2.204974498E0,3.271548389E0
1.225353371E1,-2.327883555E0,-6.249302360E-1,-1.906544305E0,3.073189033E0
1.226351171E1,-2.541398728E0,-5.671968752E-1,-1.768175794E0,3.147517343E0
1.227349071E1,-2.673910083E0,-5.253384125E-1,-1.817257322E0,3.275393069E0
1.228346871E1,-2.655335233E0,-5.184661800E-1,-1.908116037E0,3.310667484E0
1.229344771E1,-2.711529315E0,-6.009993365E-1,-2.108062745E0,3.486763537E0
1.230342571E1,-2.993425335E0,-6.479057005E-1,-2.450410205E0,3.922357353E0
1.231340471E1,-3.349638298E0,-6.465052924E-1,-2.859247524E0,4.451218060E0
1.232338271E1,-3.665470389E0,-4.745062280E-1,-3.176557206E0,4.873535166E0
1.233336171E1,-3.882236028E0,-3.610345763E-1,-3.337459717E0,5.132323052E0
1.234333971E1,-3.878866278E0,-4.045401996E-1,-3.268123434E0,5.088210604E0
1.235331771E1,-3.937681666E0,-4.955997661E-1,-2.954210399E0,4.947556479E0
1.236329671E1,-4.145240280E0,-6.354122472E-1,-2.688784230E0,4.981598774E0
1.237327471E1,-4.510197753E0,-8.963778672E-1,-3.003612354E0,5.492455210E0
1.238325371E1,-5.070205477E0,-1.042547733E0,-3.875763745E0,6.466485441E0
1.239323171E1,-5.462640771E0,-1.112263793E0,-4.760105411E0,7.330496468E0
1.240321071E1,-5.447941455E0,-1.245898983E0,-5.069762843E0,7.545516924E0
1.241318871E1,-5.266408798E0,-1.384074975E0,-4.669742541E0,7.173368843E0
1.242316771E1,-6.245404606E0,-1.598102802E0,-4.771199334E0,8.020184184E0
1.243314571E1,-8.238068458E0,-1.626528457E0,-5.376700734E0,9.970971744E0
1.244312471E1,-9.685014596E0,-1.600228119E0,-5.201166151E0,1.110911189E1
1.245310271E1,-1.074631347E1,-1.790439214E0,-4.745903109E0,1.188328751E1
1.246308171E1,-1.170332024E1,-2.183183679E0,-4.471214951E0,1.271714429E1
1.247305971E1,-1.195676780E1,-2.916033343E0,-4.786020856E0,1.320505746E1
1.248303871E1,-1.168988334E1,-3.580530226E0,-5.541415629E0,1.342314629E1
1.249301608E1,-1.112517446E1,-4.012530412E0,-6.296696967E0,1.339844393E1
1.250299508E1,-1.072240655E1,-4.460407543E0,-7.010356654E0,1.356504103E1
1.251297308E1,-1.019814987E1,-5.014809541E0,-7.223701673E0,1.346597346E1
1.252295208E1,-9.820765893E0,-5.675341426E0,-6.797267743E0,1.322345612E1
1.253293008E1,-9.963798144E0,-6.332086655E0,-6.435164881E0,1.344559191E1
1.254290808E1,-1.027991266E1,-7.437990432E0,-6.150332973E0,1.410059933E1
1.255288708E1,-1.081484635E1,-9.092036178E0,-6.012781903E0,1.535511542E1
1.256286508E1,-1.099732041E1,-1.089116070E1,-5.859690102E0,1.654975545E1
1.257284408E1,-1.005247117E1,-1.294335213E1,-4.715346730E0,1.705335849E1
1.258282208E1,-8.533604279E0,-1.517833337E1,-2.728690892E0,1.762526482E1
1.259280108E1,-6.752416676E0,-1.696936593E1,-4.897173209E-1,1.827003925E1
1.260277908E1,-4.642462356E0,-1.797875556E1,2.310137841E0,1.871162326E1
1.261275808E1,-2.127731609E0,-1.845818982E1,6.854797329E0,1.980455149E1
1.262273608E1,1.538236085E0,-1.841525138E1,1.350971812E1,2.289104928E1
1.263271508E1,6.219684459E0,-1.772797667E1,2.087648478E1,2.808546329E1
1.264269308E1,1.109507065E1,-1.607463084E1,2.651220197E1,3.293009569E1
1.265267208E1,1.604987139E1,-1.338201726E1,2.845340740E1,3.530259410E1
1.266265008E1,1.880331354E1,-1.043131812E1,2.602398285E1,3.375832758E1
1.267262908E1,1.893906835E1,-8.707089998E0,2.146539062E1,2.992097459E1
1.268260708E1,1.816661140E1,-7.780102834E0,1.752410765E1,2.641306720E1
1.269258608E1,1.704917224E1,-6.766574539E0,1.443694151E1,2.334279514E1
1.270256408E1,1.552372489E1,-5.824058924E0,1.191390771E1,2.041682869E1
1.271254208E1,1.328970259E1,-5.223088531E0,9.671919757E0,1.724653242E1
1.272252108E1,1.066565230E1,-4.903430607E0,7.145410963E0,1.374251318E1
1.273249908E1,8.092449399E0,-4.792897766E0,4.025247813E0,1.023045582E1
1.274247808E1,6.122994901E0,-4.518397889E0,1.082564616E0,7.686282078E0
1.275245608E1,4.797411524E0,-4.169761164E0,-9.393464237E-1,6.425296662E0
1.276243508E1,3.921440440E0,-3.667204673E0,-2.104394202E0,5.766676703E0
1.277241308E1,3.285759805E0,-2.945806196E0,-2.441234754E0,5.043175465E0
1.278239208E1,2.738885513E0,-2.267550230E0,-2.253376579E0,4.209629901E0
1.279237008E1,2.441296442E0,-1.787852844E0,-1.623184726E0,3.433813444E0
1.280234908E1,2.407368266E0,-1.430018449E0,-4.470184672E-1,2.835524685E0
1.281232708E1,2.175742220E0,-1.243905668E0,1.049710865E0,2.717176553E0
1.282230608E1,9.886103851E-1,-1.592255294E0,1.629051822E0,2.483231213E0
1.283228408E1,-5.806244212E-1,-1.726897960E0,1.125824071E0,2.141677175E0
1.284226308E1,-1.320751238E0,-1.174594527E0,7.996441627E-1,1.939970856E0
1.285224108E1,-1.160274404E0,-7.204412878E-1,9.508543289E-1,1.664150323E0
1.286222008E1,-5.064007428E-1,-5.227217835E-1,1.292801839E0,1.483582276E0
1.287219808E1,-2.295470685E-2,-4.128426611E-1,1.521912121E0,1.577080367E0
1.288217708E1,4.473529279E-2,-2.052589041E-1,1.665057807E0,1.678258015E0
1.289215508E1,-6.304356819E-1,-2.160809308E-1,1.275345562E0,1.438974086E0
1.290213308E1,-1.759535948E0,-2.610559595E-1,2.541948366E-1,1.796867269E0
1.291211208E1,-2.808355113E0,7.472156882E-3,-5.652818390E-1,2.864691577E0
1.292209008E1,-3.183149942E0,3.112905586E-1,-7.958644494E-1,3.295867956E0
1.293206908E1,-2.765502039E0,3.337771958E-1,-5.022816718E-1,2.830493883E0
1.294204708E1,-2.047336487E0,1.860250729E-1,-4.876577854E-3,2.055776204E0
1.295202608E1,-1.170589769E0,6.102154255E-2,3.699824973E-1,1.229183097E0
1.296200408E1,-1.581350237E-1,-1.057240909E-1,7.376612648E-1,7.617928922E-1
1.297198308E1,9.910738170E-1,-3.076494974E-1,1.259632924E0,1.632038794E0
1.298196108E1,1.252037390E0,-8.245714277E-1,1.033338734E0,1.820797794E0
1.299194008E1,5.617455161E-1,-1.095305114E0,3.125110187E-2,1.231352081E0
1.300191808E1,2.869070846E-1,-8.310887343E-1,-3.486401602E-1,9.458192854E-1
1.301189708E1,4.900083661E-1,-6.031484807E-1,9.381744225E-2,7.827502801E-1
1.302187508E1,9.878397220E-1,-4.584526974E-1,9.198617470E-1,1.425535628E0
1.303185408E1,1.341625505E0,-4.222087312E-1,1.416838825E0,1.996409643E0
1.304183208E1,1.478143957E0,-5.100888741E-1,1.551890795E0,2.203058160E0
1.305181108E1,1.533296649E0,-6.204767042E-1,1.609434414E0,2.307871116E0
1.306178908E1,1.238338534E0,-8.577830279E-1,1.509602416E0,2.132644720E0
1.307176708E1,2.444773489E-1,-1.178819726E0,7.219288925E-1,1.403768658E0
1.308174608E1,-9.852014583E-1,-1.172260904E0,-3.003106570E-1,1.560449945E0
1.309172408E1,-1.789321665E0,-1.002326199E0,-8.897882744E-1,2.235632573E0
1.310170308E1,-1.966147313E0,-8.664193654E-1,-8.641518152E-1,2.315853219E0
1.311168108E1,-1.845069019E0,-7.611431712E-1,-5.323094630E-1,2.065665020E0
1.312166008E1,-1.724188945E0,-5.654959202E-1,-3.208438126E-1,1.842702880E0
1.313163808E1,-1.608374898E0,-4.592841715E-1,-3.129312873E-1,1.701686738E0
1.314161708E1,-1.427830421E0,-4.934661171E-1,-4.068458299E-1,1.564522946E0
1.315159508E1,-1.464131690E0,-7.403823397E-1,-6.824670573E-1,1.776966206E0
1.316157408E1,-2.018271732E0,-9.497106135E-1,-1.223843286E0,2.544241227E0
1.317155208E1,-2.850889513E0,-9.662026852E-1,-1.805394491E0,3.510066654E0
1.318153108E1,-3.453655002E0,-8.191855574E-1,-2.104781288E0,4.126609034E0
1.319150908E1,-3.691505701E0,-7.044798508E-1,-2.044674250E0,4.278340682E0
1.320148808E1,-3.549891400E0,-6.291873014E-1,-1.780892318E0,4.021092273E0
1.321146608E1,-3.069336812E0,-4.157656842E-1,-1.394806516E0,3.396936089E0
1.322144508E1,-2.333724339E0,-2.578037381E-1,-1.090267299E0,2.588709107E0
1.323142308E1,-1.696912853E0,-3.184800026E-1,-1.000718141E0,1.995590023E0
1.324140108E1,-1.584657422E0,-6.097227976E-1,-1.503117854E0,2.267656129E0
1.325138008E1,-1.910377155E0,-7.832371679E-1,-2.276977257E0,3.073699199E0
1.326135808E1,-2.536281829E0,-7.429428354E-1,-3.037047318E0,4.025959015E0
1.327133708E1,-3.213335608E0,-5.624375340E-1,-3.560404694E0,4.828907049E0
1.328131508E1,-3.665461033E0,-2.709748837E-1,-3.644341475E0,5.175930521E0
1.329129408E1,-3.842016540E0,-3.834720969E-2,-3.384830350E0,5.120511508E0
1.330127208E1,-3.730856293E0,5.343331844E-2,-3.010384015E0,4.794221075E0
1.331125108E1,-3.484425389E0,-9.223017901E-2,-2.788454114E0,4.463765568E0
1.332122908E1,-3.573110109E0,-3.369086722E-1,-2.969690902E0,4.658292322E0
1.333120808E1,-4.149164931E0,-4.396457130E-1,-3.488832436E0,5.438824298E0
1.334118608E1,-5.004563465E0,-5.784422404E-1,-4.083294293E0,6.484870328E0
1.335116508E1,-6.044693082E0,-7.893822992E-1,-4.865751150E0,7.799805967E0
1.336114308E1,-7.345462922E0,-1.007860881E0,-5.916333250E0,9.485494621E0
1.337112208E1,-8.324238290E0,-1.196931768E0,-6.874495429E0,1.086205672E1
1.338110008E1,-8.562479584E0,-1.396879062E0,-7.038791664E0,1.117192534E1
1.339107908E1,-8.432422889E0,-1.688284994E0,-6.432297406E0,1.073920444E1
1.340105708E1,-8.450310692E0,-2.067823377E0,-5.427205474E0,1.025369219E1
1.341103608E1,-8.495385708E0,-2.376573320E0,-4.618643138E0,9.957486807E0
1.342101408E1,-8.777738396E0,-2.732912875E0,-4.417622881E0,1.019965176E1
1.343099208E1,-9.683894269E0,-3.302317658E0,-5.253629708E0,1.150146666E1
1.344097108E1,-1.038005441E1,-4.007098641E0,-6.431063644E0,1.285149597E1
1.345094908E1,-1.058454207E1,-4.773428877E0,-7.310247481E0,1.372070961E1
1.346092808E1,-1.061700581E1,-5.585338744E0,-7.883462895E0,1.435499246E1
1.347090608E1,-1.003085167E1,-6.480004839E0,-7.767022612E0,1.424552871E1
1.348088508E1,-8.952874199E0,-7.637787452E0,-6.995149215E0,1.369021059E1
1.349086308E1,-7.803792243E0,-8.723496700E0,-6.048451087E0,1.317506465E1
1.350084108E1,-6.131741166E0,-9.717091836E0,-5.052952098E0,1.255198982E1
1.351081908E1,-4.293353176E0,-1.078214170E1,-4.203848969E0,1.234341150E1
1.352079808E1,-3.137708305E0,-1.160422046E1,-3.683957238E0,1.257277562E1
1.353077608E1,-2.381781435E0,-1.209281848E1,-2.845062763E0,1.264924993E1
1.354075508E1,-1.297780159E0,-1.266131987E1,-1.169811359E0,1.278130325E1
1.355073308E1,-2.655390197E-1,-1.353471847E1,6.751546025E-1,1.355414877E1
1.356071208E1,7.209558427E-1,-1.403672766E1,2.944819186E0,1.436041298E1
1.357069008E1,2.330342894E0,-1.375246176E1,6.038659340E0,1.519954306E1
1.358066908E1,4.645874791E0,-1.276725855E1,9.730895358E0,1.671159382E1
1.359064708E1,6.793215623E0,-1.118290051E1,1.347107036E1,1.877963735E1
1.360062608E1,7.865097960E0,-9.729952202E0,1.601023077E1,2.031893760E1
1.361060408E1,7.811966066E0,-8.473135298E0,1.680772082E1,2.037940909E1
1.362058208E1,6.970413154E0,-7.340954719E0,1.601288190E1,1.894435701E1
1.363056108E1,5.920412267E0,-6.608390399E0,1.431828513E1,1.684444698E1
1.364053908E1,5.705117787E0,-5.926333158E0,1.341499439E1,1.573632321E1
1.365051808E1,6.902546276E0,-4.978290755E0,1.383390880E1,1.624209213E1
1.366049608E1,8.613294811E0,-3.858768813E0,1.423847297E1,1.708253661E1
1.367047508E1,9.669794878E0,-3.069596429E0,1.341503766E1,1.681935167E1
1.368045308E1,9.766398482E0,-2.734923440E0,1.161792750E1,1.542201624E1
1.369043208E1,8.909703037E0,-2.674167361E0,9.491172965E0,1.328970818E1
1.370041008E1,7.572093399E0,-2.693199463E0,7.337120115E0,1.088224487E1
1.371038908E1,6.135847666E0,-2.720925205E0,5.381386108E0,8.602986516E0
1.372036708E1,4.935513110E0,-2.681816103E0,3.601343974E0,6.672413783E0
1.373034608E1,4.007982155E0,-2.557040030E0,2.145757406E0,5.215999378E0
1.374032408E1,3.564040493E0,-2.397585289E0,1.143612982E0,4.445070360E0
1.375030308E1,3.622779867E0,-2.162703221E0,6.323833895E-1,4.266348314E0
1.376028108E1,3.781248767E0,-1.852862188E0,5.721115331E-1,4.249500221E0
1.377026008E1,3.887782697E0,-1.517595121E0,8.844580257E-1,4.266171029E0
1.378023808E1,3.781367465E0,-1.255902400E0,1.399982471E0,4.223266706E0
1.379021608E1,3.206440863E0,-1.507965342E0,1.350539001E0,3.791988670E0
1.380019508E1,2.401090695E0,-1.525831509E0,6.440497541E-1,2.916881624E0
1.381017308E1,1.822070750E0,-9.991271871E-1,1.933299994E-1,2.087001064E0
1.382015208E1,1.458777687E0,-5.808875459E-1,5.214125919E-1,1.654488976E0
1.383013008E1,1.417615627E0,-5.047415954E-1,1.503005733E0,2.126834356E0
1.384010908E1,1.858215898E0,-6.535889018E-1,2.487279239E0,3.172806768E0
1.385008708E1,2.584280161E0,-5.701812941E-1,3.122583312E0,4.093181794E0
1.386006608E1,3.179480814E0,-5.210412937E-1,3.484872116E0,4.746042135E0
1.387004408E1,3.242881004E0,-8.705855066E-1,3.486505828E0,4.840446180E0
1.388002308E1,2.008825555E0,-1.569331285E0,2.132121699E0,3.323270036E0
1.389000108E1,3.617970532E-1,-1.390613478E0,3.181592828E-1,1.471709306E0
1.389998008E1,-1.066146803E0,-7.217615891E-1,-5.263259707E-1,1.390908993E0
1.390995808E1,-1.632975304E0,-3.212144530E-1,-1.612545133E-1,1.672061628E0
1.391993708E1,-1.221110882E0,-6.601331055E-2,9.217176533E-1,1.531350050E0
1.392991508E1,-3.471415919E-1,-1.102042276E-1,1.890591931E0,1.925354541E0
1.393989408E1,4.769673210E-1,-3.724506801E-1,2.416593418E0,2.491212774E0
1.394987208E1,1.210982920E0,-6.820689350E-1,2.665959624E0,3.006499357E0
1.395985008E1,1.829237098E0,-1.124879161E0,2.766077989E0,3.501806524E0
1.396982908E1,1.616652217E0,-1.747011212E0,2.115448948E0,3.184452358E0
1.397980708E1,5.072290009E-1,-1.880832344E0,4.172724752E-1,1.992216826E0
1.398978608E1,-6.601389527E-1,-1.530563076E0,-1.101351135E0,1.997844110E0
1.399976408E1,-1.276799764E0,-1.194378582E0,-1.632029225E0,2.391710104E0
1.400974308E1,-1.419037378E0,-1.005897093E0,-1.182909268E0,2.103513817E0
1.401972108E1,-1.338496660E0,-8.910858446E-1,-4.324051058E-1,1.665107044E0
1.402970008E1,-1.314785616E0,-7.873807973E-1,4.762326915E-2,1.533263745E0
1.403967808E1,-1.296192055E0,-7.822141975E-1,2.205406388E-1,1.529905575E0
1.404965708E1,-1.223042217E0,-9.067575520E-1,2.263433790E-1,1.539244246E0
1.405963508E1,-1.046570325E0,-1.040600903E0,1.601611205E-1,1.484523920E0
1.406961408E1,-9.404971558E-1,-1.117391801E0,-1.949847615E-1,1.473471545E0
1.407959208E1,-1.312077186E0,-1.091499746E0,-8.349584216E-1,1.900019421E0
1.408957108E1,-1.677520562E0,-9.399361154E-1,-1.114835984E0,2.222704301E0
1.409954908E1,-2.063029245E0,-8.146668291E-1,-9.950347209E-1,2.431021555E0
1.410952808E1,-2.490311020E0,-6.598047844E-1,-1.048953651E0,2.781599376E0
1.411950608E1,-2.589461086E0,-6.186035487E-1,-1.289691705E0,2.958256879E0
1.412948408E1,-2.379896293E0,-7.916551119E-1,-1.347809520E0,2.847317103E0
1.413946308E1,-2.069051877E0,-9.811943614E-1,-1.275443210E0,2.621158794E0
1.414944108E1,-1.845139770E0,-1.077111502E0,-1.128918491E0,2.416436823E0
1.415942008E1,-1.906164236E0,-1.237146286E0,-1.075648602E0,2.514162474E0
1.416939808E1,-2.377011276E0,-1.319949000E0,-1.321245035E0,3.022935066E0
1.417937708E1,-3.143490617E0,-1.213206031E0,-2.000906671E0,3.918804619E0
1.418935508E1,-3.912731012E0,-1.034314854E0,-2.637641559E0,4.830778838E0
1.419933408E1,-4.289280006E0,-9.255057719E-1,-2.787004589E0,5.198257254E0
1.420931208E1,-4.147903687E0,-8.937881353E-1,-2.332235784E0,4.841826719E0
1.421929108E1,-3.766824270E0,-8.925581735E-1,-1.681777335E0,4.220663477E0
1.422926908E1,-3.412758406E0,-9.946508512E-1,-1.525309938E0,3.868180536E0
1.423924808E1,-3.619862106E0,-1.325487775E0,-2.222658378E0,4.449778621E0
1.424922608E1,-4.272404941E0,-1.507396115E0,-3.346692470E0,5.632587107E0
1.425920508E1,-5.228244022E0,-1.560457112E0,-4.343939778E0,6.974193483E0
1.426918308E1,-6.237876901E0,-1.582738512E0,-5.051823585E0,8.181509088E0
1.427916208E1,-7.350407327E0,-1.590567788E0,-5.493099502E0,9.313030436E0
1.428914008E1,-8.858325891E0,-1.673771035E0,-5.958040270E0,1.080600254E1
1.429911908E1,-1.118568027E1,-1.523120155E0,-6.661153334E0,1.310764288E1
1.430909708E1,-1.419174670E1,-1.316786094E0,-7.523960874E0,1.611674866E1
1.431907508E1,-1.718232737E1,-1.439856974E0,-7.619552325E0,1.885107794E1
1.432905408E1,-2.078769832E1,-2.049810883E0,-7.025823124E0,2.203842818E1
1.433903208E1,-2.501166142E1,-2.753402395E0,-6.538698020E0,2.599844233E1
1.434901108E1,-2.831426471E1,-3.514488264E0,-6.964594590E0,2.936928314E1
1.435898908E1,-2.941688820E1,-5.008660609E0,-7.316409861E0,3.072409227E1
1.436896808E1,-2.803454561E1,-8.128833114E0,-6.011163978E0,2.980180813E1
1.437894608E1,-2.393830909E1,-1.186861635E1,-3.114467377E0,2.689993686E1
1.438892508E1,-1.867381760E1,-1.436943891E1,-1.722115376E-1,2.356314697E1
1.439890308E1,-1.363842235E1,-1.587201897E1,2.193521556E0,2.104136609E1
1.440888208E1,-9.378355617E0,-1.687998305E1,4.333324158E0,1.979053006E1
1.441886008E1,-5.917260618E0,-1.761024181E1,6.571754084E0,1.970590119E1
1.442883908E1,-2.226999789E0,-1.782230395E1,8.438917392E0,1.984463084E1
1.443881708E1,1.155256616E0,-1.762491365E1,9.631340080E0,2.011802452E1
1.444879608E1,3.745102157E0,-1.787810978E1,9.742440686E0,2.070187793E1
1.445877408E1,6.679033535E0,-1.802978188E1,9.466772534E0,2.143133933E1
1.446875308E1,1.081680634E1,-1.787073527E1,1.009808998E1,2.320210981E1
1.447873108E1,1.500453424E1,-1.673786063E1,1.049502236E1,2.480801323E1
1.448871008E1,1.818394255E1,-1.475682396E1,9.442051676E0,2.525018732E1
1.449868954E1,1.941901716E1,-1.267098649E1,7.622370098E0,2.440804482E1
1.450866854E1,1.881685569E1,-1.107008199E1,6.429940394E0,2.275884239E1
1.451864654E1,1.763519071E1,-9.862914963E0,6.118707722E0,2.111197829E1
1.452862454E1,1.604700976E1,-8.603438745E0,6.394386399E0,1.929802730E1
1.453860354E1,1.378063365E1,-7.506011676E0,6.610365003E0,1.702771272E1
1.454858154E1,1.149245561E1,-6.684705918E0,6.268436204E0,1.469881361E1
1.455856054E1,9.476188306E0,-6.020789080E0,5.546285191E0,1.252235303E1
1.456853854E1,7.551948572E0,-5.565016746E0,4.721756448E0,1.050220560E1
1.457851754E1,5.787888048E0,-5.173251543E0,4.084017009E0,8.771623254E0
1.458849554E1,4.293725059E0,-4.625082092E0,3.791338722E0,7.362180964E0
1.459847454E1,3.051162789E0,-4.024380087E0,3.706497962E0,6.264451819E0
1.460845254E1,2.096936371E0,-3.304094920E0,3.497136067E0,5.248251714E0
1.461843154E1,1.401322946E0,-2.639589851E0,3.006427204E0,4.239073615E0
1.462840954E1,8.253020373E-1,-2.066049331E0,2.426479890E0,3.292034014E0
1.463838854E1,4.492629209E-1,-1.570218308E0,2.205960338E0,2.744755676E0
1.464836654E1,2.329342143E-1,-1.395916318E0,2.034538102E0,2.478343399E0
1.465834554E1,-7.249144077E-2,-1.528139990E0,1.383987413E0,2.062980368E0
1.466832354E1,-4.306065023E-2,-1.287817672E0,9.915584781E-1,1.625889539E0
1.467830254E1,2.286623847E-1,-9.273841900E-1,1.081531340E0,1.442926873E0
1.468828054E1,9.096408141E-1,-5.398775142E-1,1.414360775E0,1.766162660E0
1.469825854E1,1.631467892E0,-8.540267766E-2,1.968160509E0,2.557857871E0
1.470823754E1,1.983615870E0,1.007931340E-1,2.732419662E0,3.378018411E0
1.471821554E1,1.745530989E0,2.197383642E-2,3.278055514E0,3.713894080E0
1.472819454E1,1.372996402E0,-1.320581961E-1,3.320563602E0,3.595650306E0
1.473817254E1,1.027161078E0,-3.933813733E-1,3.002155813E0,3.197303287E0
1.474815154E1,7.837891451E-1,-7.495586675E-1,2.414393696E0,2.646783054E0
1.475812954E1,6.759463155E-1,-1.029187723E0,1.825570309E0,2.202007662E0
1.476810854E1,6.936218637E-1,-1.247741441E0,1.236466255E0,1.888602339E0
1.477808654E1,7.129840413E-1,-1.343821135E0,5.614016998E-1,1.621534259E0
1.478806554E1,5.845900029E-1,-1.264016581E0,1.089874951E-1,1.396911473E0
1.479804354E1,4.232021731E-1,-1.060453370E0,2.185151267E-1,1.162501737E0
1.480802254E1,4.684549445E-1,-8.505190319E-1,5.687242410E-1,1.125291038E0
1.481800054E1,7.859909141E-1,-7.030937684E-1,8.727536541E-1,1.368876001E0
1.482797954E1,1.153103671E0,-7.594971800E-1,1.144969025E0,1.793721860E0
1.483795754E1,1.004622400E0,-1.084224640E0,1.143907097E0,1.869045929E0
1.484793654E1,4.075889379E-1,-1.297526974E0,7.724627960E-1,1.564098386E0
1.485791454E1,-5.593855798E-2,-1.337679219E0,4.184092835E-1,1.402704938E0
1.486789254E1,-4.249873281E-1,-1.460504662E0,2.932009544E-1,1.549081953E0
1.487787154E1,-7.548042047E-1,-1.558308699E0,2.602753562E-1,1.750942218E0
1.488784954E1,-8.066789478E-1,-1.527146548E0,4.851644596E-1,1.793959882E0
1.489782854E1,-5.413685542E-1,-1.423749649E0,1.076510920E0,1.865212786E0
1.490780654E1,-1.134348142E-1,-1.306694239E0,1.710546221E0,2.155524453E0
1.491778554E1,2.006857967E-1,-1.179656462E0,2.056799621E0,2.379556437E0
1.492776354E1,2.513554287E-1,-1.032037071E0,2.028756375E0,2.290007095E0
1.493774254E1,1.430345893E-2,-7.566706359E-1,1.739479998E0,1.896983317E0
1.494772054E1,-5.675512165E-1,-5.993091989E-1,1.306764844E0,1.545613230E0
1.495769954E1,-1.380669703E0,-4.970963609E-1,7.275538409E-1,1.637891392E0
1.496767754E1,-2.233448684E0,-3.913781172E-1,2.258169834E-1,2.278697690E0
1.497765654E1,-2.691890856E0,-4.020592260E-1,6.099362209E-2,2.722434246E0
1.498763454E1,-2.646234627E0,-4.375500709E-1,2.708744578E-1,2.695807993E0
1.499761354E1,-2.201766715E0,-4.080748415E-1,6.930896209E-1,2.344072304E0
1.500759154E1,-1.664482441E0,-4.395214596E-1,1.056673072E0,2.019960121E0
1.501757054E1,-1.261660153E0,-5.950457016E-1,9.951797318E-1,1.713548490E0
1.502754854E1,-1.332795040E0,-7.481892496E-1,2.449310198E-1,1.547940883E0
1.503752654E1,-1.766933845E0,-6.490041000E-1,-6.741576523E-1,1.999437440E0
1.504750554E1,-2.063609873E0,-4.373188135E-1,-1.344107502E0,2.501271363E0
1.505748354E1,-2.190859319E0,-2.806236666E-1,-1.700055293E0,2.787257110E0
1.506746254E1,-2.452550286E0,-2.614588326E-1,-2.008788864E0,3.180974116E0
1.507744054E1,-2.724680287E0,-3.400261152E-1,-2.308270971E0,3.587145843E0
1.508741954E1,-2.886292650E0,-5.076821601E-1,-2.623070297E0,3.933055329E0
1.509739754E1,-2.862156513E0,-7.830728611E-1,-2.846982989E0,4.112232380E0
1.510737654E1,-2.767191299E0,-1.033596523E0,-3.178752251E0,4.339370384E0
1.511735454E1,-2.848454733E0,-1.153967597E0,-3.726022984E0,4.829967170E0
1.512733354E1,-3.439994152E0,-1.263295619E0,-4.489787170E0,5.795486556E0
1.513731154E1,-4.466524315E0,-1.351499406E0,-5.654366879E0,7.331320134E0
1.514729054E1,-5.377860821E0,-1.321026057E0,-6.910911303E0,8.855912821E0
1.515726854E1,-5.938745627E0,-1.392935407E0,-7.685808295E0,9.812268740E0
1.516724754E1,-6.041535586E0,-1.550062371E0,-7.711191643E0,9.917929327E0
1.517722554E1,-5.960751039E0,-1.589118263E0,-7.024909204E0,9.349074774E0
1.518720454E1,-5.939097630E0,-1.567736750E0,-6.337219926E0,8.825589814E0
1.519718254E1,-5.867754582E0,-1.706348213E0,-6.241497497E0,8.734898915E0
1.520716154E1,-6.029668661E0,-2.020145180E0,-6.893584834E0,9.378667420E0
1.521713954E1,-6.619714116E0,-2.386648511E0,-8.120190929E0,1.074496193E1
1.522711854E1,-7.789468319E0,-2.690236679E0,-9.367088617E0,1.247619891E1
1.523709654E1,-9.503072634E0,-2.715688731E0,-9.887419474E0,1.398014373E1
1.524707454E1,-1.144308289E1,-2.716761988E0,-9.553904818E0,1.515262482E1
1.525705354E1,-1.316771564E1,-2.892610567E0,-9.004764145E0,1.621239367E1
1.526703154E1,-1.459605126E1,-3.317749338E0,-8.819169427E0,1.737325308E1
1.527701054E1,-1.576698192E1,-3.875756144E0,-9.530288499E0,1.882672578E1
1.528698854E1,-1.664589913E1,-4.607484312E0,-1.074828983E1,2.034307262E1
1.529696754E1,-1.755282800E1,-5.484212319E0,-1.112389392E1,2.149230959E1
1.530694554E1,-1.752312999E1,-6.516065787E0,-9.363836980E0,2.090934339E1
1.531692454E1,-1.631085952E1,-7.810254001E0,-6.064813936E0,1.907422800E1
1.532690254E1,-1.421432280E1,-9.187925252E0,-2.996752986E0,1.718852733E1
1.533688154E1,-1.128922277E1,-1.045969115E1,-7.502346057E-1,1.540826212E1
1.534685954E1,-8.291612581E0,-1.152705827E1,8.646125758E-1,1.422573254E1
1.535683854E1,-5.838367061E0,-1.245240353E1,2.149090465E0,1.392003856E1
1.536681654E1,-3.484163434E0,-1.322050547E1,4.150503944E0,1.428803145E1
1.537679554E1,-1.223962569E0,-1.411823902E1,7.130083657E0,1.586382206E1
1.538677354E1,1.574323053E0,-1.518050152E1,1.007559106E1,1.828780070E1
1.539675254E1,5.163045228E0,-1.513741923E1,1.306768031E1,2.065339598E1
1.540673054E1,9.243673190E0,-1.430652989E1,1.641791970E1,2.365735359E1
1.541670954E1,1.223866675E1,-1.294034432E1,1.842316383E1,2.562519152E1
1.542668754E1,1.337310494E1,-1.152509828E1,1.750622336E1,2.486233461E1
1.543666554E1,1.323111232E1,-1.045366150E1,1.468893194E1,2.236305198E1
1.544664454E1,1.279131283E1,-9.653132653E0,1.132860260E1,1.962493034E1
1.545662254E1,1.248667523E1,-8.789678410E0,8.627196566E0,1.753864378E1
1.546660154E1,1.206357071E1,-7.828768040E0,7.099347768E0,1.603808237E1
1.547657954E1,1.156753035E1,-6.979812554E0,6.641490317E0,1.505439920E1
1.548655854E1,1.118262218E1,-6.123227620E0,6.538279359E0,1.432808613E1
1.549653867E1,1.048285080E1,-5.397758312E0,6.157891084E0,1.330208924E1
1.550651767E1,9.366188731E0,-4.792759772E0,5.275135767E0,1.176958346E1
1.551649567E1,8.160895151E0,-4.354713272E0,4.224941922E0,1.016926111E1
1.552647467E1,7.010330926E0,-3.772047588E0,3.471741317E0,8.684818390E0
1.553645267E1,5.862328366E0,-3.066273456E0,3.055691165E0,7.287398389E0
1.554643167E1,4.777536254E0,-2.506358703E0,2.933736373E0,6.141131468E0
1.555640967E1,3.728542257E0,-2.240157194E0,2.791433563E0,5.168407197E0
1.556638867E1,2.901008922E0,-2.057276754E0,2.650590510E0,4.435523696E0
1.557636667E1,2.528650044E0,-1.737194322E0,2.918555540E0,4.234369090E0
1.558634567E1,2.539036453E0,-1.476389208E0,3.489869732E0,4.561318005E0
1.559632367E1,2.606165997E0,-1.588851045E0,3.673169125E0,4.775847597E0
1.560630167E1,2.569801870E0,-1.857320105E0,3.195685202E0,4.501768934E0
1.561628067E1,2.563122596E0,-1.851699176E0,2.532739002E0,4.051315111E0
1.562625867E1,2.491458244E0,-1.884025508E0,1.889123988E0,3.650439116E0
1.563623767E1,2.465948888E0,-1.826289516E0,1.654711744E0,3.486302952E0
1.564621567E1,2.464872416E0,-1.615783905E0,1.982935693E0,3.552236988E0
1.565619467E1,2.377933090E0,-1.561504202E0,2.537822278E0,3.812270068E0
1.566617267E1,2.161843681E0,-1.640819344E0,2.829648333E0,3.920811894E0
1.567615167E1,1.872614667E0,-1.729316368E0,2.961272081E0,3.907218081E0
1.568612967E1,1.618802823E0,-2.045735520E0,2.985141000E0,3.964419653E0
1.569610867E1,1.169277654E0,-2.574526713E0,2.612661376E0,3.849856815E0
1.570608667E1,6.794289172E-1,-2.906600030E0,1.809689856E0,3.490691158E0
1.571606567E1,8.987416041E-1,-2.624830309E0,1.084029928E0,2.978689562E0
1.572604367E1,1.696834500E0,-2.189002828E0,7.115321776E-1,2.859590660E0
1.573602267E1,2.339279194E0,-2.068442012E0,3.566256295E-1,3.142906512E0
1.574600067E1,2.486552430E0,-2.054280640E0,-4.211237803E-2,3.225644957E0
1.575597967E1,2.178869019E0,-1.970461389E0,-3.344936259E-1,2.956699895E0
1.576595767E1,1.392147202E0,-1.950216574E0,-4.170223971E-1,2.432144362E0
1.577593667E1,4.203721207E-1,-1.823902098E0,-2.232654047E-1,1.884987805E0
1.578591467E1,-5.348383838E-1,-1.664244459E0,-2.684275442E-1,1.768562994E0
1.579589267E1,-1.346986232E0,-1.485535423E0,-4.400339681E-1,2.053002020E0
1.580587167E1,-1.769365118E0,-1.183843068E0,-2.581317669E-1,2.144474140E0
1.581584967E1,-1.817674229E0,-9.367479211E-1,-1.586906554E-1,2.051004386E0
1.582582867E1,-1.663267974E0,-7.362889963E-1,-2.516799492E-1,1.836280109E0
1.583580667E1,-1.628917336E0,-5.825896704E-1,-6.355783081E-1,1.843025284E0
1.584578567E1,-1.918462685E0,-4.527218413E-1,-1.035283007E0,2.226492093E0
1.585576367E1,-2.701463917E0,-2.640228367E-1,-1.211374683E0,2.972380188E0
1.586574267E1,-3.828754470E0,-3.238948166E-2,-1.095980467E0,3.982660299E0
1.587572067E1,-4.675757571E0,2.119899264E-1,-8.023672110E-1,4.748835830E0
1.588569967E1,-4.864996859E0,4.309219596E-1,-3.713572508E-1,4.898141931E0
1.589567767E1,-4.554293361E0,4.818734273E-1,2.535557359E-2,4.579785248E0
1.590565667E1,-4.013618286E0,4.946519324E-1,2.074314371E-1,4.049301185E0
1.591563467E1,-3.587463854E0,4.619759372E-1,1.757959539E-1,3.621356498E0
1.592561367E1,-3.301803396E0,2.997241813E-1,-1.375288510E-1,3.318230618E0
1.593559167E1,-3.381178179E0,-3.738534272E-2,-7.927081954E-1,3.473060585E0
1.594557067E1,-4.276731296E0,-2.792270592E-1,-1.865075267E0,4.674067188E0
1.595554867E1,-5.224978936E0,-7.512824267E-2,-2.716849111E0,5.889594063E0
1.596552767E1,-5.921890444E0,1.262296915E-1,-3.084702711E0,6.678331466E0
1.597550567E1,-6.222166602E0,2.306871293E-1,-2.816483912E0,6.833824361E0
1.598548367E1,-6.124614580E0,2.654961888E-1,-2.318301577E0,6.554076150E0
1.599546267E1,-5.905277334E0,5.040212184E-1,-2.156810105E0,6.306993548E0
1.600544067E1,-5.552511891E0,3.081681454E-1,-2.325897256E0,6.027864792E0
1.601541967E1,-5.296821921E0,1.673034579E-3,-2.564131533E0,5.884819095E0
1.602539767E1,-5.325288506E0,-2.151138014E-1,-3.106069021E0,6.168681900E0
1.603537667E1,-6.142972498E0,-4.681548361E-1,-3.627807888E0,7.149564332E0
1.604535467E1,-7.335004592E0,-6.490785058E-1,-3.998310860E0,8.379145840E0
1.605533367E1,-8.140601220E0,-7.114748749E-1,-4.218628099E0,9.196325775E0
1.606531167E1,-8.318957085E0,-8.192254646E-1,-4.254054040E0,9.379400467E0
1.607529067E1,-7.922197775E0,-1.075013229E0,-4.280398670E0,9.068554670E0
1.608526867E1,-7.610287412E0,-1.454711094E0,-4.592050586E0,9.006641297E0
1.609524767E1,-7.506117511E0,-1.859446152E0,-5.214495463E0,9.326859226E0
1.610522567E1,-7.595779885E0,-2.424509232E0,-6.050622159E0,1.000920304E1
1.611520467E1,-7.839062648E0,-3.128311245E0,-7.105946351E0,1.103320932E1
1.612518267E1,-8.361882080E0,-3.886234062E0,-8.358504728E0,1.244542038E1
1.613516167E1,-8.761880747E0,-4.524490687E0,-9.224998938E0,1.350341348E1
1.614513967E1,-8.940162937E0,-4.962178752E0,-9.192791305E0,1.374980521E1
1.615511767E1,-9.160471405E0,-5.207318591E0,-8.597548259E0,1.359956762E1
1.616509667E1,-9.558707137E0,-5.412161173E0,-7.965057281E0,1.356843794E1
1.617507467E1,-1.015601483E1,-6.058544551E0,-7.745120112E0,1.413638868E1
