"Time (s)","Linear Acceleration x (m/s^2)","Linear Acceleration y (m/s^2)","Linear Acceleration z (m/s^2)","Absolute acceleration (m/s^2)"
7.377541666E-3,-4.168384108E-2,-2.921917615E-4,1.344292420E-1,1.407439132E-1
1.741454167E-2,-7.804529979E-2,-4.341498236E-2,1.033963144E-2,8.990460217E-2
2.745154167E-2,-6.639736298E-2,-7.135529936E-2,-3.546394765E-2,1.037202012E-1
3.748854167E-2,-5.502977276E-2,-7.276681265E-2,-1.735278189E-2,9.286766904E-2
4.752554167E-2,-7.625691975E-2,-2.968023825E-2,3.339286387E-2,8.838052788E-2
5.756254167E-2,-1.749009096E-2,1.953683114E-2,1.662772715E-2,3.104951470E-2
6.759954167E-2,5.824490083E-2,2.350852953E-2,2.515823007E-2,6.766133293E-2
7.763654167E-2,5.953211968E-2,4.206703013E-2,3.024764657E-2,7.892166002E-2
8.767354167E-2,4.699495842E-2,8.965827207E-2,5.913698494E-2,1.172361500E-1
9.771054167E-2,1.231994634E-2,7.731103568E-2,7.126177132E-2,1.058632012E-1
1.077475417E-1,1.702822488E-2,3.166323007E-2,5.644141853E-2,6.691901304E-2
1.177845417E-1,-1.673605596E-2,-3.970835013E-3,3.712923467E-2,4.091996050E-2
1.278215417E-1,-8.018290479E-2,-4.746829509E-2,2.694923222E-2,9.699896070E-2
1.378585417E-1,-8.678084811E-2,-4.129904861E-2,3.907577276E-2,1.037470146E-1
1.478955417E-1,-5.695352498E-2,-2.985694750E-2,2.515647590E-2,6.905063071E-2
1.579325417E-1,-3.562039722E-2,-3.370345609E-2,-2.235975266E-3,4.908905413E-2
1.679695417E-1,-1.982724133E-2,1.239973799E-2,3.024764657E-2,3.823340325E-2
1.780065417E-1,2.614322095E-2,3.377257200E-2,5.854056895E-2,7.246414861E-2
1.880435417E-1,5.024373539E-2,5.794176838E-2,5.030885875E-2,9.172056878E-2
1.980805417E-1,5.683133645E-2,5.841061915E-2,4.821087778E-2,9.468838349E-2
2.081175417E-1,2.896339701E-2,3.221247091E-2,4.506507576E-2,6.250906096E-2
2.181545417E-1,1.073906022E-2,1.146253439E-2,1.317903936E-2,2.050376032E-2
2.281915417E-1,-4.876139313E-3,3.758745538E-3,1.946596563E-2,2.041638363E-2
2.382285417E-1,-1.794199850E-3,-4.614248006E-3,3.263857305E-2,3.301192040E-2
2.482655417E-1,-4.166650043E-2,-2.300925041E-4,2.485709846E-2,4.851830113E-2
2.583015417E-1,-3.100837846E-2,-1.515356186E-3,5.180399179E-2,6.039428288E-2
2.683385417E-1,2.105866495E-2,2.714516876E-2,2.321286142E-2,4.146280854E-2
2.783755417E-1,-1.552309675E-2,1.552784761E-2,5.195484996E-2,5.640378550E-2
2.884125417E-1,1.116555979E-2,1.696533990E-2,3.122413158E-4,2.031231099E-2
2.984495417E-1,2.859889621E-2,2.679041179E-2,4.926045299E-2,6.294612980E-2
3.084865417E-1,2.166361422E-2,1.810234469E-2,2.231706798E-2,3.598692245E-2
3.185235417E-1,-1.214044595E-2,1.259118405E-2,3.758473277E-2,4.145528291E-2
3.285605417E-1,-3.552148791E-2,-2.099520895E-2,4.641812146E-2,6.210649645E-2
3.385975417E-1,-4.017575280E-2,-1.362020264E-2,1.558107555E-2,4.519259838E-2
3.486345417E-1,-1.943139397E-2,-1.354664193E-2,4.102815807E-2,4.737510246E-2
3.586715417E-1,-2.483084994E-2,1.167791292E-2,3.189773083E-2,4.207624022E-2
3.687085417E-1,-1.090030633E-2,1.107935447E-2,-1.465721548E-2,2.136358441E-2
3.787455417E-1,6.003171857E-4,-1.912268382E-2,4.476803720E-2,4.868484951E-2
3.887825417E-1,1.789959705E-2,4.521113737E-2,6.273068368E-2,7.936990105E-2
3.988195417E-1,2.282234964E-2,9.011865808E-2,9.581247568E-2,1.335000475E-1
4.088565417E-1,6.020891662E-2,4.854569026E-2,-6.124958396E-3,7.758423035E-2
4.188935417E-1,7.405068305E-2,-1.726517872E-2,-7.324807048E-3,7.638876132E-2
4.289305417E-1,-1.057487223E-3,-2.586268251E-2,4.072585702E-2,4.825548731E-2
4.389675417E-1,-7.389328332E-2,2.590181317E-2,1.857075691E-2,8.047356247E-2
4.490045417E-1,-9.378265131E-2,-2.331678654E-2,6.347737312E-2,1.156210842E-1
4.590415417E-1,-8.588619671E-2,-8.015284644E-2,1.497822762E-2,1.184283111E-1
4.690785417E-1,-6.835309217E-2,-5.163651018E-2,1.857251108E-2,8.765507721E-2
4.791155417E-1,-2.758821412E-2,3.048956598E-2,3.923306286E-2,5.683270549E-2
4.891525417E-1,3.068885554E-2,6.840940360E-2,3.639014661E-2,8.334203696E-2
4.991895417E-1,7.623354002E-2,4.640223804E-2,2.441504896E-2,9.252467203E-2
5.092265417E-1,6.043778943E-2,4.094260599E-2,7.350534797E-3,7.336929697E-2
5.192635417E-1,3.040654466E-2,6.371728255E-2,5.689691663E-2,9.067364102E-2
5.293005417E-1,-6.356581226E-3,4.887640969E-2,4.222508311E-2,6.490198142E-2
5.393375417E-1,-3.168180412E-2,-1.006792320E-2,5.105496347E-2,6.092379736E-2
5.493745417E-1,-6.734746244E-2,-5.915788417E-2,2.006822884E-2,9.185896671E-2
5.594115417E-1,-8.932855306E-2,-5.739596735E-2,3.952893198E-2,1.132979432E-1
5.694485417E-1,-6.729103681E-2,-1.793796484E-2,4.267473400E-2,8.167611119E-2
5.794855417E-1,-3.849596651E-2,-7.331403438E-3,-5.074213743E-3,3.951501688E-2
5.895225417E-1,-8.230760023E-3,-2.204761641E-2,3.055287123E-2,3.856579754E-2
5.995595417E-1,1.770037145E-2,2.624952151E-2,2.755968153E-2,4.197471352E-2
6.095965417E-1,3.439786320E-2,8.911489215E-2,4.342785537E-2,1.049316712E-1
6.196325417E-1,6.046626720E-2,8.010975977E-2,-7.615998387E-3,1.006565771E-1
6.296695417E-1,4.003254170E-2,-9.086408671E-3,1.064251721E-2,4.240790480E-2
6.397065417E-1,-2.822462873E-2,-1.538427563E-2,9.102477551E-2,9.653401141E-2
6.497435417E-1,-6.991350389E-2,4.778448328E-2,2.366543591E-2,8.792785523E-2
6.597805417E-1,-2.350281936E-2,-1.338170477E-2,6.183605969E-2,6.749185742E-2
6.698175417E-1,-2.683217827E-2,-7.858120624E-2,-3.321803212E-2,8.943382706E-2
6.798545417E-1,-5.039367079E-2,-5.419645774E-2,5.869025767E-2,9.445276297E-2
6.898915417E-1,-5.460827988E-2,3.613252651E-2,6.543034315E-2,9.256756186E-2
6.999285417E-1,2.790836745E-2,5.915892571E-2,3.444594741E-2,7.392684734E-2
7.099655417E-1,6.825125925E-2,1.741802403E-2,4.073170424E-2,8.136764517E-2
7.200026250E-1,4.919953231E-2,3.623264638E-2,-4.176666141E-3,6.124412774E-2
7.300396250E-1,4.609775799E-2,7.382806402E-2,9.551660657E-2,1.292246434E-1
7.400766250E-1,5.790987365E-2,8.620204685E-2,-6.571100950E-3,1.040553973E-1
7.501136250E-1,5.418792902E-2,1.632274461E-2,3.234445810E-2,6.518379870E-2
7.601506250E-1,-9.015109185E-3,-2.275313779E-2,8.541612625E-3,2.592174028E-2
7.701876250E-1,-6.696811519E-2,-2.987274868E-2,3.638196051E-2,8.185814936E-2
7.802246250E-1,-8.990050212E-2,-2.641829133E-2,3.368756354E-2,9.957348209E-2
7.902616250E-1,-4.749997512E-2,-4.245707139E-2,2.021557868E-2,6.683951054E-2
8.002986250E-1,-5.166683804E-2,-6.659476133E-2,1.213238776E-2,8.515585255E-2
8.103356250E-1,-4.802981509E-2,-1.464085241E-2,3.533413947E-2,6.139803831E-2
8.203726250E-1,-3.388004657E-3,4.676148092E-2,5.509363532E-2,7.234240338E-2
8.304096250E-1,5.045720444E-2,5.759937279E-2,1.123542488E-2,7.739413413E-2
8.404466250E-1,4.558495718E-2,4.511740834E-2,3.219009161E-2,7.176190392E-2
8.504836250E-1,2.777593715E-2,3.823680238E-2,5.015039921E-2,6.891021899E-2
8.605206250E-1,-4.600324323E-3,3.778092513E-2,3.383374393E-2,5.092429200E-2
8.705576250E-1,-2.054233753E-2,1.220366897E-2,3.727541506E-2,4.427610796E-2
8.805946250E-1,-3.178106974E-2,-8.552617268E-3,3.098731935E-2,4.520395576E-2
8.906316250E-1,-5.860647803E-2,-4.373498037E-2,4.460840821E-2,8.565849554E-2
9.006686250E-1,-7.875193580E-2,-2.453204809E-2,3.442957520E-2,8.938167835E-2
9.107056250E-1,-3.881451186E-2,1.009713187E-2,4.056915164E-2,5.704712497E-2
9.207426250E-1,1.954211648E-2,1.654149442E-2,2.724627078E-2,3.738816157E-2
9.307796250E-1,3.282514491E-2,2.816485922E-2,3.188720584E-2,5.373586632E-2
9.408166250E-1,1.524057574E-2,3.139841516E-2,4.101938725E-2,5.385838610E-2
9.508536250E-1,3.482769750E-2,4.792175123E-2,2.994183719E-2,6.637752910E-2
9.608906250E-1,3.850283699E-2,3.595406310E-2,4.969899416E-2,7.242342943E-2
9.709276250E-1,7.504613497E-3,3.186066039E-2,3.996630371E-2,5.165971677E-2
9.809646250E-1,-3.195674202E-2,4.699032633E-3,3.367820799E-2,4.666407571E-2
9.910016250E-1,-4.216092363E-2,-1.598157328E-2,1.840820432E-2,4.870129517E-2
1.001038625E0,-3.364291913E-2,-4.441006426E-2,3.412376583E-2,6.533399735E-2
1.011075625E0,-4.105594605E-2,-1.270945312E-2,4.115972042E-2,5.950834807E-2
1.021112625E0,-3.906644463E-2,-4.287128267E-3,4.684847653E-2,6.115019475E-2
1.031148625E0,-5.725374296E-3,-2.364687100E-3,2.514478147E-2,2.589655751E-2
1.041185625E0,3.197970605E-2,2.206837402E-2,2.140256345E-2,4.435971656E-2
1.051222625E0,3.325859718E-2,3.585202918E-2,2.484540403E-2,5.485249661E-2
1.061259625E0,1.978781374E-2,4.882307212E-2,3.382614255E-2,6.260557374E-2
1.071296625E0,8.548528785E-3,2.441087825E-2,3.098088741E-2,4.035819255E-2
1.081333625E0,3.963964535E-3,3.155568698E-2,4.609827876E-2,5.600469356E-2
1.091370625E0,-2.503881896E-2,-2.884212211E-3,3.322329462E-2,4.170189972E-2
1.101407625E0,-6.125549970E-2,-2.411371635E-2,3.726489007E-2,7.564641163E-2
1.111444625E0,-5.304354213E-2,-2.456737349E-2,2.184812129E-2,6.240603821E-2
1.121481625E0,-2.429358219E-2,-1.738084396E-2,3.487162471E-2,4.591625074E-2
1.131518625E0,-2.600611745E-2,-1.283107064E-2,3.337766111E-2,4.421563954E-2
1.141555625E0,-8.740943293E-3,4.205564177E-3,4.131291747E-2,4.243639958E-2
1.151592625E0,2.250063401E-3,2.147192148E-2,3.263214111E-2,3.912752012E-2
1.161629625E0,3.384351974E-2,2.746402017E-2,3.353027344E-2,5.499032160E-2
1.171666625E0,3.468559646E-2,2.834601784E-2,1.870933592E-2,4.854509841E-2
1.181703625E0,7.766925073E-3,3.387790868E-2,2.245038450E-2,4.137701760E-2
1.191740625E0,1.152166435E-2,2.530561645E-2,-5.093509555E-3,2.826776986E-2
1.201777625E0,4.777677683E-4,4.427164514E-3,2.035415769E-2,2.083554134E-2
1.211814625E0,-2.080051037E-2,-1.098917944E-2,3.517334104E-2,4.231533075E-2
1.221851625E0,-2.707256736E-2,-2.411599585E-2,2.229952633E-2,4.256493902E-2
1.231888625E0,-3.349907763E-2,-1.501816227E-2,2.993423581E-2,4.736868030E-2
1.241925625E0,-2.239450704E-2,-4.815410497E-4,1.661310911E-2,2.788801215E-2
1.251962625E0,-1.147530233E-2,7.283328362E-3,1.795972288E-2,2.252290127E-2
1.261999625E0,6.090158327E-3,1.375158684E-2,2.993540525E-2,3.350111426E-2
1.272036625E0,2.083678595E-2,2.037317484E-2,4.280863523E-2,5.178626413E-2
1.282073625E0,4.036909921E-2,2.512005414E-2,2.798945189E-2,5.517327893E-2
1.292110625E0,2.539554023E-2,3.472785629E-2,3.367645383E-2,5.463571184E-2
1.302147625E0,-7.050138661E-3,8.428889271E-3,2.738777339E-2,2.951001120E-2
1.312184625E0,-2.386006596E-2,-2.128934674E-4,4.714668453E-2,5.284087370E-2
1.322221625E0,-1.688476253E-2,-1.438195780E-3,4.041010737E-2,4.381940655E-2
1.332258625E0,-2.874852098E-2,-1.525716264E-2,4.025983393E-2,5.176980489E-2
1.342295625E0,-3.227077862E-2,-1.506642464E-2,2.289652705E-2,4.233971251E-2
1.352332625E0,-2.935053294E-2,-3.689337261E-3,2.978337765E-2,4.197754849E-2
1.362369625E0,-8.784706048E-3,3.087613089E-3,2.828765988E-2,2.978080114E-2
1.372406625E0,3.420607452E-3,1.203542448E-2,3.801742673E-2,4.002345228E-2
1.382443625E0,2.394410599E-2,1.823414002E-2,2.708956540E-2,4.049257496E-2
1.392480625E0,1.894222413E-2,3.759761035E-2,2.244863033E-2,4.771089145E-2
1.402517625E0,1.965881411E-2,2.823902293E-2,2.738660395E-2,4.397655585E-2
1.412554625E0,-3.762441161E-3,2.092584179E-2,2.753570795E-2,3.478882048E-2
1.422591625E0,6.974485740E-3,9.112273464E-3,3.307419062E-2,3.500827136E-2
1.432628625E0,-2.914260504E-2,3.536802591E-3,1.885376215E-2,3.488932141E-2
1.442664625E0,-3.090139726E-2,-6.318222578E-3,1.106994867E-2,3.342693603E-2
1.452701625E0,-1.233625915E-2,-8.788895030E-3,3.008041620E-2,3.367876786E-2
1.462738625E0,-2.068732564E-2,-1.673375362E-2,2.558975458E-2,3.691638514E-2
1.472775625E0,-1.471927819E-2,6.116023120E-3,3.022952020E-2,3.417435853E-2
1.482812625E0,8.951799371E-3,5.388930989E-3,2.663582146E-2,2.861192538E-2
1.492849625E0,-5.376103660E-4,-1.961731715E-3,3.112589836E-2,3.119229015E-2
1.502886625E0,3.997348482E-4,2.800533530E-2,3.583758473E-3,2.823653516E-2
1.512923625E0,-8.235981404E-3,1.779280314E-2,2.468928337E-2,3.152738408E-2
1.522960625E0,-1.090441765E-2,8.662115517E-3,1.690546989E-2,2.190281904E-2
1.532997625E0,-2.216905120E-2,1.571526915E-2,3.651352286E-2,4.551564420E-2
1.543034625E0,-1.576208342E-2,-7.640574966E-4,4.100476921E-2,4.393652416E-2
1.553071625E0,-1.997311566E-2,5.690839179E-3,3.426877677E-2,4.007068830E-2
1.563108625E0,1.517882366E-3,-5.028148647E-5,3.396939933E-2,3.400333199E-2
1.573145625E0,-1.702997447E-2,1.527876993E-2,2.019803703E-2,3.051919955E-2
1.583182625E0,1.265143321E-2,1.996130702E-2,4.085508049E-2,4.719798875E-2
1.593219625E0,2.859723341E-2,1.614586633E-2,2.708313346E-2,4.256743915E-2
1.603256625E0,-1.237244794E-2,1.243080132E-2,1.840060294E-2,2.542015889E-2
1.613293625E0,-1.395406039E-3,1.048330849E-2,2.917936027E-2,3.103678432E-2
1.623330625E0,-7.428161153E-3,-5.872116568E-3,2.858235955E-2,3.010997524E-2
1.633367625E0,-1.284197022E-2,2.949066055E-3,3.636734247E-2,3.868070305E-2
1.643404625E0,-1.844287191E-2,1.085146381E-2,1.975247920E-2,2.912137060E-2
1.653441625E0,-5.711642476E-3,-2.371507329E-3,2.753629267E-2,2.822223097E-2
1.663478625E0,-3.601469141E-3,1.959384149E-2,3.651878536E-2,4.159940971E-2
1.673515625E0,-6.532417964E-3,2.366038355E-2,2.693870723E-2,3.644420642E-2
1.683552625E0,-2.231391140E-2,1.355628527E-2,3.008217037E-2,3.983240498E-2
1.693589625E0,-1.551435334E-3,2.645209555E-2,3.711754024E-2,4.560517629E-2
1.703626625E0,-2.274709872E-2,1.111273841E-2,2.663874507E-2,3.674977815E-2
1.713663625E0,-5.899927388E-3,1.593590104E-2,2.648905635E-2,3.147113267E-2
1.723700667E0,-8.255327465E-3,5.070586642E-4,2.948341548E-2,3.062155007E-2
1.733737667E0,-1.979105711E-2,-9.611890633E-3,2.678960323E-2,3.466637023E-2
1.743774667E0,-1.986164854E-2,1.997454548E-3,4.056096554E-2,4.520693346E-2
1.753811667E0,-5.004768921E-3,2.779259258E-3,2.768948972E-2,2.827507445E-2
1.763848667E0,-1.413727466E-2,6.163942879E-3,3.562416136E-2,3.881929417E-2
1.773885667E0,-1.128348625E-2,8.597791577E-3,3.577501953E-2,3.848494646E-2
1.783922667E0,3.103633546E-3,6.617293954E-3,3.143404663E-2,3.227259531E-2
1.793959667E0,3.002531533E-3,1.192271939E-2,3.787007689E-2,3.981594100E-2
1.803996667E0,6.190049783E-3,1.250536246E-2,2.364906371E-2,2.745867842E-2
1.814033667E0,1.671030994E-2,9.780317852E-3,3.472485960E-2,3.975808030E-2
1.824070667E0,-9.158288310E-3,3.386223083E-4,2.649022579E-2,2.803071480E-2
1.834107667E0,8.851222694E-5,8.771312269E-3,2.514185786E-2,2.662811991E-2
1.844144667E0,-1.444842420E-2,-3.453169134E-3,1.137108028E-2,1.870782739E-2
1.854181667E0,-2.186287637E-2,-3.679922330E-3,3.172991574E-2,3.870807079E-2
1.864217667E0,-1.578457236E-2,-5.048851445E-3,3.202870846E-2,3.606219337E-2
1.874254667E0,-8.185987710E-3,5.166700250E-3,2.948400021E-2,3.103242585E-2
1.884291667E0,1.002953715E-2,1.169322988E-2,1.181956172E-2,1.941713882E-2
1.894328667E0,1.094312805E-2,6.338870558E-3,2.738777339E-2,3.016659515E-2
1.904365667E0,-1.682952004E-3,3.567345156E-3,2.843442500E-2,2.870670312E-2
1.914402667E0,1.460480524E-2,1.704844802E-2,2.588913202E-2,3.426655910E-2
1.924439667E0,1.564264490E-2,1.702905171E-2,3.427053094E-2,4.134187021E-2
1.934476667E0,-2.107797903E-3,5.120086977E-3,2.229484856E-2,2.297212169E-2
1.944513667E0,4.484289070E-3,-2.408440718E-3,3.546745598E-2,3.583085080E-2
1.954550667E0,-1.311804102E-2,-1.014389133E-2,2.843267083E-2,3.291501636E-2
1.964587667E0,-2.202075119E-3,8.057650463E-3,2.274391472E-2,2.422933187E-2
1.974624667E0,-6.197966365E-3,8.142508180E-3,1.750480950E-2,2.027642922E-2
1.984661667E0,-5.138624478E-3,3.407419240E-3,4.160527825E-2,4.205966174E-2
1.994698667E0,-2.409651275E-3,3.699688660E-3,4.519897699E-2,4.541411275E-2
2.004735667E0,-1.150215841E-3,1.229362016E-2,3.382263422E-2,3.600592561E-2
2.014772667E0,-6.337851863E-3,1.343025950E-2,1.615878046E-2,2.194644441E-2
2.024809667E0,4.532546871E-3,7.364554410E-3,1.885200799E-2,2.074075331E-2
2.034846667E0,-7.777916011E-3,3.915158557E-3,4.310099602E-2,4.397181258E-2
2.044883667E0,1.046344166E-2,4.650057633E-3,3.262395501E-2,3.457497777E-2
2.054920667E0,-2.225473118E-3,4.037068435E-3,3.367060661E-2,3.398470835E-2
2.064957667E0,5.768643692E-3,9.021682735E-3,1.900052726E-2,2.181027386E-2
2.074994667E0,-2.320686802E-3,-5.384609532E-3,1.331294060E-2,1.454695825E-2
2.085031667E0,-1.425446109E-3,-1.070328257E-2,3.801216424E-2,3.951603199E-2
2.095068667E0,-1.581976529E-2,8.265564661E-3,3.442021966E-2,3.877287782E-2
2.105105667E0,-1.349530520E-2,3.857988319E-3,2.244395256E-2,2.647146280E-2
2.115142667E0,6.190556847E-4,7.929984732E-3,3.307126701E-2,3.401435858E-2
2.125179667E0,-1.007462923E-2,3.681132887E-3,4.744138420E-2,4.863880989E-2
2.135216667E0,-9.072562647E-3,1.613866238E-2,1.121788323E-2,2.164737214E-2
2.145253667E0,-7.720275256E-3,4.463494909E-3,1.810356438E-2,2.018079483E-2
2.155290667E0,8.989089075E-4,-6.755196881E-3,3.037862420E-2,3.113360773E-2
2.165327667E0,-1.874858536E-2,4.768587090E-3,3.082885981E-2,3.639598155E-2
2.175364667E0,-1.469768917E-2,-4.595107511E-3,2.603882074E-2,3.025156634E-2
2.185401667E0,-3.907570881E-3,1.039845077E-3,3.651644647E-2,3.673964141E-2
2.195438667E0,1.376151340E-3,7.777207950E-3,3.382088006E-2,3.473083189E-2
2.205475667E0,-2.122007094E-2,4.427954801E-3,2.424197137E-2,3.252032242E-2
2.215512667E0,4.722174816E-3,9.879332227E-3,3.292216301E-2,3.469537372E-2
2.225549667E0,9.565473790E-3,1.238348456E-2,2.498866081E-2,2.948359116E-2
2.235586667E0,8.185051242E-3,-5.634660227E-3,1.585706413E-2,1.871338939E-2
2.245623667E0,1.237676939E-2,4.891332937E-4,3.426760733E-2,3.643751616E-2
2.255660667E0,-8.790886737E-3,-7.111771968E-3,2.453667104E-2,2.701675806E-2
2.265697667E0,-7.873623054E-3,4.532016967E-3,2.169258535E-2,2.351810743E-2
2.275734667E0,-8.086187616E-3,-2.775554499E-4,2.259130239E-2,2.399646664E-2
2.285771667E0,-1.658899848E-2,-1.286516265E-2,3.112355947E-2,3.754175322E-2
2.295807667E0,-1.190205314E-2,2.844405463E-3,2.828005850E-2,3.081413994E-2
2.305844667E0,4.076514300E-4,4.970599255E-3,2.423846304E-2,2.474623461E-2
2.315881667E0,-4.880063343E-3,6.372935157E-3,2.334033072E-2,2.468198450E-2
2.325918667E0,1.195765651E-2,9.089515004E-3,2.468811393E-2,2.889823181E-2
2.335955667E0,6.707953205E-3,1.967719173E-2,3.127441764E-2,3.755366439E-2
2.345992667E0,1.767910221E-3,1.362647013E-2,3.337064445E-2,3.608886401E-2
2.356029667E0,1.666479302E-3,1.111367488E-2,2.184402823E-2,2.456527004E-2
2.366066667E0,-1.192748853E-2,-1.212278553E-3,3.157321036E-2,3.377280288E-2
2.376103667E0,-4.826236982E-4,3.792513208E-4,3.052538931E-2,3.053155990E-2
2.386140667E0,-7.889355719E-3,-2.138879509E-3,2.349118888E-2,2.487272993E-2
2.396177667E0,-1.271098345E-2,-5.013617403E-3,3.172465324E-2,3.454213490E-2
2.406214667E0,-9.486116110E-3,1.346015339E-2,3.022776604E-2,3.442208546E-2
2.416251667E0,4.825985734E-3,9.896554104E-3,2.813212395E-2,3.021006983E-2
2.426288667E0,-1.239732601E-2,1.331341568E-2,3.367119133E-2,3.827126671E-2
2.436325667E0,-1.334570785E-2,6.862479583E-3,2.977869987E-2,3.334625182E-2
2.446362667E0,1.306929900E-2,1.113802762E-2,1.825149894E-2,2.505951813E-2
2.456399667E0,1.481049018E-2,2.674822048E-2,1.855204582E-2,3.576305807E-2
2.466436667E0,1.554468577E-3,1.271744736E-2,4.579597771E-2,4.755440479E-2
2.476473667E0,-2.022602601E-2,1.005090232E-2,1.705574334E-2,2.830214031E-2
2.486510667E0,-1.146458091E-2,-7.965954244E-3,2.439049065E-2,2.810318624E-2
2.496547667E0,-1.896680984E-2,-3.634574432E-3,3.172582269E-2,3.714132243E-2
2.506584667E0,-1.501840895E-2,5.831912393E-4,2.259305656E-2,2.713556567E-2
2.516621667E0,1.416615900E-3,1.301761966E-2,1.869939566E-2,2.282832933E-2
2.526658667E0,1.058663062E-2,1.847134968E-2,4.339686513E-2,4.833792931E-2
2.536695667E0,2.020898229E-4,1.881500151E-2,3.905589223E-2,4.335213766E-2
2.546732667E0,2.392509797E-2,3.446251147E-2,3.007456899E-2,5.161932496E-2
2.556769667E0,3.275890235E-2,5.711491727E-3,3.561305165E-2,4.872428829E-2
2.566806667E0,-4.406219604E-3,1.168410731E-3,5.492231190E-2,5.511116311E-2
2.576843667E0,-1.855991215E-2,3.680146169E-3,3.770927846E-2,4.219008767E-2
2.586880667E0,-1.116469184E-2,-2.804667237E-3,3.112005115E-2,3.318092955E-2
2.596917667E0,-1.209350377E-3,1.336013402E-2,2.707670152E-2,3.021760207E-2
2.606954667E0,-9.568954711E-3,7.808083990E-3,3.052071154E-2,3.292483717E-2
2.616991667E0,-7.881530500E-3,1.011059874E-2,2.797717273E-2,3.077441996E-2
2.627028667E0,8.698797659E-3,1.266252465E-2,3.935410023E-2,4.224634678E-2
2.637065667E0,1.317496458E-4,8.774532806E-3,2.842799306E-2,2.975164825E-2
2.647102667E0,-6.739427671E-3,6.644816981E-3,3.112297475E-2,3.253018653E-2
2.657139667E0,-1.027182201E-3,1.284296607E-2,3.696025014E-2,3.914149935E-2
2.667176667E0,-2.200078843E-3,-4.531592131E-5,4.309748769E-2,4.315363073E-2
2.677213667E0,-8.740317458E-3,1.846203525E-3,3.246958852E-2,3.367604186E-2
2.687250667E0,-9.985258193E-3,-1.088270073E-2,2.288951039E-2,2.724092954E-2
2.697287667E0,-1.793498641E-2,-3.196033258E-3,2.857709706E-2,3.388995194E-2
2.707324667E0,-1.291949607E-2,4.252182017E-3,2.842740834E-2,3.151367918E-2
2.717360875E0,-1.552992612E-2,-1.061927453E-2,2.857709706E-2,3.421400405E-2
2.727397875E0,-2.206593007E-4,7.159595797E-3,2.977519155E-2,3.062467198E-2
2.737434875E0,3.098960342E-3,-2.541350671E-3,2.678317130E-2,2.708136413E-2
2.747471875E0,-7.852139105E-3,-1.301472346E-2,2.274157584E-2,2.735358088E-2
2.757507875E0,4.070562017E-3,-4.133478971E-3,2.962784171E-2,3.019046419E-2
2.767544875E0,1.245671636E-3,-4.324929602E-3,3.591359854E-2,3.619451994E-2
2.777581875E0,-1.911550271E-2,6.166204107E-3,1.735219717E-2,2.654285711E-2
2.787618875E0,-1.250350779E-2,1.891944283E-3,6.723713279E-3,1.432220236E-2
2.797655875E0,-8.026148588E-3,-9.204289452E-3,1.929815054E-2,2.283761414E-2
2.807692875E0,-2.632406437E-2,-8.057965664E-4,2.378939688E-2,3.549001376E-2
2.817729875E0,-1.274596168E-2,2.799094110E-3,2.783333123E-2,3.074067003E-2
2.827766875E0,4.970229235E-3,1.024058966E-2,3.067858636E-2,3.272229387E-2
2.837803875E0,8.785907468E-3,-5.001370227E-3,3.502014399E-2,3.645019011E-2
2.847840875E0,7.651716652E-3,2.303164798E-2,3.322270989E-2,4.114309212E-2
2.857877875E0,2.837183238E-3,2.423927617E-2,4.385002434E-2,5.018382960E-2
2.867914875E0,-1.046349191E-2,-1.794661232E-3,3.082769036E-2,3.260447768E-2
2.877951875E0,-6.864261157E-3,7.717136946E-3,2.738426507E-2,2.926722155E-2
2.887988875E0,1.897089832E-2,1.389140838E-2,3.232340813E-2,3.997085092E-2
2.898025875E0,-8.276094217E-3,4.502684958E-3,2.828181267E-2,2.980987815E-2
2.908062875E0,-3.054329641E-3,1.238651323E-2,3.711344719E-2,3.924490543E-2
2.918099875E0,-2.611905551E-3,1.347589519E-2,2.214457512E-2,2.605386745E-2
2.928136875E0,-1.257719642E-2,8.990103202E-3,1.915021598E-2,2.461175730E-2
2.938173875E0,3.244802691E-3,1.498025130E-2,3.007690787E-2,3.375732603E-2
2.948210875E0,4.142181273E-3,1.184404237E-2,2.708313346E-2,2.984853637E-2
2.958247875E0,1.854787054E-3,4.427977642E-3,1.675519645E-2,1.742939555E-2
2.968284875E0,1.799871193E-2,1.257831104E-2,3.052538931E-2,3.760275166E-2
2.978321875E0,2.887466095E-2,1.933521640E-2,3.366709828E-2,4.838460649E-2
2.988358875E0,1.892721323E-2,3.940351834E-3,2.498515248E-2,3.159151180E-2
2.998395875E0,-1.343763704E-2,7.020738130E-3,3.232048452E-2,3.569978393E-2
3.008432875E0,-2.327612098E-3,5.244586989E-4,2.708137929E-2,2.718628219E-2
3.018469875E0,-1.362846640E-2,4.171769097E-3,1.959635854E-2,2.423130252E-2
3.028506875E0,1.839826405E-3,3.397944923E-3,2.722989857E-2,2.750269745E-2
3.038543875E0,1.131653215E-2,1.319439287E-2,3.516340077E-2,3.922525534E-2
3.048580875E0,-1.797484341E-3,-4.756938340E-4,2.288892567E-2,2.296432348E-2
3.058617875E0,1.827003644E-3,3.152718181E-3,3.246958852E-2,3.267341049E-2
3.068654875E0,-2.099945275E-3,1.111309016E-2,3.531250477E-2,3.707942200E-2
3.078691875E0,-1.460400125E-2,8.465612526E-3,2.303861439E-2,2.856083334E-2
3.088728875E0,-1.404707680E-2,-2.323578433E-3,2.034246325E-2,2.483012675E-2
3.098765875E0,4.277000707E-3,1.162034526E-2,2.049156725E-2,2.394221141E-2
3.108802875E0,-3.213894675E-3,2.652685312E-3,2.094063342E-2,2.135125257E-2
3.118839875E0,9.355179593E-4,5.094144526E-3,2.363503039E-2,2.419587080E-2
3.128876875E0,-7.057484225E-3,2.496624039E-3,1.405378282E-2,1.592325428E-2
3.138913875E0,-1.243147741E-2,2.425447893E-3,3.321335435E-2,3.554646727E-2
3.148950875E0,-1.504924388E-2,-4.867532942E-4,4.189413071E-2,4.451780383E-2
3.158987875E0,-1.041808006E-2,1.571658477E-3,3.605744004E-2,3.756521642E-2
3.169024875E0,6.351446640E-3,-4.325327030E-3,3.096802354E-2,3.190717490E-2
3.179061875E0,1.865302906E-2,1.329061154E-2,1.300654650E-2,2.633906035E-2
3.189098875E0,-1.506180169E-2,2.323971293E-2,3.845596790E-2,4.738991026E-2
3.199135875E0,-5.580619164E-3,9.817886213E-3,2.797775745E-2,3.017099786E-2
3.209172875E0,-6.811942281E-3,4.674159125E-3,4.010137439E-2,4.094350436E-2
3.219209875E0,1.063762473E-2,-8.150520693E-3,2.662938952E-2,2.981131386E-2
3.229246875E0,-5.304539222E-3,1.850759328E-2,2.214106679E-2,2.934102902E-2
3.239283875E0,-4.620597716E-3,4.197798343E-3,3.381737173E-2,3.438874910E-2
3.249319875E0,-5.451747444E-3,1.058283906E-2,1.869998038E-2,2.216770847E-2
3.259356875E0,-7.856784901E-4,8.525190172E-3,1.825149894E-2,2.015969671E-2
3.269393875E0,-3.797771134E-3,1.156780711E-2,3.232165396E-2,3.453876868E-2
3.279430875E0,-5.800967831E-3,1.220510793E-2,3.815951407E-2,4.048165512E-2
3.289467875E0,1.659535733E-3,5.753440931E-3,2.977753043E-2,3.037363100E-2
3.299504875E0,1.599358291E-2,-7.477145288E-3,2.543714225E-2,3.096369813E-2
3.309541875E0,-1.488364433E-2,4.219825901E-3,3.965757072E-2,4.256821249E-2
3.319578875E0,-8.180537922E-3,2.330092597E-3,3.486811638E-2,3.589061259E-2
3.329615875E0,-6.648398400E-3,3.507877146E-3,2.334150016E-2,2.452207237E-2
3.339652875E0,-1.257393477E-2,-1.956044384E-3,3.127500236E-2,3.376471113E-2
3.349689875E0,-6.889070710E-4,-4.429306970E-3,2.363970816E-2,2.406094668E-2
3.359726875E0,-4.036474577E-3,1.487291835E-2,4.459671378E-2,4.718435871E-2
3.369763875E0,-1.369803000E-2,1.094598313E-2,2.394025505E-2,2.967467581E-2
3.379800875E0,-7.930199434E-3,1.927614582E-2,1.959928215E-2,2.861100700E-2
3.389837875E0,-5.958618815E-3,5.389931411E-3,3.067683220E-2,3.171158357E-2
3.399874875E0,3.076855126E-3,9.474079069E-3,4.025749505E-2,4.147157001E-2
3.409911875E0,2.528439288E-2,3.451730171E-3,2.483955681E-2,3.561205621E-2
3.419948875E0,1.463155168E-2,1.980287489E-4,3.442021966E-2,3.740151122E-2
3.429985875E0,5.141392769E-3,2.791593228E-3,2.424255610E-2,2.493849311E-2
3.440022875E0,-2.948400934E-2,1.188146455E-2,1.570854485E-2,3.545750115E-2
3.450059875E0,-2.711923545E-2,-6.090834411E-4,2.424138665E-2,3.637950990E-2
3.460096875E0,-1.878411176E-2,-3.876845590E-3,4.010897577E-2,4.445900048E-2
3.470133875E0,1.792611966E-2,1.160364871E-2,3.636734247E-2,4.217314344E-2
3.480170875E0,2.446100442E-4,1.051758322E-2,9.274853468E-3,1.402505964E-2
3.490207875E0,-9.751396975E-3,1.171576907E-2,4.250691891E-2,4.515735979E-2
3.500244875E0,-2.930090013E-3,1.680173207E-2,4.669878781E-2,4.971579639E-2
3.510281875E0,1.680421256E-2,1.164684502E-2,3.232867062E-2,3.825145099E-2
3.520318875E0,-3.153298334E-3,9.218441541E-3,3.262687862E-2,3.405049432E-2
3.530355875E0,-9.736239896E-3,1.102666100E-2,3.172757685E-2,3.497171361E-2
3.540392875E0,-1.258048547E-2,1.252120019E-2,3.023127437E-2,3.505679704E-2
3.550429875E0,3.638306600E-3,-4.241456031E-3,2.634053707E-2,2.692677324E-2
3.560466875E0,-1.452806967E-2,-4.509930024E-3,4.310684323E-2,4.571218886E-2
3.570503875E0,-1.190956773E-2,-2.850426268E-3,2.634287596E-2,2.905012646E-2
3.580540875E0,9.547132719E-4,1.121819843E-2,3.203280151E-2,3.395378957E-2
3.590577875E0,-3.154793942E-2,1.018861339E-2,3.068794191E-2,4.517554763E-2
3.600614875E0,1.456080037E-3,7.631219421E-3,4.730397463E-2,4.793768554E-2
3.610651875E0,4.347752016E-3,9.398563192E-3,3.173634768E-2,3.338310503E-2
3.620688875E0,-6.880450635E-3,1.920606603E-2,2.993949831E-2,3.622964438E-2
3.630725875E0,7.737976788E-3,1.104606645E-2,1.646634400E-2,2.128455669E-2
3.640762875E0,1.800153047E-2,2.375207063E-2,1.392163575E-2,3.289419250E-2
3.650799875E0,-4.443961554E-3,2.009309321E-2,2.005828857E-2,2.873701671E-2
3.660836875E0,-1.637084709E-2,-6.459866809E-3,1.646342039E-2,2.409935112E-2
3.670873875E0,1.231264645E-2,-1.151134036E-3,1.706217527E-2,2.107235624E-2
3.680910875E0,-2.319106227E-4,1.303833160E-3,3.577268064E-2,3.579718486E-2
3.690947875E0,-2.866075336E-2,9.582700236E-3,2.514536619E-2,3.931356468E-2
3.700984875E0,-3.105656317E-2,-5.828993353E-3,2.634404540E-2,4.113995634E-2
3.711021875E0,-2.352721321E-2,-7.409664765E-3,1.182365477E-2,2.735382433E-2
3.721058625E0,-1.285084154E-2,-9.477464058E-3,1.871050537E-2,2.459775324E-2
3.731095625E0,-1.082928550E-2,-3.900348656E-3,4.745190918E-2,4.882796155E-2
3.741131625E0,8.234825665E-3,2.258735552E-2,2.125638306E-2,3.209103931E-2
3.751168625E0,1.847223133E-2,1.278031864E-2,3.547622681E-2,4.198955279E-2
3.761205625E0,4.628934567E-3,-6.071100058E-4,2.754155517E-2,2.793443894E-2
3.771242625E0,6.707236008E-3,1.821610044E-2,3.562357664E-2,4.056910823E-2
3.781279625E0,-9.829311124E-3,9.155976833E-3,2.110260129E-2,2.501533630E-2
3.791316625E0,-1.435726702E-2,-6.856180122E-4,2.379699826E-2,2.780104880E-2
3.801353625E0,-1.913126735E-2,-3.122778609E-3,2.813855588E-2,3.416921808E-2
3.811390625E0,-1.813555961E-2,-8.303790833E-3,4.071240842E-2,4.533598642E-2
3.821427625E0,-2.809228065E-2,-7.895413069E-3,3.936696410E-2,4.900277178E-2
3.831464625E0,-2.201960002E-2,-9.514881670E-3,3.188311279E-2,3.989898043E-2
3.841501625E0,-5.525682746E-3,-3.078234703E-3,3.712221801E-2,3.765724059E-2
3.851538625E0,2.587733252E-2,2.774512963E-3,1.661603272E-2,3.087761008E-2
3.861575625E0,1.505301716E-2,2.633715208E-2,1.616696656E-2,3.437455037E-2
3.871612625E0,2.443035222E-3,1.504550257E-2,3.338116944E-2,3.669656717E-2
3.881649625E0,1.161481781E-2,5.798592400E-3,2.365198731E-2,2.698044052E-2
3.891686625E0,1.394152542E-2,-4.495914979E-4,3.173576295E-2,3.466593304E-2
3.901723625E0,-3.012590571E-3,9.906051261E-3,2.080848634E-2,2.324217411E-2
3.911760625E0,-3.221254400E-2,-7.273187097E-3,4.206545413E-2,5.347943224E-2
3.921797625E0,-2.644509260E-2,-9.925109530E-3,2.425366580E-2,3.723024344E-2
3.931834625E0,-1.749528036E-2,-6.950740563E-4,3.742568851E-2,4.131888337E-2
3.941871625E0,-4.390528053E-3,-9.825565252E-3,3.592938602E-2,3.750652275E-2
3.951908625E0,1.635948613E-2,-5.357511342E-3,2.365549564E-2,2.925607951E-2
3.961945625E0,8.938209163E-3,1.623830716E-2,3.563000858E-2,4.016306405E-2
3.971982625E0,1.340154419E-2,1.458278682E-2,3.039090335E-2,3.627486822E-2
3.982019625E0,1.696006370E-2,2.894919924E-2,3.353378177E-2,4.743642501E-2
3.992056625E0,1.430944776E-2,2.887508122E-2,3.637786746E-2,4.859917542E-2
4.002093625E0,7.831993620E-3,8.632719554E-3,4.146669924E-2,4.307378689E-2
4.012130625E0,-1.317871045E-2,3.025349379E-3,4.086794436E-2,4.304671909E-2
4.022167625E0,-2.046860780E-2,9.765028297E-3,1.781646609E-2,2.884000948E-2
4.032204625E0,-1.258318068E-2,-7.938166265E-3,4.326354861E-2,4.575025200E-2
4.042241625E0,-1.928067741E-2,-9.367952105E-3,4.012008548E-2,4.548762806E-2
4.052278625E0,-2.319807893E-2,-2.164844801E-3,1.946479619E-2,3.035977123E-2
4.062315625E0,3.425335474E-3,2.659980627E-4,2.710125983E-2,2.731816177E-2
4.072352625E0,1.513284992E-2,-4.071589848E-3,5.180048347E-2,5.411904543E-2
4.082389625E0,9.006959628E-3,2.519939812E-3,2.590550423E-2,2.754215982E-2
4.092426625E0,1.194769797E-2,6.482670950E-3,1.168390632E-2,1.792445749E-2
4.102463625E0,1.823435929E-2,1.983624513E-2,2.769942999E-2,3.864229420E-2
4.112500625E0,-1.435034629E-4,1.049893609E-2,1.422686040E-2,1.768196282E-2
4.122537625E0,-1.208905441E-2,-1.158882511E-2,3.368580937E-2,3.761887634E-2
4.132574625E0,1.214539781E-3,-1.036926038E-2,2.605168462E-2,2.806576097E-2
4.142611625E0,-6.389243407E-3,-5.939560547E-3,2.215860844E-2,2.381396100E-2
4.152648625E0,-1.472072172E-2,-9.172961167E-3,3.997098148E-2,4.357203490E-2
4.162685625E0,-2.080815744E-2,-4.101182241E-4,4.805534184E-2,5.236853533E-2
4.172722625E0,5.047974363E-4,1.412189375E-2,2.141133428E-2,2.565400435E-2
4.182759625E0,2.841189494E-3,1.509413039E-3,3.323732793E-2,3.339267365E-2
4.192796625E0,1.513344378E-2,2.587170001E-2,3.308822393E-2,4.464522982E-2
4.202833625E0,1.132842301E-2,1.583521016E-2,1.302935064E-2,2.342756980E-2
4.212870625E0,2.794064591E-3,6.067870385E-3,3.518328130E-2,3.581185741E-2
4.222907625E0,2.660227306E-3,1.280444297E-2,2.141191900E-2,2.508985541E-2
4.232944625E0,-1.317934086E-2,6.088536638E-3,2.679954350E-2,3.047918692E-2
4.242981625E0,-2.860551087E-2,-2.694913172E-3,2.395604253E-2,3.740895324E-2
4.253018625E0,3.499869201E-3,-1.593966062E-2,2.215919316E-2,2.752002374E-2
4.263055625E0,-3.556660283E-3,-1.035967186E-2,2.979331791E-2,3.174294293E-2
4.273092625E0,-4.058789928E-4,-9.075888251E-3,3.937281132E-2,4.040736018E-2
4.283129625E0,-1.026969326E-2,1.427340972E-2,4.670755863E-2,4.990784365E-2
4.293165625E0,7.867236799E-3,1.400548847E-2,3.278592288E-2,3.650977762E-2
4.303202625E0,7.460736539E-3,9.385105460E-3,6.028479338E-4,1.200442501E-2
4.313239625E0,9.941819776E-3,2.404311122E-2,2.365432620E-2,3.516302214E-2
4.323276625E0,-3.139497992E-4,1.161055117E-2,7.050631106E-2,7.145658376E-2
4.333313625E0,-7.140555801E-3,9.062535586E-3,4.194792509E-3,1.227653748E-2
4.343350625E0,2.797600329E-3,2.240822059E-3,5.703549564E-2,5.714801496E-2
4.353387625E0,-1.632445766E-2,1.093666870E-3,1.287673831E-2,2.082052868E-2
4.363424625E0,-2.470761074E-2,2.937120376E-3,5.209401369E-2,5.773109186E-2
4.373461625E0,-2.504010717E-2,-2.263123705E-3,3.637786746E-2,4.422078626E-2
4.383498625E0,6.695208102E-3,1.263629441E-2,1.169443130E-6,1.430041081E-2
4.393535625E0,1.526460871E-2,-5.617758119E-3,7.931104839E-2,8.096178038E-2
4.403572625E0,6.034202757E-2,8.190985252E-3,2.973560590E-1,3.035273930E-1
4.413609625E0,3.834695388E-2,9.808507827E-3,3.806654334E-2,5.491591226E-2
4.423646625E0,7.376719359E-3,1.934158439E-3,-1.104305148E-2,1.342035556E-2
4.433683625E0,-3.427661570E-2,4.506784405E-2,-2.041362387E-1,2.118433405E-1
4.443720625E0,-3.914796303E-2,6.108207494E-2,-2.881010860E-1,2.970956389E-1
4.453757625E0,5.301986547E-1,-4.329215977E-1,2.156172466E-1,7.176506952E-1
4.463794625E0,4.411933979E-1,-6.559851638E-1,-1.792592597E-1,8.106183021E-1
4.473831625E0,-7.228807461E-1,8.596205154E-1,-1.367271978E-1,1.131458497E0
4.483868625E0,-4.333011185E-1,1.907142293E-1,5.425742501E-1,7.200754082E-1
4.493905625E0,-8.784890600E-2,-5.432989759E-2,-5.867797852E-2,1.187950892E-1
4.503942625E0,-1.169755408E-1,3.246874341E-2,1.048224503E-1,1.603909054E-1
4.513979625E0,-5.740804368E-1,8.101920281E-2,4.672995347E-1,7.446484501E-1
4.524016625E0,-5.782640465E-1,-1.498879207E0,6.826501483E-1,1.745577099E0
4.534053625E0,-5.619541520E-2,-1.082260560E0,2.955989707E-1,1.123309662E0
4.544090625E0,2.311454414E-1,-2.643252839E-1,6.814087844E-1,7.665598491E-1
4.554127625E0,-1.973905984E-1,9.358865532E-1,6.225074422E-1,1.141210850E0
4.564164625E0,-5.380683492E-1,1.514209291E0,1.018818271E0,1.902718580E0
4.574201625E0,-1.082479758E0,-2.555362975E-2,1.125732855E0,1.561950663E0
4.584238625E0,-1.426639051E0,-1.312211671E0,2.977413905E-1,1.961083473E0
4.594275625E0,2.041863055E-1,-4.372367698E-1,4.923174316E-1,6.893797891E-1
4.604312625E0,1.149499447E0,7.485919766E-1,7.472893631E-1,1.562107653E0
4.614349625E0,5.690934196E-2,1.002361574E0,8.404349238E-1,1.309312132E0
4.624386625E0,-5.067083064E-1,6.110553049E-1,1.717157668E0,1.891764348E0
4.634423625E0,1.788712969E-1,1.135805378E-1,2.841277276E0,2.849166902E0
4.644460625E0,9.692137089E-1,-3.286658522E-1,3.159488014E0,3.321108394E0
4.654497625E0,6.800802970E-1,5.839317160E-1,7.346447593E-1,1.158960043E0
4.664534625E0,7.879968014E-1,2.171749010E0,-1.123691007E0,2.569068742E0
4.674571625E0,2.191021872E0,2.779755796E0,-3.334828470E0,4.862992911E0
4.684608625E0,2.635205316E0,2.588414142E0,-4.036765659E0,5.471715619E0
4.694645625E0,1.616185609E0,4.092699027E-1,-3.720828903E0,4.077269368E0
4.704682625E0,1.696362045E-1,-2.511155759E0,-3.035049325E0,3.942867496E0
4.714719625E0,-2.480655220E0,-4.410968165E0,-9.761259949E-1,5.153941446E0
4.724757625E0,-6.234226484E0,-2.868996001E0,2.069637183E0,7.167992465E0
4.734794625E0,-6.610803545E0,1.955043597E-1,2.678374432E0,7.135449184E0
4.744831625E0,-7.538478926E-1,1.766581843E0,3.449570721E-1,1.951433687E0
4.754868625E0,9.170109370E-1,3.139260083E-1,-8.502892363E-1,1.289360455E0
4.764905625E0,5.199022561E-2,-1.741717435E-2,-7.287548590E-1,7.308146044E-1
4.774942625E0,6.245068976E-1,6.312006439E-1,-4.759031278E-1,1.007425881E0
4.784979625E0,1.143195272E0,7.418415123E-1,1.522457081E0,2.043306101E0
4.795016625E0,1.604473929E0,3.247107956E-1,5.725414642E0,5.954842274E0
4.805053625E0,1.920660653E0,3.004890702E-1,9.279179238E0,9.480632804E0
4.815090625E0,1.836891980E0,-4.727592627E-2,1.111519911E1,1.126605780E1
4.825127625E0,1.968421295E0,-1.964995558E0,9.687140644E0,1.007852091E1
4.835164625E0,3.477393528E0,-3.836395027E0,5.622496045E0,7.643471353E0
4.845201625E0,6.342958383E0,-2.626461682E0,5.594065713E0,8.855788684E0
4.855238625E0,6.386152350E0,-2.069841251E0,7.238564125E0,9.872385488E0
4.865274625E0,4.514912948E0,-2.408085135E0,7.378421922E0,8.979110368E0
4.875311625E0,3.704750814E0,-3.089253014E0,4.744990944E0,6.766358092E0
4.885348625E0,4.119558724E0,-3.040270888E0,7.339074254E-1,5.172294584E0
4.895385625E0,4.460525364E0,-2.330730272E0,-3.115009999E0,5.918773303E0
4.905422625E0,3.906257852E0,-1.368614791E0,-5.864910496E0,7.178379482E0
4.915459625E0,2.480814849E0,-1.660506919E-1,-6.567920065E0,7.022790694E0
4.925496625E0,8.893161848E-2,6.632838777E-1,-4.850566515E0,4.896514051E0
4.935533625E0,-1.476860786E0,-8.587133199E-2,-2.083758793E0,2.555492590E0
4.945570625E0,-1.189900199E0,-1.159831477E0,-6.538473487E-2,1.662933163E0
4.955607625E0,2.328168315E-1,-1.088349851E0,3.460557640E-1,1.165531495E0
4.965644625E0,1.658337310E0,-7.963118345E-1,-5.648351848E-2,1.840485142E0
4.975681625E0,2.591981821E0,-1.634503182E0,-1.555624827E0,3.436559182E0
4.985718625E0,2.555902746E0,-1.562848477E0,-3.240164972E0,4.412913239E0
4.995755625E0,1.284836177E0,-1.991351151E-1,-3.895385247E0,4.106639139E0
5.005792625E0,-1.062716827E-1,9.155713525E-1,-4.008022501E0,4.112640142E0
5.015829625E0,-6.238882622E-1,6.792956007E-1,-4.132254199E0,4.233934794E0
5.025866625E0,-5.396369013E-1,9.760610908E-2,-4.486677328E0,4.520067299E0
5.035903625E0,-1.139364468E0,4.633962259E-1,-4.471439484E0,4.637527198E0
5.045940625E0,-1.212806959E0,-5.381484926E-3,-4.543216395E0,4.702312718E0
5.055977625E0,-1.146534032E0,-5.016589433E-1,-4.570936291E0,4.739162432E0
5.066014625E0,-5.532153055E-1,-7.678414491E-1,-5.215207070E0,5.300378519E0
5.076051625E0,8.164040369E-1,-1.426587887E0,-4.516408666E0,4.806205966E0
5.086088625E0,4.172944388E-1,-1.363934095E0,-3.887793807E0,4.141182385E0
5.096125625E0,-2.047806019E-1,-5.481469390E-1,-2.755257132E0,2.816707657E0
5.106162625E0,-6.445859438E-1,-1.428767145E-2,-1.827149057E0,1.937567767E0
5.116199625E0,-1.153572618E0,5.964364618E-2,-9.765218514E-1,1.512574651E0
5.126236625E0,-1.558581764E0,-9.998884946E-3,-2.324215597E-1,1.575847986E0
5.136273625E0,-1.781829335E0,-3.404465300E-1,1.122647864E-1,1.817532118E0
5.146310625E0,-1.672185855E0,-7.780775848E-1,-3.775313258E-1,1.882588687E0
5.156347625E0,-1.404667845E0,-1.166909386E0,-1.213532306E0,2.192585216E0
5.166384625E0,-8.532511434E-1,-1.371585761E0,-1.134330016E0,1.973826132E0
5.176421625E0,-2.430976984E-1,-9.286691156E-1,2.748062718E-1,9.985195563E-1
5.186458625E0,-1.188093994E0,-4.142457005E-1,1.792620664E0,2.190126865E0
5.196495625E0,-1.775876285E0,2.342339042E-1,2.795900543E0,3.320491221E0
5.206532625E0,-1.022286839E0,6.934579955E-1,3.244947410E0,3.472122991E0
5.216569625E0,-8.315237671E-2,8.558582707E-1,3.513160361E0,3.616863755E0
5.226606625E0,7.204067892E-1,8.455505066E-1,3.272941539E0,3.456311317E0
5.236643625E0,1.003392439E0,3.704930323E-1,2.126348743E0,2.380214370E0
5.246680625E0,8.150185391E-1,-7.346009052E-1,2.456263268E-1,1.124378051E0
5.256717625E0,2.969423684E-1,-1.549264080E0,-1.113271269E0,1.930742571E0
5.266754625E0,-2.814177185E-2,-1.358259957E0,-1.561193715E0,2.069538085E0
5.276791625E0,-1.860771132E-1,-7.732124090E-1,-1.547924629E0,1.740273765E0
5.286828625E0,-1.762077733E0,-2.460208969E0,1.095936613E0,3.218481500E0
5.296865625E0,-1.226269003E0,-3.267918196E0,1.622101237E0,3.848926789E0
5.306902625E0,-1.045233360E0,-3.513673454E0,3.224189209E0,4.881988322E0
5.316939625E0,-1.501764370E0,-3.399964698E0,5.091263055E0,6.303650979E0
5.326976625E0,-8.667476866E-1,-2.597039370E0,4.952868816E0,5.659220313E0
5.337013625E0,2.195839977E-1,-1.899159564E0,3.938646457E0,4.378122896E0
5.347050625E0,1.210053944E0,-1.610902065E0,2.489379559E0,3.202537525E0
5.357087625E0,1.307712531E0,-1.427988296E0,1.106630001E0,2.230222544E0
5.367124625E0,5.411004594E-1,-1.208819158E0,2.041637206E-1,1.340043390E0
5.377161625E0,-5.025744711E-1,-1.283158611E0,1.173308140E-1,1.383055906E0
5.387198625E0,-1.969175001E0,-1.549289369E0,9.296558332E-1,2.672490917E0
5.397235625E0,-3.926678960E0,-1.171192325E0,2.285307055E0,4.691814942E0
5.407272625E0,-8.348027102E0,-4.626524600E-1,2.311662794E0,8.674525271E0
5.417309625E0,-1.272987496E1,-2.875803622E0,4.958168147E0,1.396078058E1
5.427346625E0,-9.502174501E0,-6.922341440E0,5.801714959E0,1.310992097E1
5.437383625E0,-7.224538994E0,-6.754028753E0,7.286329445E0,1.228419573E1
5.447420625E0,-5.638924382E0,-5.609963708E0,8.621042957E0,1.172994214E1
5.457457625E0,-3.907341049E0,-7.013540463E0,7.768831156E0,1.117192022E1
5.467493625E0,-3.197078009E0,-7.638192664E0,6.565018677E0,1.056706039E1
5.477530625E0,-1.717892224E0,-7.363995087E0,5.729186096E0,9.486999034E0
5.487568625E0,-8.373180655E-1,-7.031689051E0,4.671037114E0,8.483179839E0
5.497604625E0,-1.308726585E0,-7.106780164E0,3.134432695E0,7.876786013E0
5.507641625E0,-1.989638941E0,-7.278572529E0,1.050143559E0,7.618338577E0
5.517678625E0,-2.234904640E0,-7.487052664E0,-1.066622182E0,7.885964699E0
5.527715625E0,-1.668003634E0,-7.568065252E0,-2.117940447E0,8.033898152E0
5.537752625E0,-5.991038154E-1,-6.883770867E0,-1.337693253E0,7.038085675E0
5.547789625E0,2.814177185E-2,-6.139179409E0,2.543410170E-1,6.144510162E0
5.557826625E0,-2.126185021E-1,-5.455632883E0,1.444620116E0,5.647660051E0
5.567863625E0,4.049693853E-2,-5.006877792E0,1.524360350E0,5.233941126E0
5.577900625E0,4.169982773E-1,-4.579924631E0,5.237140560E-1,4.628593047E0
5.587937625E0,5.010534641E-1,-4.137552361E0,-5.369059592E-1,4.202221094E0
5.597974625E0,1.440050224E0,-4.501332205E0,-7.196495748E-1,4.780547226E0
5.608011625E0,1.240372780E0,-4.611784939E0,-1.294637865E-1,4.777430882E0
5.618048625E0,6.757182741E-1,-4.334767250E0,1.332887426E-1,4.389142079E0
5.628085625E0,7.567565900E-1,-4.385904075E0,-6.319582969E-1,4.495353866E0
5.638122625E0,1.448104472E0,-4.360604342E0,-1.926579205E0,4.982327189E0
5.648159625E0,2.239222809E0,-3.735187910E0,-3.050634493E0,5.317153216E0
5.658196625E0,2.808650397E0,-3.416773689E0,-3.746069871E0,5.796196940E0
5.668233625E0,2.919157510E0,-3.502666948E0,-4.051280202E0,6.099428465E0
5.678270625E0,2.273065324E0,-3.566924340E0,-4.470139941E0,6.154017086E0
5.688307625E0,1.637806858E0,-3.689498937E0,-4.990083420E0,6.418391250E0
5.698344625E0,1.549185289E0,-3.981342241E0,-4.999393356E0,6.576092687E0
5.708381625E0,1.331785226E0,-4.173039990E0,-4.520616030E0,6.294750506E0
5.718418625E0,9.916287178E-1,-4.117435015E0,-4.005602923E0,5.829361320E0
5.728454625E0,1.054876295E0,-3.770944803E0,-3.955287048E0,5.565706095E0
5.738491625E0,1.316481893E0,-3.458888844E0,-4.218231073E0,5.611640580E0
5.748528625E0,1.662054677E0,-3.560042751E0,-4.660780513E0,6.095835065E0
5.758565625E0,1.820790794E0,-3.238868937E0,-5.388053688E0,6.544973159E0
5.768602625E0,2.117632883E0,-3.129155290E0,-6.567168698E0,7.576522063E0
5.778639625E0,2.628391848E0,-2.968427611E0,-8.161750014E0,9.073817801E0
5.788676625E0,3.291948498E0,-2.439634518E0,-1.031979651E1,1.110346530E1
5.798713625E0,4.418725666E0,-1.645255626E0,-1.248793472E1,1.334842748E1
5.808750625E0,5.581702361E0,-8.600203188E-1,-1.395779142E1,1.505705740E1
5.818787625E0,6.657471927E0,-5.596606913E-1,-1.483819849E1,1.627290039E1
5.828824625E0,7.256540805E0,-7.878946213E-1,-1.404177030E1,1.582559558E1
5.838861625E0,7.019249099E0,-1.359885190E0,-1.218341524E1,1.412638498E1
5.848898625E0,7.031271560E0,-2.530701247E0,-1.028084938E1,1.270980301E1
5.858935625E0,7.624302603E0,-3.064947892E0,-8.479317559E0,1.180773992E1
5.868972625E0,8.461341464E0,-3.026810013E0,-8.271157851E0,1.221343238E1
5.879009625E0,8.923556845E0,-3.594770535E0,-9.110436780E0,1.324961510E1
5.889046625E0,8.314600909E0,-4.503854694E0,-9.809852650E0,1.362536254E1
5.899083625E0,7.615490849E0,-5.419521648E0,-1.041434014E1,1.399376277E1
5.909120625E0,7.857654455E0,-6.270935304E0,-1.085419460E1,1.479462414E1
5.919157625E0,9.151228126E0,-7.225716038E0,-1.103335797E1,1.605275480E1
5.929194625E0,1.114193375E1,-8.980198238E0,-1.100356173E1,1.805173173E1
5.939231625E0,1.220421729E1,-1.200939625E1,-1.111402849E1,2.041298967E1
5.949268625E0,1.326387544E1,-1.577394011E1,-1.108922110E1,2.340338443E1
5.959305625E0,1.698505985E1,-1.805629900E1,-8.639523082E0,2.625192471E1
5.969342625E0,2.176670933E1,-1.933354257E1,-3.240203564E0,2.929290737E1
5.979379625E0,2.573830894E1,-1.826173156E1,2.146550873E0,3.163161500E1
5.989416625E0,2.841791012E1,-1.661637186E1,6.309980671E0,3.351861103E1
5.999453625E0,2.573674423E1,-1.588274744E1,8.282713119E0,3.135673781E1
6.009490625E0,1.781424649E1,-1.606153424E1,7.160295635E0,2.503178167E1
6.019527625E0,1.027036532E1,-1.640699710E1,5.774759295E0,2.019945055E1
6.029564625E0,3.889293325E0,-1.701456841E1,7.956216291E0,1.918133255E1
6.039601625E0,8.764505562E-1,-1.506283215E1,1.303358636E1,1.993819077E1
6.049638625E0,7.748537225E-1,-1.055467098E1,1.715624294E1,2.015783098E1
6.059675625E0,9.786680719E-1,-6.436337247E0,1.674527256E1,1.796631240E1
6.069712625E0,8.285630295E-1,-4.418228068E0,1.417886880E1,1.487439331E1
6.079749625E0,-5.196378158E-1,-3.724148952E0,1.272602983E1,1.326993384E1
6.089786625E0,-1.354528848E0,-3.481138085E0,1.148542843E1,1.207758821E1
6.099823625E0,-1.419717848E0,-3.713875394E0,1.015276846E1,1.090353964E1
6.109860625E0,-5.834756698E-1,-3.615231696E0,9.738975041E0,1.040470946E1
6.119897625E0,1.030247750E0,-2.974505500E0,9.414796050E0,9.927108242E0
6.129933625E0,2.160909296E0,-2.324103915E0,8.640470331E0,9.204820233E0
6.139970625E0,2.518101082E0,-1.744385812E0,7.712862192E0,8.298913069E0
6.150007625E0,2.332185498E0,-1.565346993E0,7.364797325E0,7.882235726E0
6.160044625E0,1.525386682E0,-1.650281893E0,6.833485397E0,7.193521914E0
6.170081625E0,5.273386719E-1,-2.089700734E0,5.453175298E0,5.863621412E0
6.180118625E0,-4.083085109E-1,-2.526893540E0,3.873626880E0,4.642940018E0
6.190155625E0,-5.946564232E-1,-2.605215824E0,2.037863121E0,3.360602900E0
6.200192625E0,-4.250978404E-1,-2.538879163E0,1.641719815E-1,2.579451108E0
6.210229625E0,-4.719787690E-1,-2.255186293E0,-2.311079827E-1,2.315607927E0
6.220266625E0,-4.926866101E-1,-1.860488126E0,9.322590137E-1,2.138518888E0
6.230303625E0,-7.070394695E-1,-1.543224052E0,2.750251331E0,3.231923215E0
6.240340625E0,-1.376896348E0,-1.395871294E0,4.414054033E0,4.829924764E0
6.250377625E0,-2.207114286E0,-1.357729322E0,6.065874621E0,6.596182024E0
6.260414625E0,-2.726288272E0,-1.359257199E0,7.044230744E0,7.674725705E0
6.270451625E0,-2.420278187E0,-1.605174133E0,6.164415407E0,6.814275296E0
6.280488625E0,-1.906244489E0,-2.127871358E0,4.299858496E0,5.162401346E0
6.290525625E0,-1.371389441E0,-2.307396666E0,2.642691506E0,3.766776708E0
6.300562625E0,-3.925414208E-1,-2.308645046E0,8.412696138E-1,2.488305705E0
6.310599625E0,-3.399553639E-1,-2.738369204E0,7.342933416E-2,2.760367261E0
6.320636625E0,-9.875458995E-1,-3.153861823E0,5.629643682E-1,3.352464792E0
6.330673625E0,-1.508821959E0,-3.415705402E0,1.485984196E0,4.018922260E0
6.340710625E0,-2.323670929E0,-3.378590201E0,3.399142872E0,5.326207900E0
6.350747625E0,-2.416740768E0,-3.683115531E0,6.714866441E0,8.030903267E0
6.360784625E0,-1.738884167E0,-5.134629514E0,1.084860116E1,1.212766612E1
6.370821625E0,2.043689579E-1,-6.498539343E0,1.360424537E1,1.507807257E1
6.380858625E0,3.470778573E0,-7.368906164E0,1.488911137E1,1.697152672E1
6.390895625E0,5.701867320E0,-8.239975235E0,1.411132293E1,1.730716377E1
6.400932625E0,7.088438033E0,-8.877209474E0,1.105577034E1,1.585184089E1
6.410969625E0,7.573961585E0,-9.019753482E0,8.307890060E0,1.441325377E1
6.421006625E0,7.543712184E0,-7.937332708E0,6.364504788E0,1.266553454E1
6.431043625E0,7.369403177E0,-5.954503289E0,3.336879673E0,1.004484836E1
6.441080625E0,5.782009842E0,-4.570153641E0,8.921908222E-2,7.370610705E0
6.451117625E0,3.738407972E0,-3.949943277E0,-2.118135159E0,5.836458053E0
6.461154625E0,1.925719664E0,-3.649602215E0,-2.790100690E0,4.981230211E0
6.471191625E0,8.231464612E-1,-3.914916409E0,-2.586749732E0,4.763970483E0
6.481228625E0,1.178266579E0,-4.381595554E0,-1.089733887E0,4.666284568E0
6.491265625E0,2.420988770E0,-4.308395723E0,1.774640476E0,5.250981732E0
6.501302625E0,3.843087165E0,-4.144265549E0,4.408381941E0,7.167850950E0
6.511339625E0,5.114628528E0,-4.075647304E0,5.129043084E0,8.311282025E0
6.521376625E0,6.079822569E0,-4.045193251E0,3.588284218E0,8.136560363E0
6.531413625E0,6.943573850E0,-4.025686355E0,8.029139987E-1,8.066228321E0
6.541450625E0,7.684240072E0,-3.513093118E0,-1.762645936E0,8.631123301E0
6.551487625E0,8.412907807E0,-2.870030666E0,-3.685584810E0,9.622766192E0
6.561524625E0,8.893247802E0,-2.409918237E0,-5.752712368E0,1.086237828E1
6.571561625E0,8.026580515E0,-1.728566901E0,-6.928439502E0,1.074324030E1
6.581598625E0,7.203045799E0,-1.424223273E0,-7.836735456E0,1.073902711E1
6.591635625E0,6.468511552E0,-1.503914391E0,-8.804404038E0,1.102818800E1
6.601672625E0,5.646391861E0,-1.376739351E0,-9.576070443E0,1.120170868E1
6.611709625E0,4.552952009E0,-1.306730199E0,-9.712633334E0,1.080611688E1
6.621746625E0,3.084786326E0,-1.682783349E0,-9.038059360E0,9.697122433E0
6.631783625E0,1.963799656E0,-2.169375187E0,-7.622769463E0,8.165127805E0
6.641820625E0,1.264090841E0,-2.712365174E0,-6.096169045E0,6.791032875E0
6.651857625E0,6.058206582E-1,-3.570796366E0,-5.001607697E0,6.175247761E0
6.661894625E0,9.161183596E-2,-4.452383701E0,-4.295983254E0,6.187696297E0
6.671931625E0,2.371572196E-2,-5.024201923E0,-4.010778878E0,6.428803513E0
6.681968625E0,3.995063317E-1,-4.988299434E0,-4.602380570E0,6.798870749E0
6.692005625E0,1.139576722E0,-4.516441118E0,-5.757186073E0,7.405542989E0
6.702042625E0,2.018935391E0,-3.967122689E0,-6.994711844E0,8.290968359E0
6.712079625E0,2.854694881E0,-3.453599161E0,-8.117378418E0,9.271917947E0
6.722117500E0,3.365116462E0,-3.209648061E0,-8.886379663E0,1.002963574E1
6.732154500E0,3.875207675E0,-3.217934443E0,-8.338144723E0,9.741508817E0
6.742191500E0,4.601993192E0,-2.949035321E0,-7.040625350E0,8.913223658E0
6.752228500E0,5.299718047E0,-2.800684735E0,-6.448759072E0,8.804393218E0
6.762265500E0,5.908564054E0,-2.601708664E0,-6.147847906E0,8.914934158E0
6.772302500E0,6.805421686E0,-1.967127745E0,-7.089543157E0,1.002222421E1
6.782339500E0,7.858985281E0,-1.653119108E0,-9.283097457E0,1.227486663E1
6.792376500E0,8.493925658E0,-2.105322448E0,-1.023914704E1,1.346919774E1
6.802413500E0,8.904061643E0,-2.570688016E0,-1.187641420E1,1.506452670E1
6.812450500E0,9.614250423E0,-3.495067614E0,-1.389268969E1,1.725271386E1
6.822487500E0,9.403441342E0,-4.703953430E0,-1.421217571E1,1.767873936E1
6.832523500E0,8.871846993E0,-6.501954702E0,-1.339516531E1,1.733249947E1
6.842560500E0,8.677501332E0,-8.794418748E0,-1.085410689E1,1.644543909E1
6.852597500E0,8.062970662E0,-1.105808116E1,-8.676611971E0,1.620420471E1
6.862634500E0,7.479270020E0,-1.384349590E1,-7.361518791E0,1.737163831E1
6.872671500E0,8.201926233E0,-1.526176963E1,-6.120584094E0,1.837538451E1
6.882708500E0,9.691295675E0,-1.696629263E1,-5.306627117E0,2.024689084E1
6.892745500E0,1.280886383E1,-1.750441890E1,-4.476261683E0,2.214742857E1
6.902782500E0,1.771757097E1,-1.751040996E1,-4.176019439E0,2.525798718E1
6.912819500E0,2.131627726E1,-2.003150365E1,-2.323567141E0,2.934354748E1
6.922856500E0,2.242517598E1,-2.188617029E1,3.441326732E0,3.152357368E1
6.932893500E0,2.182527972E1,-2.050113798E1,1.087919963E1,3.185900937E1
6.942930500E0,1.747734864E1,-1.777186821E1,1.732328269E1,3.035445829E1
6.952967500E0,9.122068062E0,-1.417180536E1,2.311557311E1,2.860737515E1
6.963004500E0,1.826857865E0,-1.018486032E1,2.462034002E1,2.670636501E1
6.973041500E0,-2.049475983E0,-7.795887392E0,1.983592598E1,2.141121602E1
6.983078500E0,-1.926186272E0,-6.211802997E0,1.285675954E1,1.440808648E1
6.993115500E0,1.514691979E-1,-4.671782634E0,7.350284536E0,8.710635950E0
7.003152500E0,1.998482708E0,-3.657578402E0,4.531331345E0,6.156685525E0
7.013189500E0,2.689095887E0,-3.031103039E0,4.347074470E0,5.942716447E0
7.023226500E0,2.317030246E0,-2.973766412E0,5.012322135E0,6.271785154E0
7.033263500E0,1.546729458E0,-3.150030143E0,6.551416299E0,7.432100473E0
7.043300500E0,1.260450657E0,-2.888400571E0,9.024344716E0,9.558786077E0
7.053337500E0,1.138651108E0,-2.516628753E0,1.045316098E1,1.081196194E1
7.063374500E0,1.066628614E0,-2.103169211E0,1.042174857E1,1.068521691E1
7.073411500E0,6.683335331E-1,-1.868343276E0,9.179387732E0,9.391407533E0
7.083448500E0,-4.683210433E-2,-1.900119385E0,6.952890218E0,7.208004531E0
7.093485500E0,-7.096391416E-1,-2.048010086E0,4.598314124E0,5.083544610E0
7.103522500E0,-1.086460908E0,-1.932330526E0,2.703741408E0,3.496357557E0
7.113559500E0,-1.114601803E0,-1.727172779E0,1.426863876E0,2.502279662E0
7.123596500E0,-1.178609518E0,-1.690335905E0,1.059279541E0,2.316987055E0
7.133633500E0,-1.239016518E0,-1.547814116E0,1.792403440E0,2.672751496E0
7.143670500E0,-1.041084468E0,-1.135104772E0,2.956084724E0,3.333280157E0
7.153707500E0,-5.844979092E-1,-8.846194088E-1,4.332367261E0,4.460223692E0
7.163744500E0,-1.698162988E-1,-9.001420122E-1,5.487165163E0,5.563099382E0
7.173781500E0,2.181765729E-1,-7.694011939E-1,6.080238306E0,6.132607689E0
7.183818500E0,4.426622915E-1,-8.963927776E-1,5.499578801E0,5.589708124E0
7.193855500E0,1.652265269E-1,-1.595971785E0,4.078556879E0,4.382813247E0
7.203892500E0,-2.375893289E-1,-2.171050122E0,2.873954733E0,3.609643075E0
7.213929500E0,-2.448252583E-1,-2.641960897E0,2.674625490E0,3.767428606E0
7.223966500E0,7.648029435E-1,-2.477323185E0,3.115198571E0,4.052963834E0
7.234003500E0,1.998291796E0,-2.184416272E0,3.961321667E0,4.945393200E0
7.244040500E0,2.557198489E0,-2.313907540E0,5.273603797E0,6.301137138E0
7.254077500E0,2.623334591E0,-2.482770451E0,6.123587809E0,7.109455755E0
7.264114500E0,2.230853105E0,-3.193563833E0,6.611781199E0,7.674060604E0
7.274151500E0,1.852673907E0,-3.787784200E0,6.368518317E0,7.637914329E0
7.284188500E0,1.652495649E0,-4.402089753E0,4.983149207E0,6.851343815E0
7.294225500E0,9.660968506E-1,-5.045439595E0,3.817807313E0,6.400426276E0
7.304262500E0,9.780900747E-1,-4.877164330E0,3.507376295E0,6.086467002E0
7.314299500E0,1.552196605E0,-4.159955968E0,2.954614441E0,5.333319271E0
7.324336500E0,1.823665870E0,-3.445040299E0,1.843557806E0,4.311932890E0
7.334373500E0,1.501923999E0,-2.931695110E0,9.175906885E-1,3.419442146E0
7.344410500E0,5.790462577E-1,-2.912128572E0,4.303234971E-1,3.000160946E0
7.354447500E0,-4.060867882E-1,-3.087113810E0,-6.315957695E-2,3.114348614E0
7.364484500E0,-7.473706394E-1,-3.340200891E0,-3.783011118E-1,3.443634214E0
7.374521500E0,-6.341457403E-1,-3.361779164E0,-1.695093200E-1,3.425263986E0
7.384558500E0,2.525523537E-1,-2.887692181E0,4.911627527E-1,2.940032257E0
7.394595500E0,1.217942276E0,-2.829491043E0,1.664242413E0,3.501300581E0
7.404632500E0,1.454683174E0,-2.787665617E0,2.832711105E0,4.232190323E0
7.414669500E0,2.311347045E0,-2.652582949E0,3.398751401E0,4.891833250E0
7.424706500E0,3.181555406E0,-2.559540299E0,2.474272692E0,4.774470306E0
7.434743500E0,3.659026757E0,-2.269820412E0,4.426821721E-1,4.328571244E0
7.444780500E0,3.956059465E0,-1.797430876E0,-1.374523695E0,4.557464166E0
7.454817500E0,3.856466764E0,-1.340710854E0,-2.889103407E0,5.001675718E0
7.464854500E0,3.733948885E0,-1.487625802E0,-4.515767226E0,6.045457671E0
7.474891500E0,3.450461837E0,-1.386937041E0,-6.069060184E0,7.117778639E0
7.484928500E0,3.618548822E0,-7.103477510E-1,-7.125303558E0,8.022994472E0
7.494965500E0,3.834001762E0,-2.942874402E-2,-7.523266810E0,8.443931492E0
7.505002500E0,3.991532183E0,4.089813061E-1,-6.990188438E0,8.059921170E0
7.515039500E0,3.800255726E0,5.139079465E-1,-5.883551420E0,7.022978163E0
7.525076500E0,3.469640704E0,1.593756567E-1,-4.987923458E0,6.078090789E0
7.535113500E0,2.833205194E0,-7.230047071E-1,-4.502895750E0,5.368971747E0
7.545150500E0,1.735328475E0,-1.604452294E0,-3.619208972E0,4.322534634E0
7.555187500E0,6.743137729E-1,-2.575941154E0,-2.395739908E0,3.581862868E0
7.565224500E0,-3.650299788E-2,-3.169289409E0,-1.302835661E0,3.426821937E0
7.575261500E0,-2.092239010E-1,-3.276532314E0,-8.045495380E-1,3.380345930E0
7.585298500E0,-8.214343965E-2,-3.320479695E0,-1.030506416E0,3.477682622E0
7.595335500E0,1.548132205E-1,-3.323381668E0,-2.337472404E0,4.066031245E0
7.605372500E0,4.469184798E-1,-3.151687244E0,-4.655539069E0,5.639761753E0
7.615409500E0,1.015483019E0,-3.004196784E0,-6.733990930E0,7.443321699E0
7.625446500E0,1.995676922E0,-2.660751801E0,-7.874081622E0,8.547718287E0
7.635483500E0,3.049035280E0,-2.222549766E0,-8.712909147E0,9.494794858E0
7.645520500E0,3.723423897E0,-1.904569262E0,-9.416937885E0,1.030388222E1
7.655557500E0,4.112939091E0,-1.872170278E0,-1.006078708E1,1.102908546E1
7.665594500E0,4.464286585E0,-2.104715068E0,-1.046987583E1,1.157488575E1
7.675631500E0,4.758720206E0,-2.413631803E0,-1.089727572E1,1.213349309E1
7.685667500E0,5.501485578E0,-2.638378600E0,-1.190383062E1,1.337641838E1
7.695704500E0,6.232078802E0,-2.451193586E0,-1.266005687E1,1.432215752E1
7.705741500E0,6.817464026E0,-2.330586577E0,-1.354390912E1,1.534102095E1
7.715778500E0,6.932502147E0,-2.657321532E0,-1.439732428E1,1.619888546E1
7.725815292E0,6.349473935E0,-3.435910749E0,-1.492712646E1,1.658132704E1
7.735852292E0,6.121129054E0,-4.344359023E0,-1.456391613E1,1.638442338E1
7.745889292E0,6.895623758E0,-5.237712418E0,-1.355038199E1,1.608092381E1
7.755926292E0,6.801917449E0,-7.407290795E0,-1.273765293E1,1.622904310E1
7.765963292E0,6.400759279E0,-9.858030199E0,-1.181025763E1,1.666231269E1
7.776000292E0,7.955670161E0,-1.192626639E1,-1.047908519E1,1.775780798E1
7.786037292E0,9.879761961E0,-1.539046100E1,-9.008729727E0,2.038708408E1
7.796074292E0,1.215807808E1,-1.766046823E1,-5.404465068E0,2.211151834E1
7.806111292E0,1.662816452E1,-1.764749910E1,-9.879940885E-1,2.426738989E1
7.816148292E0,2.241786930E1,-1.564962012E1,1.936234712E0,2.740840161E1
7.826185292E0,2.796351130E1,-1.294701483E1,3.588330411E0,3.102352772E1
7.836222292E0,3.009461090E1,-1.225482494E1,6.490621043E0,3.313600008E1
7.846259292E0,2.649506261E1,-1.235590576E1,1.024744891E1,3.097849188E1
7.856296292E0,1.852583042E1,-1.017761913E1,1.125763494E1,2.394837506E1
7.866333292E0,9.860600635E0,-9.996988109E0,9.912239735E0,1.718789437E1
7.876370292E0,5.809717458E-1,-1.032294115E1,9.756953475E0,1.421614516E1
7.886407292E0,-6.465596715E0,-9.397848480E0,1.084223938E1,1.573777785E1
7.896444292E0,-9.296280005E0,-7.815914690E0,1.090440932E1,1.632223903E1
7.906481292E0,-8.314277558E0,-6.433266875E0,1.014542202E1,1.460971327E1
7.916518292E0,-5.009252347E0,-4.771182961E0,9.523679976E0,1.177103548E1
7.926555292E0,-1.282713346E0,-2.633348533E0,9.853788629E0,1.027993329E1
7.936592292E0,1.371016535E0,-1.660063700E0,1.118306189E1,1.138843146E1
7.946629292E0,2.840370957E0,-1.521518603E0,1.112808169E1,1.158520298E1
7.956666292E0,4.368546031E0,-1.009456294E0,9.288965138E0,1.031445926E1
7.966703292E0,5.645698382E0,-5.122049814E-1,6.573246294E0,8.680082430E0
7.976740292E0,5.345877721E0,-6.039518881E-1,3.627364669E0,6.488523787E0
7.986777292E0,3.879502747E0,-1.111593118E0,1.898620743E0,4.459926182E0
7.996814292E0,2.200558973E0,-1.490865744E0,1.847531866E0,3.237053360E0
8.006851292E0,7.271465823E-1,-1.780857235E0,2.286024508E0,2.987658397E0
8.016888292E0,-6.630605140E-1,-2.094900078E0,2.399931192E0,3.253909235E0
8.026925292E0,-1.568038466E0,-2.313128107E0,2.939606393E0,4.055932940E0
8.036962292E0,-1.732853641E0,-2.300243182E0,4.076800375E0,4.991412800E0
8.046999292E0,-1.725280327E0,-2.187227613E0,4.970849589E0,5.698236786E0
8.057036292E0,-1.584492823E0,-2.178913457E0,5.116225403E0,5.782217891E0
8.067073292E0,-9.727232078E-1,-2.144900789E0,5.044720387E0,5.567404568E0
8.077110292E0,-3.295812339E-2,-1.887726796E0,5.047020097E0,5.388600055E0
8.087147292E0,7.873223251E-1,-1.546670986E0,4.438803835E0,4.766030536E0
8.097184292E0,1.149702053E0,-1.408925788E0,3.494915879E0,3.939711117E0
8.107221292E0,8.868261480E-1,-1.470296409E0,2.821680332E0,3.303045874E0
8.117258292E0,3.680246302E-1,-1.689293346E0,2.842039168E0,3.326611004E0
8.127295292E0,-1.880248207E-1,-1.865689225E0,3.380176551E0,3.865455100E0
8.137332292E0,-6.167444265E-1,-2.036833718E0,4.105832385E0,4.624599968E0
8.147369292E0,-6.756235492E-1,-2.266220573E0,5.077393459E0,5.601084467E0
8.157406292E0,-3.184218228E-1,-2.225903437E0,5.610091177E0,6.043935935E0
8.167443292E0,-2.355433881E-2,-2.092501550E0,5.058087707E0,5.473880598E0
8.177480292E0,-1.456208128E-1,-2.183492412E0,4.018725244E0,4.575914895E0
8.187517292E0,-1.584139359E-1,-2.435059510E0,3.398032193E0,4.183447451E0
8.197554292E0,3.770606250E-1,-2.349240510E0,3.121706815E0,3.925068041E0
8.207591292E0,1.182398806E0,-2.054339990E0,3.035518271E0,3.851331056E0
8.217628292E0,1.941373830E0,-1.878839320E0,2.890999659E0,3.956873585E0
8.227665292E0,2.689467185E0,-1.458375398E0,2.507357115E0,3.955620336E0
8.237702292E0,2.668424810E0,-1.423455242E0,2.512315847E0,3.931723122E0
8.247739292E0,2.090348021E0,-1.544808648E0,3.312803763E0,4.210778714E0
8.257776292E0,1.903193266E0,-1.890072699E0,4.380780452E0,5.136706803E0
8.267813292E0,2.022119200E0,-2.233317706E0,5.189110361E0,6.000295024E0
8.277850292E0,2.182315952E0,-2.437290807E0,5.325996019E0,6.250529816E0
8.287887292E0,2.563636274E0,-2.970381166E0,5.397947177E0,6.673322181E0
8.297924292E0,3.101215832E0,-3.510832292E0,6.143929102E0,7.726017592E0
8.307961292E0,3.399399857E0,-3.877331384E0,6.988080516E0,8.684635131E0
8.317998292E0,3.678896180E0,-4.383791184E0,6.907673700E0,8.970387851E0
8.328035292E0,3.987642031E0,-4.681772895E0,5.785859649E0,8.443723011E0
8.338072292E0,3.751077719E0,-4.761558737E0,4.246916928E0,7.401305902E0
8.348109292E0,3.563501964E0,-4.558393428E0,2.687358094E0,6.379607388E0
8.358146292E0,3.445149642E0,-4.543824506E0,1.206716718E0,5.828512883E0
8.368183292E0,3.275074019E0,-4.084113780E0,-4.133760003E-1,5.251378382E0
8.378220292E0,2.902381264E0,-3.815246233E0,-1.934281157E0,5.169271168E0
8.388257292E0,2.623850901E0,-3.767249071E0,-3.000310432E0,5.484398034E0
8.398294292E0,2.951994304E0,-3.560003283E0,-3.418564691E0,5.751041496E0
8.408331292E0,3.407307047E0,-3.197082102E0,-3.410980268E0,5.784968597E0
8.418368292E0,3.638600094E0,-3.068757646E0,-3.273840256E0,5.777085265E0
8.428405292E0,3.732678870E0,-2.904149462E0,-3.441407424E0,5.848953812E0
8.438442292E0,4.182273620E0,-2.830924780E0,-4.173752473E0,6.551775138E0
8.448479292E0,4.732260386E0,-2.423864138E0,-5.355416284E0,7.546515043E0
8.458516292E0,5.196043990E0,-2.036539019E0,-6.563979042E0,8.615810187E0
8.468553292E0,5.458868732E0,-1.769241887E0,-7.534954809E0,9.471272811E0
8.478590292E0,5.346658325E0,-1.727936279E0,-8.472764584E0,1.016662475E1
8.488627292E0,5.104818070E0,-1.874995945E0,-9.347854201E0,1.081467316E1
8.498664292E0,4.805145344E0,-1.901412789E0,-9.569177746E0,1.087538299E1
8.508701292E0,4.489160056E0,-2.013708565E0,-8.942826344E0,1.020694485E1
8.518738292E0,4.188547098E0,-2.359717990E0,-7.785581675E0,9.150272007E0
8.528775292E0,3.770013342E0,-2.998063931E0,-6.611715710E0,8.180230594E0
8.538812292E0,3.294725926E0,-3.782296003E0,-5.705544634E0,7.596987663E0
8.548849292E0,2.845104278E0,-4.241443934E0,-5.153240032E0,7.255366830E0
8.558886292E0,2.783948250E0,-4.269621082E0,-5.220232167E0,7.295947911E0
8.568923292E0,3.312286284E0,-3.867839014E0,-5.792910222E0,7.712926027E0
8.578960292E0,4.298551936E0,-3.114424985E0,-6.125734321E0,8.105665470E0
8.588997292E0,5.815540701E0,-2.568115826E0,-7.061221583E0,9.501398990E0
8.599034292E0,7.074750870E0,-2.361220871E0,-8.249355338E0,1.112112078E1
8.609071292E0,7.472352764E0,-2.402854508E0,-8.856158913E0,1.183390537E1
8.619108292E0,7.227741514E0,-2.574596295E0,-9.200943493E0,1.198024017E1
8.629145292E0,6.822071632E0,-2.790179335E0,-9.048808297E0,1.167076234E1
8.639182292E0,5.947680173E0,-3.114315642E0,-8.494265966E0,1.082711484E1
8.649219292E0,4.859475333E0,-3.557409750E0,-8.222323660E0,1.019197091E1
8.659256292E0,4.244802575E0,-3.731087550E0,-8.344389549E0,1.007810499E1
8.669293292E0,4.181292458E0,-4.008943730E0,-8.408477372E0,1.021064778E1
8.679330292E0,4.468235210E0,-4.616030018E0,-8.587095777E0,1.072432156E1
8.689366292E0,4.699588484E0,-4.901204280E0,-9.081097791E0,1.133905959E1
8.699403292E0,4.749153576E0,-5.344234069E0,-9.356609237E0,1.177545897E1
8.709440292E0,4.818574060E0,-6.365965422E0,-9.093573411E0,1.210112594E1
8.719477292E0,5.380141236E0,-6.538582245E0,-8.708404452E0,1.214641040E1
8.729514125E0,6.857084175E0,-6.251924252E0,-9.210739918E0,1.307455124E1
8.739551125E0,9.367596740E0,-6.701706698E0,-9.839434884E0,1.514857156E1
8.749588125E0,1.176539078E1,-8.314010925E0,-9.798338313E0,1.742281927E1
8.759625125E0,1.299873228E1,-1.173949112E1,-8.289629790E0,1.937783927E1
8.769662125E0,1.233317763E1,-1.688425970E1,-4.373801216E0,2.136154567E1
8.779699125E0,1.039538347E1,-1.932519859E1,2.876818407E-1,2.194561594E1
8.789736125E0,1.182569428E1,-1.751553563E1,3.572939955E0,2.143378020E1
8.799773125E0,1.506707840E1,-1.541997423E1,4.597667422E0,2.204384273E1
8.809810125E0,1.581939403E1,-1.435871863E1,5.173560276E0,2.198162309E1
8.819847125E0,1.382502922E1,-1.363453980E1,6.532394722E0,2.048668566E1
8.829884125E0,1.068773957E1,-1.285928671E1,8.731020897E0,1.886318525E1
8.839921125E0,6.631759965E0,-1.181393319E1,1.092332740E1,1.740311292E1
8.849958125E0,2.739811127E0,-1.035859513E1,1.279566199E1,1.668939854E1
8.859995125E0,3.125371850E-1,-8.611086318E0,1.403651015E1,1.647034013E1
8.870032125E0,-2.824146688E-1,-7.067443020E0,1.471032340E1,1.632244232E1
8.880069125E0,4.715241480E-1,-6.111726147E0,1.467418410E1,1.590305664E1
8.890106125E0,8.990982842E-1,-5.656316341E0,1.361752557E1,1.477292439E1
8.900143125E0,1.317748985E0,-5.384099801E0,1.181524647E1,1.305086366E1
8.910180125E0,1.777421411E0,-5.227046512E0,1.036001249E1,1.173929729E1
8.920217125E0,2.034578447E0,-4.926738194E0,9.428787267E0,1.083117205E1
8.930254125E0,1.796915444E0,-4.770143327E0,8.890678536E0,1.024828460E1
8.940291125E0,9.339517826E-1,-4.931527063E0,8.738363246E0,1.007726239E1
8.950328125E0,1.316792965E-3,-5.009040093E0,8.550437243E0,9.909614596E0
8.960365125E0,-7.192841238E-1,-5.037048841E0,8.044792253E0,9.518818890E0
8.970402125E0,-1.290155097E0,-5.014943442E0,7.439814763E0,9.064491249E0
8.980439125E0,-1.689761124E0,-4.911550636E0,7.127251266E0,8.819089120E0
8.990476125E0,-1.945842272E0,-4.823852926E0,7.066433791E0,8.774414266E0
9.000513125E0,-1.849147452E0,-4.536272827E0,7.389838026E0,8.866048923E0
9.010550125E0,-1.508554741E0,-4.270677674E0,8.086136160E0,9.268226541E0
9.020587125E0,-9.951984429E-1,-4.111984241E0,8.514511950E0,9.507667857E0
9.030624125E0,-5.770511878E-1,-4.023422897E0,8.256364396E0,9.202634021E0
9.040661125E0,-4.131853080E-1,-4.264772571E0,7.630901186E0,8.751551867E0
9.050698125E0,-9.076165080E-2,-4.406540653E0,6.463636728E0,7.823326527E0
9.060735125E0,-3.332386672E-2,-4.356901301E0,4.948347749E0,6.593166528E0
9.070772125E0,-4.191102916E-1,-4.243264173E0,4.279585907E0,6.041175367E0
9.080809125E0,-9.507099026E-1,-4.215691043E0,4.444965046E0,6.199485023E0
9.090846125E0,-1.689748260E0,-4.504789664E0,5.114642562E0,7.021961808E0
9.100883125E0,-2.653007457E0,-5.052859127E0,6.234672042E0,8.452275989E0
9.110920125E0,-2.448444956E0,-5.315039506E0,7.152981938E0,9.241735674E0
9.120957125E0,-1.435893146E0,-5.367698361E0,7.619680379E0,9.430456187E0
9.130994125E0,-1.053118622E-1,-5.369438492E0,7.681039306E0,9.372316956E0
9.141031125E0,1.805392737E0,-4.945249309E0,6.829397024E0,8.622969174E0
9.151068125E0,2.988165765E0,-4.486133245E0,4.914438576E0,7.294260253E0
9.161105125E0,2.664159851E0,-4.783004570E0,3.535762481E0,6.517399539E0
9.171142125E0,1.811331754E0,-5.166387497E0,3.015426946E0,6.250222568E0
9.181179125E0,1.064882635E0,-5.364284756E0,2.757934572E0,6.125008496E0
9.191216125E0,2.210972571E-1,-5.733976135E0,2.650244940E0,6.320693360E0
9.201253125E0,3.538120955E-1,-6.127627065E0,2.815738684E0,6.752879444E0
9.211290125E0,1.599844396E0,-5.862653471E0,3.395135775E0,6.961117349E0
9.221327125E0,2.582062020E0,-5.631804228E0,3.825116333E0,7.281193453E0
9.231364125E0,3.036067325E0,-5.791569455E0,3.552682861E0,7.441877254E0
9.241401125E0,3.344835395E0,-6.235693551E0,2.787777007E0,7.605491339E0
9.251438125E0,3.854827790E0,-6.276852686E0,1.986403091E0,7.629179129E0
9.261475125E0,5.369275939E0,-5.424776541E0,9.099214804E-1,7.686695111E0
9.271512125E0,6.820100536E0,-4.539620942E0,-5.695094490E-1,8.212567846E0
9.281549125E0,7.080623814E0,-3.777770258E0,-1.986255888E0,8.267526484E0
9.291586125E0,6.918103378E0,-3.091610319E0,-2.870354894E0,8.102909720E0
9.301623125E0,6.480513546E0,-2.799917580E0,-3.063633438E0,7.695612005E0
9.311660125E0,5.862221362E0,-3.064722775E0,-3.356771901E0,7.417956766E0
9.321697125E0,5.467597455E0,-2.761176268E0,-4.181701763E0,7.416558902E0
9.331734125E0,5.296203285E0,-2.141566560E0,-4.900322520E0,7.526568765E0
9.341771125E0,4.941090184E0,-1.986108392E0,-4.943939533E0,7.266466601E0
9.351808125E0,4.683916191E0,-2.441273784E0,-4.881654992E0,7.192318405E0
9.361845125E0,4.610792667E0,-2.631204359E0,-5.264894954E0,7.476748242E0
9.371882125E0,4.525806895E0,-2.824910919E0,-5.812050498E0,7.889422079E0
9.381919125E0,4.192855911E0,-3.293310900E0,-6.421830305E0,8.346606607E0
9.391956125E0,3.873930058E0,-3.608759998E0,-6.702506597E0,8.541315912E0
9.401993125E0,3.680230515E0,-3.872602156E0,-6.408213310E0,8.343041527E0
9.412030125E0,3.403581201E0,-4.525082425E0,-6.311661161E0,8.479257194E0
9.422067125E0,2.992896162E0,-4.981592093E0,-6.538445420E0,8.747854350E0
9.432104125E0,2.984489036E0,-5.275957301E0,-6.929921771E0,9.206884163E0
9.442141125E0,3.269451921E0,-5.392606330E0,-7.487367829E0,9.789289857E0
9.452178125E0,3.491167229E0,-5.459229505E0,-8.240100365E0,1.048287601E1
9.462215125E0,3.967120058E0,-5.467338424E0,-9.218292766E0,1.142833113E1
9.472252125E0,4.370831122E0,-5.393985688E0,-9.873211910E0,1.206977878E1
9.482289125E0,4.704427639E0,-5.301007943E0,-1.033792171E1,1.253415135E1
9.492326125E0,5.030906340E0,-5.321167388E0,-1.048659886E1,1.279037125E1
9.502363125E0,5.409763815E0,-5.102212551E0,-9.896539961E0,1.237899918E1
9.512400125E0,5.692913479E0,-4.885293421E0,-9.191887325E0,1.186449107E1
9.522437125E0,5.892157352E0,-4.630537252E0,-9.022047930E0,1.172845865E1
9.532474125E0,6.126975685E0,-4.507926402E0,-9.396810014E0,1.208971753E1
9.542511125E0,5.702083082E0,-4.762036454E0,-9.577493071E0,1.212101960E1
9.552548125E0,4.895947925E0,-5.601567106E0,-9.532705153E0,1.209215976E1
9.562585125E0,4.689566356E0,-6.409416082E0,-8.914267958E0,1.193887852E1
9.572622125E0,4.783622328E0,-6.898293597E0,-7.503755236E0,1.125947777E1
9.582659125E0,4.908120659E0,-7.173032041E0,-6.240523351E0,1.069982097E1
9.592696125E0,5.353253984E0,-6.963788259E0,-5.204324232E0,1.020963593E1
9.602733125E0,5.830700777E0,-6.537053783E0,-4.822387029E0,9.999277992E0
9.612770125E0,6.488669828E0,-5.944363047E0,-5.638178862E0,1.045118888E1
9.622807125E0,7.142740540E0,-5.719824119E0,-7.175048161E0,1.162826068E1
9.632844125E0,7.523779610E0,-6.442194403E0,-8.312035736E0,1.293054780E1
9.642881125E0,7.234727182E0,-7.649416979E0,-8.457358925E0,1.350487977E1
9.652918125E0,6.616094690E0,-9.743676202E0,-7.814213151E0,1.413413818E1
9.662955125E0,6.344044796E0,-1.238023018E1,-5.978399690E0,1.514127691E1
9.672992125E0,6.133903466E0,-1.441043725E1,-3.964679430E0,1.615562306E1
9.683029125E0,6.662023984E0,-1.577693388E1,-2.680926157E0,1.733440427E1
9.693066125E0,7.838421793E0,-1.735807128E1,-1.760756262E0,1.912704257E1
9.703103125E0,9.144443602E0,-1.912985130E1,-7.386752450E-1,2.121597749E1
9.713140125E0,1.070773237E1,-2.073791045E1,4.086864603E-1,2.334273949E1
9.723177542E0,1.133112158E1,-2.276442676E1,2.675682374E0,2.556897960E1
9.733214542E0,1.010667135E1,-2.361175379E1,6.234061008E0,2.642959023E1
9.743251542E0,8.794115862E0,-2.194742338E1,1.027667681E1,2.578053438E1
9.753288542E0,7.697065355E0,-1.870690582E1,1.425815938E1,2.474849994E1
9.763325542E0,6.778336213E0,-1.451969598E1,1.692962240E1,2.331050252E1
9.773362542E0,6.269210960E0,-1.078149383E1,1.717204446E1,2.122316485E1
9.783399542E0,5.534099593E0,-8.591852487E0,1.566314707E1,1.870241598E1
9.793436542E0,4.144425763E0,-7.613944845E0,1.358650609E1,1.611649989E1
9.803473542E0,2.892456785E0,-7.217971401E0,1.175955876E1,1.409796580E1
9.813510542E0,1.544328007E0,-7.490789035E0,1.061682220E1,1.308486848E1
9.823547542E0,2.372004890E-1,-7.461186336E0,1.002721938E1,1.250082774E1
9.833584542E0,-1.684699774E-2,-6.730221230E0,9.397829769E0,1.155921130E1
9.843621542E0,2.466235694E-1,-6.170015286E0,8.329956282E0,1.036909270E1
9.853658542E0,5.398585108E-1,-5.984920505E0,7.129921689E0,9.324510923E0
9.863695542E0,8.693733788E-1,-5.635108489E0,6.423471619E0,8.589018884E0
9.873732542E0,1.142343332E0,-5.070041170E0,6.387618831E0,8.234800550E0
9.883769542E0,1.317679110E0,-4.418418102E0,6.919716040E0,8.315116767E0
9.893806542E0,1.329827286E0,-3.897810087E0,7.542593611E0,8.593723435E0
9.903843542E0,1.017820443E0,-3.616434469E0,8.081132698E0,8.911748560E0
9.913880542E0,5.072111669E-1,-3.347190068E0,8.663459244E0,9.301423041E0
9.923917542E0,-4.246540368E-3,-3.085520151E0,9.072986534E0,9.583294698E0
9.933954542E0,-5.104245043E-1,-3.184969595E0,8.965269127E0,9.527886178E0
9.943991542E0,-1.159782946E0,-3.525930680E0,8.442868356E0,9.222760417E0
9.954028542E0,-1.544962722E0,-3.846833476E0,7.384268553E0,8.468320948E0
9.964065542E0,-1.735032314E0,-4.250750948E0,5.863610076E0,7.447223903E0
9.974102542E0,-2.238166217E0,-4.791503205E0,4.556007764E0,6.980336506E0
9.984139542E0,-2.873955610E0,-4.832985107E0,4.073707198E0,6.943519009E0
9.994176542E0,-3.250753402E0,-4.405135567E0,4.894472965E0,7.343601477E0
1.000421354E1,-3.279083455E0,-4.271142527E0,6.084962271E0,8.125380769E0
1.001425054E1,-2.926517401E0,-4.407045853E0,6.917417500E0,8.708456931E0
1.002428754E1,-2.268971103E0,-4.365827075E0,7.354143113E0,8.848282141E0
1.003432454E1,-1.307170202E0,-4.353462553E0,7.077872699E0,8.411754400E0
1.004436154E1,-3.134095895E-1,-4.744929548E0,6.618773299E0,8.149892145E0
1.005439854E1,7.593621093E-1,-4.852842252E0,6.149334269E0,7.870261792E0
1.006443554E1,1.734661893E0,-5.032209685E0,5.547456973E0,7.688072909E0
1.007447254E1,2.236680440E0,-5.575436484E0,5.295971736E0,8.008467269E0
1.008450954E1,2.689845500E0,-5.967316293E0,4.826427747E0,8.132560319E0
1.009454654E1,3.146660977E0,-6.024354712E0,3.615223218E0,7.698322149E0
1.010458354E1,3.345618922E0,-5.943925676E0,2.581185230E0,7.292868818E0
1.011462054E1,3.237105709E0,-5.798709490E0,1.960037119E0,6.924278347E0
1.012465754E1,2.612331886E0,-5.914108384E0,1.801765417E0,6.711729619E0
1.013469454E1,1.727216633E0,-6.571858749E0,2.325448336E0,7.181943656E0
1.014473154E1,1.338076245E0,-7.569458059E0,3.114731379E0,8.293895038E0
1.015476854E1,2.380849389E0,-8.026312128E0,3.580155419E0,9.105363420E0
1.016480554E1,4.602591362E0,-7.416367428E0,3.449537977E0,9.385396387E0
1.017484254E1,7.025552398E0,-6.109948009E0,2.726224537E0,9.701657147E0
1.018487954E1,8.428156761E0,-5.107843419E0,1.184904338E0,9.926121552E0
1.019491654E1,8.780946178E0,-4.212771528E0,-1.155864653E0,9.807572729E0
1.020495354E1,8.416163537E0,-3.484671557E0,-3.651379184E0,9.813629017E0
1.021499054E1,6.953608841E0,-3.266699929E0,-5.891055737E0,9.681350218E0
1.022502754E1,5.647694621E0,-2.566440891E0,-7.783146894E0,9.952911582E0
1.023506454E1,4.502773544E0,-2.212064831E0,-8.539689476E0,9.904266593E0
1.024510154E1,3.287318088E0,-2.037081787E0,-7.574980754E0,8.505086469E0
1.025513854E1,2.649721906E0,-2.110506589E0,-5.704261170E0,6.634294216E0
1.026517554E1,2.076279035E0,-2.461047460E0,-4.008703117E0,5.141730245E0
1.027521254E1,1.545009792E0,-2.707461991E0,-2.795154439E0,4.186919396E0
1.028524954E1,1.325895326E0,-3.131980957E0,-2.294051566E0,4.102435340E0
1.029528654E1,1.632577109E0,-3.547991640E0,-2.406929286E0,4.587685831E0
1.030532354E1,2.335469148E0,-3.387306646E0,-2.835739962E0,4.996967439E0
1.031536054E1,3.240296534E0,-2.973051297E0,-3.594064776E0,5.679424025E0
1.032539754E1,3.880635645E0,-2.542879828E0,-4.607025598E0,6.538367968E0
1.033543454E1,3.896065863E0,-2.369984385E0,-5.373622760E0,7.047834898E0
1.034547154E1,3.664011508E0,-2.478506076E0,-5.724316535E0,7.234346722E0
1.035550854E1,3.623321319E0,-2.720724646E0,-6.097465373E0,7.596702176E0
1.036554454E1,3.733605654E0,-2.906315271E0,-6.847683606E0,8.323295645E0
1.037558254E1,3.904813297E0,-3.228983926E0,-7.553715016E0,9.095741565E0
1.038561854E1,4.056167305E0,-3.508065097E0,-7.885502989E0,9.536255624E0
1.039565554E1,4.345562965E0,-3.717033183E0,-8.052236343E0,9.876171489E0
1.040569254E1,4.785342579E0,-3.858173859E0,-8.397506826E0,1.040687898E1
1.041572954E1,5.170163044E0,-3.768675499E0,-8.932691950E0,1.098756053E1
1.042576654E1,5.695623078E0,-3.602930616E0,-9.301298085E0,1.148631261E1
1.043580354E1,6.315577042E0,-3.302604464E0,-9.212347902E0,1.164736294E1
1.044584054E1,6.921977159E0,-2.878698871E0,-8.905844459E0,1.164107987E1
1.045587754E1,7.706572927E0,-2.516037599E0,-9.129278848E0,1.220923600E1
1.046591454E1,8.012009254E0,-2.509844229E0,-9.583431503E0,1.274102703E1
1.047595154E1,7.317397456E0,-3.112162112E0,-9.437296135E0,1.234068138E1
1.048598854E1,6.781015992E0,-3.872058072E0,-8.689066540E0,1.168224674E1
1.049602554E1,6.400546440E0,-4.467880577E0,-7.941784194E0,1.113556859E1
1.050606254E1,5.793755144E0,-4.863906938E0,-7.687454286E0,1.078527435E1
1.051609954E1,5.267740209E0,-4.821347686E0,-7.392758126E0,1.027848983E1
1.052613654E1,5.001202485E0,-4.723456818E0,-7.277711234E0,1.001439721E1
1.053617354E1,4.922942181E0,-4.270430337E0,-7.774167910E0,1.014443797E1
1.054621054E1,5.295322695E0,-3.873486547E0,-8.930185833E0,1.108118042E1
1.055624754E1,5.442417006E0,-4.590160766E0,-1.013171497E1,1.238309844E1
1.056628454E1,5.250620146E0,-6.226816893E0,-1.042241515E1,1.322758474E1
1.057632154E1,4.818864666E0,-8.632806385E0,-9.759440296E0,1.389220924E1
1.058635854E1,4.706043225E0,-1.141082731E1,-8.531379413E0,1.500460787E1
1.059639554E1,5.080347472E0,-1.458089528E1,-6.634994645E0,1.680582017E1
1.060643254E1,5.969807791E0,-1.672036927E1,-4.561577237E0,1.833077577E1
1.061646954E1,8.317673621E0,-1.861603658E1,-2.603530072E0,2.055526408E1
1.062650654E1,1.073950147E1,-2.062031593E1,-1.928879499E-1,2.325019412E1
1.063654354E1,1.250729719E1,-2.145816580E1,3.403516297E0,2.506928969E1
1.064658054E1,1.315801745E1,-2.091928874E1,8.304972884E0,2.607149093E1
1.065661754E1,1.165624899E1,-1.899162780E1,1.327125814E1,2.593600508E1
1.066665454E1,8.711393548E0,-1.490575255E1,1.662693544E1,2.396924735E1
1.067669154E1,5.870533764E0,-1.049005925E1,1.804455194E1,2.168202861E1
1.068672854E1,3.410849875E0,-7.375110059E0,1.813368924E1,1.987100477E1
1.069676554E1,1.087668650E0,-5.429445543E0,1.774280053E1,1.858679296E1
1.070680254E1,-5.959540665E-1,-4.414339085E0,1.679842258E1,1.737896867E1
1.071683954E1,-1.340405191E0,-4.210691088E0,1.429061260E1,1.495821560E1
1.072687637E1,-9.370876443E-1,-4.405015115E0,1.035568789E1,1.129258886E1
1.073691337E1,4.935050011E-4,-4.592159929E0,6.657468418E0,8.087633696E0
1.074695037E1,7.987208873E-1,-4.738852537E0,4.408379602E0,6.521387056E0
1.075698737E1,1.243855966E0,-4.710352038E0,3.807243441E0,6.183016789E0
1.076702437E1,1.695880235E0,-4.179376325E0,4.624902875E0,6.460102386E0
1.077706137E1,1.913914720E0,-3.383143428E0,5.740302823E0,6.932517977E0
1.078709837E1,1.670913209E0,-2.885917844E0,6.218717330E0,7.056409709E0
1.079713537E1,9.224397844E-1,-2.730633922E0,6.332989465E0,6.958017845E0
1.080717237E1,7.931748033E-3,-2.674231680E0,6.408802124E0,6.944373453E0
1.081720937E1,-6.812082249E-1,-2.589885010E0,6.322367413E0,6.866140016E0
1.082724637E1,-1.080482422E0,-2.519520786E0,5.733743416E0,6.355410358E0
1.083728337E1,-1.333541729E0,-2.575124298E0,4.542209212E0,5.388994640E0
1.084732037E1,-1.447740775E0,-2.791487065E0,3.190992812E0,4.480043360E0
1.085735737E1,-1.412396695E0,-2.690917295E0,2.475320806E0,3.919580769E0
1.086739438E1,-1.198595009E0,-2.381897795E0,2.495432596E0,3.652020118E0
1.087743138E1,-1.060345781E0,-2.217296920E0,2.686999368E0,3.641525011E0
1.088746838E1,-1.078938757E0,-2.164614092E0,3.213911266E0,4.022298924E0
1.089750538E1,-1.075532754E0,-2.101786929E0,4.024494984E0,4.665923154E0
1.090754238E1,-9.073989916E-1,-2.092133176E0,4.852733493E0,5.361848237E0
1.091757938E1,-7.869054186E-1,-2.092940091E0,5.616818984E0,6.045516840E0
1.092761638E1,-6.480393094E-1,-2.308112365E0,5.880290428E0,6.350208906E0
1.093765338E1,-5.215815765E-1,-2.445254715E0,5.781567208E0,6.299034636E0
1.094769038E1,-3.212583071E-1,-2.464379788E0,5.413682034E0,5.956872317E0
1.095772738E1,-2.468255907E-1,-2.683201894E0,4.532732630E0,5.273154689E0
1.096776438E1,-6.972097152E-1,-2.988617755E0,3.851826999E0,4.924886668E0
1.097780138E1,-1.204485494E0,-3.039822991E0,3.590549430E0,4.856269590E0
1.098783838E1,-1.511083077E0,-3.110883911E0,3.794625150E0,5.134213747E0
1.099787538E1,-1.611910125E0,-3.416638910E0,4.356322134E0,5.766213509E0
1.100791238E1,-1.304585733E0,-3.765941341E0,5.014225988E0,6.405210409E0
1.101794938E1,-6.332604718E-1,-4.090798025E0,5.496113741E0,6.880618690E0
1.102798638E1,4.655319214E-1,-4.030734256E0,5.411116276E0,6.763410232E0
1.103802338E1,1.835790657E0,-3.777340488E0,4.203410428E0,5.941976752E0
1.104806038E1,3.006443576E0,-3.633061319E0,2.261785168E0,5.230058285E0
1.105809738E1,3.432228464E0,-3.415831118E0,6.201442900E-1,4.881871915E0
1.106813438E1,3.217445031E0,-3.263757318E0,-1.269722879E-1,4.584777674E0
1.107817138E1,2.530831055E0,-3.296075463E0,1.321695855E-1,4.157726312E0
1.108820838E1,1.806661583E0,-3.492136112E0,1.092212229E0,4.080682327E0
1.109824538E1,1.658147568E0,-3.453751481E0,1.507827348E0,4.117207300E0
1.110828238E1,1.732404867E0,-3.668296933E0,1.463931276E0,4.312855642E0
1.111831938E1,1.526247831E0,-3.962815922E0,1.624996194E0,4.546862117E0
1.112835638E1,1.554936025E0,-4.228597602E0,1.785539832E0,4.846340497E0
1.113839338E1,1.896502882E0,-4.626752642E0,1.730326767E0,5.291275263E0
1.114843038E1,2.218879761E0,-4.960023469E0,1.791472270E0,5.721418801E0
1.115846738E1,2.616685138E0,-5.223337623E0,1.939838351E0,6.155750958E0
1.116850438E1,3.094152980E0,-5.137290582E0,1.828050113E0,6.269553764E0
1.117854138E1,3.428879764E0,-4.884819505E0,1.243844272E0,6.096378154E0
1.118857838E1,3.502562283E0,-4.747384501E0,-5.978781659E-2,5.899930231E0
1.119861538E1,3.265569370E0,-4.516020411E0,-1.626167391E0,5.805411617E0
1.120865238E1,2.972215730E0,-4.131993121E0,-2.921214561E0,5.868639366E0
1.121868938E1,2.680640228E0,-3.815889426E0,-3.790760432E0,6.009717864E0
1.122872638E1,2.365055475E0,-3.398101775E0,-4.302920975E0,5.971240406E0
1.123876338E1,2.267934977E0,-3.211942801E0,-4.383322822E0,5.888431419E0
1.124880038E1,2.207157263E0,-2.993597243E0,-4.267144494E0,5.660537940E0
1.125883738E1,2.466034550E0,-2.678597504E0,-4.134955028E0,5.509452248E0
1.126887438E1,2.756541765E0,-2.443227632E0,-4.147699619E0,5.547188107E0
1.127891138E1,3.047250710E0,-2.245285787E0,-4.553119532E0,5.920974804E0
1.128894838E1,3.355737528E0,-1.976563251E0,-5.070221264E0,6.393349694E0
1.129898537E1,3.333306440E0,-1.765371469E0,-5.668183265E0,6.808507161E0
1.130902237E1,3.153580572E0,-1.983112571E0,-6.128029938E0,7.171510079E0
1.131905937E1,2.705399094E0,-2.425320534E0,-6.262570277E0,7.240245191E0
1.132909637E1,2.190581576E0,-2.944652540E0,-6.063826341E0,7.087990979E0
1.133913337E1,1.835540981E0,-3.301164880E0,-5.568685289E0,6.728830218E0
1.134917037E1,1.914715204E0,-3.556090618E0,-4.911460004E0,6.358801315E0
1.135920737E1,2.249464792E0,-3.726700677E0,-4.547615840E0,6.295172723E0
1.136924437E1,2.977046700E0,-3.985364540E0,-4.649026440E0,6.808772607E0
1.137928137E1,3.697502605E0,-4.418625971E0,-4.965487692E0,7.606040297E0
1.138931837E1,4.269943264E0,-4.669010762E0,-5.408596711E0,8.323760889E0
1.139935537E1,5.028521261E0,-4.637199862E0,-6.032697519E0,9.120476303E0
1.140939237E1,5.919155116E0,-4.140858961E0,-6.873085080E0,9.971078615E0
1.141942937E1,6.644003450E0,-3.520485168E0,-7.786688552E0,1.082446841E1
1.142946637E1,6.950513325E0,-3.128853574E0,-8.396450819E0,1.134018283E1
1.143950337E1,7.009774856E0,-2.904657293E0,-8.485689270E0,1.138336066E1
1.144954037E1,7.119892545E0,-2.893892276E0,-8.356038957E0,1.135301147E1
1.145957737E1,7.312315056E0,-3.046532964E0,-8.286318512E0,1.146361152E1
1.146961437E1,7.416429409E0,-3.253763549E0,-7.799252465E0,1.124360891E1
1.147965137E1,7.311047380E0,-3.651267502E0,-7.037536851E0,1.078471572E1
1.148968837E1,6.870345660E0,-4.290006230E0,-6.360512309E0,1.029863679E1
1.149972537E1,6.208432662E0,-4.768229240E0,-5.800226258E0,9.742857427E0
1.150976237E1,5.629096382E0,-5.057798270E0,-5.518541322E0,9.366020913E0
1.151979937E1,5.613652716E0,-5.089324118E0,-5.918275695E0,9.614588083E0
1.152983637E1,6.073001207E0,-4.638183948E0,-7.078012447E0,1.041596631E1
1.153987337E1,7.285660524E0,-3.870887167E0,-8.526021609E0,1.186413339E1
1.154991037E1,8.433395866E0,-3.629715542E0,-9.523972921E0,1.322887225E1
1.155994737E1,8.693556032E0,-5.011653214E0,-9.984711295E0,1.415588373E1
1.156998437E1,7.812202293E0,-7.589933839E0,-1.003271927E1,1.480854673E1
1.158002137E1,6.475287305E0,-9.976940346E0,-9.890829570E0,1.546923379E1
1.159005837E1,5.567490703E0,-1.244441390E1,-9.708153198E0,1.673644611E1
1.160009537E1,5.190426570E0,-1.513891144E1,-9.602559500E0,1.866377016E1
1.161013237E1,5.609691812E0,-1.845412835E1,-8.880043620E0,2.123390379E1
1.162016937E1,5.353999504E0,-2.339654117E1,-6.190372367E0,2.478677388E1
1.163020637E1,4.234140177E0,-2.675182320E1,-1.585391540E0,2.713118969E1
1.164024337E1,4.794434999E0,-2.742863374E1,4.314054658E0,2.817672130E1
1.165028037E1,6.094036565E0,-2.488271628E1,9.973306886E0,2.749097491E1
1.166031737E1,6.540041710E0,-1.990719184E1,1.365737551E1,2.501184397E1
1.167035437E1,5.730564870E0,-1.569814499E1,1.524569212E1,2.262083682E1
1.168039137E1,4.240352259E0,-1.261622497E1,1.493303916E1,2.000363413E1
1.169042837E1,2.374566556E0,-1.044468953E1,1.330231387E1,1.707869023E1
1.170046537E1,5.801858801E-1,-9.146579005E0,1.227298757E1,1.531740014E1
1.171050237E1,-7.703092664E-1,-8.435494432E0,1.217329956E1,1.483037979E1
1.172053937E1,-1.438349562E0,-7.735575117E0,1.202757057E1,1.437255808E1
1.173057600E1,-1.576567215E0,-6.898444455E0,1.196795470E1,1.390345424E1
1.174061300E1,-1.427120569E0,-6.299432294E0,1.140397087E1,1.310610819E1
1.175065000E1,-8.619813287E-1,-5.951608332E0,1.002967872E1,1.169440502E1
1.176068700E1,-6.519177675E-2,-5.750400379E0,8.334553363E0,1.012601275E1
1.177072400E1,1.971067160E-1,-5.472564080E0,7.048570547E0,8.925813992E0
1.178076100E1,8.167449296E-2,-5.246304901E0,6.582568510E0,8.417873486E0
1.179079800E1,-3.049346352E-1,-5.001755047E0,6.787792915E0,8.437100885E0
1.180083500E1,-8.577964765E-1,-4.845917979E0,7.118071722E0,8.653651304E0
1.181087200E1,-1.424910321E0,-4.629518375E0,7.072759309E0,8.572440379E0
1.182090900E1,-1.962393401E0,-4.327900865E0,6.865972527E0,8.350047455E0
1.183094600E1,-2.326491918E0,-4.051792418E0,6.727271894E0,8.190590552E0
1.184098300E1,-2.393802141E0,-3.818090903E0,6.574279497E0,7.970524307E0
1.185102000E1,-2.369539704E0,-3.602163754E0,6.504795864E0,7.804016360E0
1.186105700E1,-2.250514952E0,-3.360165040E0,6.595578564E0,7.736742418E0
1.187109400E1,-2.145505975E0,-3.209392245E0,6.876734912E0,7.886246099E0
1.188113100E1,-2.083913160E0,-3.212060915E0,7.178713195E0,8.135966600E0
1.189116800E1,-2.070362822E0,-3.285202566E0,7.041035825E0,8.040842220E0
1.190120500E1,-1.929206359E0,-3.503643433E0,6.307403219E0,7.468647123E0
1.191124200E1,-1.919118158E0,-3.848415733E0,5.360115691E0,6.871983584E0
1.192127900E1,-2.114305817E0,-4.004201345E0,4.829936954E0,6.620589738E0
1.193131600E1,-2.288789656E0,-3.953759170E0,4.710668957E0,6.562101164E0
1.194135300E1,-2.379971137E0,-4.022365721E0,4.840442061E0,6.728563588E0
1.195139000E1,-2.605906965E0,-4.243489875E0,5.369047898E0,7.322884183E0
1.196142700E1,-2.896529955E0,-4.612584838E0,6.105790054E0,8.182083894E0
1.197146400E1,-2.831767364E0,-5.033501920E0,6.571085747E0,8.748383615E0
1.198150100E1,-2.331306515E0,-5.502560881E0,6.650481580E0,8.941033026E0
1.199153800E1,-1.716495178E0,-5.942359791E0,6.224026601E0,8.774765109E0
1.200157500E1,-9.309621012E-1,-6.414960412E0,5.321766143E0,8.386870835E0
1.201161200E1,3.091270888E-1,-6.579545499E0,4.354996862E0,7.896326754E0
1.202164900E1,1.373621469E0,-6.501065340E0,3.853325640E0,7.681067959E0
1.203168600E1,1.729235677E0,-6.421477718E0,3.333452035E0,7.438920257E0
1.204172300E1,1.495699053E0,-6.462017049E0,2.629642568E0,7.135110373E0
1.205176000E1,8.764771610E-1,-6.804849243E0,2.224524078E0,7.212675843E0
1.206179700E1,8.571725786E-2,-7.209657245E0,2.214015462E0,7.542437902E0
1.207183400E1,-4.928664851E-1,-7.510353234E0,2.249443742E0,7.855464354E0
1.208187100E1,-5.216260153E-1,-7.980014459E0,2.291654792E0,8.318918568E0
1.209190800E1,1.200456762E-1,-8.291071714E0,2.191893107E0,8.576752096E0
1.210194500E1,1.038347971E0,-8.216336696E0,1.833362308E0,8.482191495E0
1.211198200E1,2.017470079E0,-8.205296568E0,1.444380965E0,8.572240878E0
1.212201900E1,2.898981693E0,-7.686559078E0,5.445289377E-1,8.233091586E0
1.213205600E1,3.662267869E0,-6.904294009E0,-9.154143548E-1,7.868892244E0
1.214209300E1,4.218076707E0,-6.035849753E0,-2.546817343E0,7.791657842E0
1.215213000E1,4.448658732E0,-5.003108093E0,-4.133093274E0,7.867916822E0
1.216216700E1,4.713255765E0,-4.108392589E0,-6.056337812E0,8.704762907E0
1.217220400E1,5.144060488E0,-3.190616251E0,-8.007864162E0,1.003829063E1
1.218224100E1,5.605764238E0,-2.127800460E0,-9.481226851E0,1.121810100E1
1.219227800E1,5.898002813E0,-1.068981241E0,-1.042198012E1,1.202276289E1
1.220231500E1,6.102122680E0,-6.025161043E-1,-1.092947750E1,1.253205511E1
1.221235200E1,5.821384993E0,-3.687346284E-1,-1.052877366E1,1.203659268E1
1.222238900E1,5.508205783E0,-7.295781469E-1,-9.354803617E0,1.088048556E1
1.223242600E1,5.193149033E0,-1.378084356E0,-8.158342842E0,9.768647363E0
1.224246300E1,4.273612391E0,-1.717740635E0,-6.598122103E0,8.046714302E0
1.225250000E1,3.346521147E0,-2.468820748E0,-5.056901307E0,6.547253661E0
1.226253700E1,2.676589277E0,-3.072546349E0,-3.734310535E0,5.527182501E0
1.227257400E1,2.439364815E0,-3.657028471E0,-2.944013439E0,5.290706292E0
1.228261100E1,2.438022879E0,-4.130707318E0,-2.892904974E0,5.601392478E0
1.229264800E1,2.462295256E0,-4.347661238E0,-3.124045993E0,5.892768410E0
1.230268500E1,2.815227345E0,-4.470003701E0,-3.860484386E0,6.542918140E0
1.231272200E1,3.250360177E0,-4.559777757E0,-5.320392047E0,7.724181899E0
1.232275900E1,3.638247507E0,-4.317576436E0,-6.739601918E0,8.792072862E0
1.233279600E1,4.194084411E0,-3.954135146E0,-7.847047606E0,9.736615681E0
1.234283300E1,4.530349013E0,-3.610876398E0,-8.466171849E0,1.025858452E1
1.235287000E1,4.590792850E0,-3.438107840E0,-8.409883627E0,1.017949444E1
1.236290700E1,4.414885799E0,-3.396479465E0,-7.910972291E0,9.675265989E0
1.237294400E1,4.131559550E0,-3.681246469E0,-6.840126665E0,8.798220994E0
1.238298100E1,3.748554645E0,-3.894718080E0,-5.486750010E0,7.702266973E0
1.239301800E1,3.660003827E0,-3.958134642E0,-4.267450595E0,6.875579426E0
1.240305500E1,3.800535223E0,-3.748744095E0,-3.169887872E0,6.208489300E0
1.241309200E1,4.616673211E0,-3.044550758E0,-2.934594160E0,6.260575352E0
1.242312900E1,5.418776713E0,-2.629511005E0,-3.708316446E0,7.073123783E0
1.243316600E1,5.259520193E0,-2.816275751E0,-4.594421632E0,7.530117655E0
1.244320300E1,4.606770367E0,-3.322017513E0,-5.098949220E0,7.632654631E0
1.245324000E1,3.988437837E0,-3.682819077E0,-6.032056664E0,8.115201805E0
1.246327700E1,3.481899392E0,-3.660981481E0,-7.638723006E0,9.158411322E0
1.247331400E1,3.038662319E0,-3.600778256E0,-9.332583028E0,1.045448127E1
1.248335100E1,2.661188296E0,-3.809564786E0,-1.003194276E1,1.105597497E1
1.249338800E1,2.689371291E0,-4.333294922E0,-9.769115099E0,1.102024376E1
1.250342500E1,3.429397243E0,-4.958118446E0,-9.423784389E0,1.118710938E1
1.251346200E1,4.055420031E0,-6.015593829E0,-9.043716542E0,1.159407649E1
1.252349900E1,3.756964111E0,-7.916498494E0,-8.654738122E0,1.231625835E1
1.253353600E1,3.882838292E0,-9.843664759E0,-8.190774423E0,1.338144068E1
1.254357300E1,5.531599908E0,-1.102530986E1,-7.988090633E0,1.469576970E1
1.255361000E1,6.973033292E0,-1.275113427E1,-8.437702340E0,1.680504208E1
1.256364700E1,7.773981383E0,-1.588625343E1,-8.105358882E0,1.945519666E1
1.257368400E1,7.345968121E0,-2.038228045E1,-5.823547878E0,2.243466768E1
1.258372100E1,5.652670017E0,-2.432008550E1,-2.091499922E0,2.505580988E1
1.259375800E1,3.821085262E0,-2.613936946E1,2.244758953E0,2.651237959E1
1.260379500E1,2.005354064E0,-2.566737520E1,6.707218283E0,2.660493134E1
1.261383200E1,5.079201418E-1,-2.307721537E1,1.096679443E1,2.555555580E1
1.262386900E1,-7.466987944E-1,-1.888354553E1,1.557617090E1,2.449005820E1
1.263390600E1,-1.591498080E0,-1.362338565E1,2.063973336E1,2.478160802E1
1.264394300E1,-1.501681924E0,-9.272822730E0,2.405121181E1,2.582055537E1
1.265398000E1,-1.260567893E0,-6.797339664E0,2.405244206E1,2.502624277E1
1.266401700E1,-1.493824435E0,-5.867110804E0,2.027916130E1,2.116362170E1
1.267405400E1,-1.072574648E0,-5.238194813E0,1.508809680E1,1.600749094E1
1.268409100E1,-3.250695223E-1,-4.734670608E0,1.145515505E1,1.239932874E1
1.269412800E1,-2.753757906E-1,-4.985803258E0,9.074642465E0,1.035776046E1
1.270416500E1,-7.126656604E-1,-5.359477760E0,7.311847279E0,9.093679389E0
1.271420200E1,-1.176718236E0,-5.449081078E0,6.115467196E0,8.275028061E0
1.272423900E1,-1.441462035E0,-5.320003207E0,5.583010383E0,7.845396858E0
1.273427654E1,-1.688164834E0,-5.094611170E0,5.709680954E0,7.836161055E0
1.274431354E1,-1.800866407E0,-4.620088570E0,6.401562102E0,8.097427712E0
1.275435054E1,-1.714857373E0,-4.005443294E0,7.307942508E0,8.508251025E0
1.276438754E1,-1.606662834E0,-3.508130001E0,7.932186574E0,8.820880081E0
1.277442454E1,-1.308741934E0,-2.869148029E0,7.661568078E0,8.285194100E0
1.278446154E1,-1.123958225E0,-2.638198214E0,6.779003965E0,7.360588745E0
1.279449854E1,-1.535330311E0,-2.770740559E0,5.965999500E0,6.754805137E0
1.280453554E1,-2.258698715E0,-2.910138765E0,5.346379412E0,6.492642015E0
1.281457254E1,-2.665768420E0,-3.043038960E0,5.071423452E0,6.487352558E0
1.282460954E1,-2.724379156E0,-3.230797732E0,5.209972057E0,6.708509865E0
1.283464654E1,-2.162131948E0,-3.354712804E0,5.538247608E0,6.826499771E0
1.284468354E1,-1.041082129E0,-3.071953734E0,5.590873718E0,6.463638347E0
1.285472054E1,5.380841732E-2,-2.722385547E0,5.365155991E0,6.016575207E0
1.286475754E1,8.668631691E-1,-2.529721546E0,4.631005614E0,5.347630863E0
1.287479454E1,1.219360226E0,-2.360565398E0,3.720403518E0,4.571707634E0
1.288483154E1,1.016431437E0,-2.559408737E0,3.288076765E0,4.288957304E0
1.289486854E1,2.062921071E-1,-3.155480040E0,3.508072991E0,4.722942603E0
1.290490554E1,-6.946527278E-1,-3.812591889E0,4.184401130E0,5.703298356E0
1.291494254E1,-1.194903077E0,-4.568046597E0,4.947465988E0,6.839024987E0
1.292497954E1,-1.110311993E0,-5.264127215E0,5.372972549E0,7.603463820E0
1.293501654E1,-5.688604081E-1,-5.748799412E0,5.280443870E0,7.826581904E0
1.294505354E1,3.028635514E-1,-6.091677799E0,5.316638135E0,8.091162203E0
1.295509054E1,1.597223089E0,-6.580308561E0,5.474715271E0,8.707702892E0
1.296512754E1,2.626983254E0,-7.049097966E0,5.864670761E0,9.538615533E0
1.297516454E1,2.644856438E0,-7.289319127E0,5.259120244E0,9.369513576E0
1.298520154E1,1.794133338E0,-7.867088937E0,3.282360234E0,8.711136062E0
1.299523854E1,7.846706128E-1,-8.346359476E0,1.238476528E0,8.474151792E0
1.300527554E1,-8.707615077E-2,-8.154412928E0,-3.597417569E-1,8.162808744E0
1.301531254E1,-5.188006407E-1,-7.658666105E0,-1.789702757E0,7.882090875E0
1.302534954E1,-3.307313812E-1,-6.864266310E0,-3.136023138E0,7.553951041E0
1.303538654E1,-1.393216074E-1,-5.805914429E0,-4.245635219E0,7.193988552E0
1.304542354E1,2.053892970E-1,-5.011971302E0,-4.745505499E0,6.905205539E0
1.305546054E1,6.681449604E-1,-4.237105885E0,-4.655009311E0,6.329975960E0
1.306549754E1,1.144367931E0,-3.562972206E0,-4.239255906E0,5.654700659E0
1.307553454E1,1.417914712E0,-3.011038318E0,-4.030162983E0,5.226762627E0
1.308557154E1,1.699413123E0,-2.525802450E0,-4.509157534E0,5.440605172E0
1.309560854E1,2.283142415E0,-1.895871675E0,-5.442196566E0,6.198755694E0
1.310564554E1,2.784123666E0,-1.401106306E0,-5.974604847E0,6.738719949E0
1.311568254E1,2.971368468E0,-1.053965299E0,-5.940643634E0,6.725408553E0
1.312571954E1,3.224860470E0,-9.447071511E-1,-5.618556776E0,6.546783706E0
1.313575654E1,3.461476237E0,-1.136263105E0,-5.172996604E0,6.327148288E0
1.314579354E1,3.535616593E0,-1.517089337E0,-4.729430918E0,6.096692674E0
1.315583054E1,3.402152141E0,-1.892442867E0,-4.473991794E0,5.930647669E0
1.316586754E1,3.076288567E0,-2.225141544E0,-4.363137356E0,5.783750844E0
1.317590454E1,2.803611267E0,-2.395657462E0,-4.310710928E0,5.672886348E0
1.318594154E1,2.632251011E0,-2.477518482E0,-4.196834064E0,5.538976383E0
1.319597854E1,2.643648988E0,-2.610860434E0,-3.970175813E0,5.437625232E0
1.320601554E1,2.750036738E0,-2.798386779E0,-3.853462757E0,5.499349584E0
1.321605254E1,2.565379329E0,-3.149542193E0,-4.188921905E0,5.835053885E0
1.322608954E1,2.247658002E0,-3.514668943E0,-4.647416410E0,6.245265691E0
1.323612654E1,2.147047886E0,-3.694888315E0,-5.166436028E0,6.704780050E0
1.324616354E1,2.421214473E0,-3.771869541E0,-5.762938564E0,7.300735596E0
1.325620054E1,3.055221049E0,-3.632012036E0,-6.279644732E0,7.871456349E0
1.326623754E1,3.473808015E0,-3.557105987E0,-6.417692231E0,8.118319943E0
1.327627454E1,3.992958319E0,-3.652808535E0,-6.568104837E0,8.510389385E0
1.328631154E1,4.632823221E0,-3.503832590E0,-6.721365622E0,8.883504356E0
1.329634854E1,5.298729283E0,-3.239409219E0,-6.947216080E0,9.318482461E0
1.330638554E1,5.739360836E0,-3.042853311E0,-7.310790102E0,9.779921830E0
1.331642254E1,6.158120880E0,-2.751294182E0,-8.266429793E0,1.066892375E1
1.332645954E1,6.753006660E0,-2.580515139E0,-9.430580024E0,1.188267634E1
1.333649654E1,7.414581104E0,-2.582852856E0,-1.009206734E1,1.278659318E1
1.334653354E1,7.927685387E0,-2.956388779E0,-1.014927065E1,1.321348270E1
1.335657054E1,7.662021237E0,-3.556731473E0,-9.709380528E0,1.286969224E1
1.336660754E1,6.822363993E0,-4.258314613E0,-9.042221408E0,1.210122563E1
1.337664454E1,5.799089559E0,-4.965979443E0,-8.344416447E0,1.131015815E1
1.338668154E1,4.815265705E0,-5.388393996E0,-7.815888378E0,1.064470219E1
1.339671854E1,4.173253121E0,-5.544335729E0,-7.892034913E0,1.050903970E1
1.340675554E1,4.078286152E0,-5.649701970E0,-8.197764770E0,1.075894500E1
1.341679254E1,4.364707333E0,-6.218684000E0,-8.425518497E0,1.134513388E1
1.342682954E1,3.830070094E0,-7.933661242E0,-8.464990711E0,1.221754825E1
1.343686654E1,2.547956965E0,-1.018427794E1,-8.262037364E0,1.335937361E1
1.344690354E1,1.745070521E0,-1.175915063E1,-7.549256514E0,1.408240635E1
1.345694054E1,1.742167963E0,-1.334575868E1,-6.819633343E0,1.508813517E1
1.346697754E1,2.728311993E0,-1.456755427E1,-6.316899097E0,1.611088259E1
1.347701454E1,4.524616987E0,-1.604383823E1,-4.924333234E0,1.738177096E1
1.348705154E1,5.311783192E0,-1.802188697E1,-2.236703244E0,1.892105420E1
1.349708854E1,4.807281332E0,-1.968550285E1,1.766999334E-1,2.026475263E1
1.350712554E1,4.366877235E0,-2.044322715E1,2.542844744E0,2.105851877E1
1.351716254E1,5.256965545E0,-1.925365089E1,5.392053183E0,2.067396906E1
1.352719954E1,7.304122522E0,-1.664660781E1,8.390247508E0,2.002138883E1
1.353723654E1,9.282728498E0,-1.319465142E1,1.102729207E1,1.954146988E1
1.354727354E1,1.066495298E1,-9.615547335E0,1.309990080E1,1.943726765E1
1.355731054E1,1.137701637E1,-6.544339414E0,1.455783269E1,1.960090234E1
1.356734754E1,1.101924981E1,-4.439309911E0,1.487798061E1,1.903905580E1
1.357738454E1,9.541678875E0,-3.327965593E0,1.432762664E1,1.753282282E1
1.358742154E1,6.727442048E0,-3.302604464E0,1.342985684E1,1.537942546E1
1.359745854E1,3.032504616E0,-4.185677285E0,1.223020349E1,1.327756966E1
1.360749554E1,-2.831952721E-1,-5.297182109E0,1.088190690E1,1.210604128E1
1.361753254E1,-1.879365277E0,-5.789269745E0,9.077822181E0,1.092952486E1
1.362756954E1,-1.475561827E0,-5.733875563E0,7.499355206E0,9.554838574E0
1.363760654E1,2.019090343E-1,-5.066641599E0,6.508087261E0,8.250262066E0
1.364764354E1,2.266983635E0,-4.117443202E0,5.942427034E0,7.576608237E0
1.365768054E1,3.891712026E0,-3.242800897E0,5.678204808E0,7.609414563E0
1.366771754E1,4.556714108E0,-2.682744057E0,6.021683704E0,8.013827660E0
1.367775454E1,4.592662790E0,-2.421367085E0,6.785323636E0,8.543780598E0
1.368779154E1,4.346730069E0,-2.143978683E0,7.527207248E0,8.952628432E0
1.369782854E1,3.801840321E0,-2.059116873E0,8.068037274E0,9.153533612E0
1.370786554E1,3.188381445E0,-1.955367971E0,8.506677266E0,9.292620634E0
1.371790254E1,2.667789218E0,-2.030547377E0,8.221708533E0,8.879004064E0
1.372793912E1,1.872410014E0,-2.516685471E0,6.939511789E0,7.615539961E0
1.373797612E1,8.960197252E-1,-3.050582453E0,5.409544544E0,6.274717271E0
1.374801312E1,3.026051044E-1,-3.181781108E0,4.517012098E0,5.533416591E0
1.375805012E1,5.073921382E-2,-3.143415188E0,4.341383375E0,5.360153274E0
1.376808712E1,1.448355317E-3,-3.004183043E0,4.566002995E0,5.465665668E0
1.377812412E1,5.948898733E-2,-2.796696349E0,5.032819549E0,5.757978988E0
1.378816112E1,2.670476013E-1,-2.533322261E0,6.058328789E0,6.572091282E0
1.379819812E1,5.878375465E-1,-2.467977580E0,7.393080307E0,7.816271665E0
1.380823512E1,1.055206078E0,-2.594073370E0,7.954930488E0,8.433480633E0
1.381827212E1,1.818199309E0,-2.480958983E0,7.665680425E0,8.259761654E0
1.382830912E1,2.484732192E0,-2.587516595E0,6.336873770E0,7.281833929E0
1.383834612E1,2.269372807E0,-3.278063115E0,4.678692874E0,6.147025112E0
1.384838312E1,1.723218307E0,-3.626372104E0,3.788785243E0,5.520412085E0
1.385842012E1,1.326481801E0,-3.851338756E0,3.997528503E0,5.707240867E0
1.386845712E1,9.614331114E-1,-4.280082920E0,4.710770699E0,6.436988738E0
1.387849412E1,1.236476195E0,-4.887748667E0,5.598924165E0,7.534382006E0
1.388853112E1,2.381455745E0,-5.392064878E0,6.056264137E0,8.451273893E0
1.389856812E1,3.861834508E0,-5.492007242E0,4.784542680E0,8.244256059E0
1.390860512E1,4.420727752E0,-6.090658044E0,3.003217667E0,8.102978812E0
1.391864212E1,4.641233856E0,-6.230094842E0,1.835325218E0,7.982703308E0
1.392867912E1,4.666798468E0,-6.216737462E0,1.185887840E0,7.863406551E0
1.393871612E1,4.066413966E0,-6.675068538E0,6.376283419E-1,7.842119128E0
1.394875312E1,3.386565803E0,-6.950027422E0,-1.376443335E-1,7.732441727E0
1.395879012E1,2.635768111E0,-7.056406401E0,-1.090734638E0,7.611165934E0
1.396882712E1,1.998260806E0,-6.970040102E0,-1.618583991E0,7.429287948E0
1.397886412E1,1.855154881E0,-6.498881405E0,-1.611662349E0,6.947986376E0
1.398890112E1,2.152328507E0,-6.153317977E0,-1.602347589E0,6.712924692E0
1.399893812E1,2.342043757E0,-6.170923358E0,-2.018441302E0,6.902142373E0
1.400897512E1,2.328892200E0,-6.038784471E0,-2.926715037E0,7.103261059E0
1.401901212E1,2.311550528E0,-6.012577835E0,-3.609604921E0,7.384010140E0
1.402904912E1,2.313550276E0,-5.773838943E0,-3.892310196E0,7.337561562E0
1.403908612E1,2.519968683E0,-5.313774753E0,-4.617257933E0,7.476999071E0
1.404912312E1,2.531719247E0,-4.944783286E0,-5.691773272E0,7.953412291E0
1.405916012E1,2.745447843E0,-4.207965701E0,-6.590419566E0,8.287224460E0
1.406919712E1,3.082245710E0,-3.635937856E0,-7.508487972E0,8.893687331E0
1.407923412E1,3.384291236E0,-3.128665586E0,-8.757371959E0,9.896137588E0
1.408927112E1,3.712650402E0,-2.822819078E0,-9.848275874E0,1.089681689E1
1.409930812E1,4.052870645E0,-2.604728166E0,-1.046928292E1,1.152459345E1
1.410934512E1,4.486377951E0,-2.360613930E0,-1.054940030E1,1.170426982E1
1.411938212E1,4.874590386E0,-2.403300358E0,-9.987222090E0,1.137022819E1
1.412941912E1,5.195262217E0,-2.775244669E0,-9.065459998E0,1.081088791E1
1.413945612E1,5.275290719E0,-3.015285443E0,-8.359961854E0,1.033487304E1
1.414949312E1,5.379442493E0,-3.226629545E0,-8.136084831E0,1.027352988E1
1.415953012E1,5.592873466E0,-3.193083776E0,-8.225834913E0,1.044702721E1
1.416956712E1,5.736460617E0,-3.017570535E0,-8.346874616E0,1.056801912E1
1.417960412E1,5.843848241E0,-2.833047320E0,-8.070058072E0,1.035869474E1
1.418964112E1,6.136601372E0,-2.655076494E0,-7.870684975E0,1.032739026E1
1.419967812E1,6.476985337E0,-2.601372449E0,-8.276998050E0,1.082714987E1
1.420971513E1,6.264326196E0,-2.670239201E0,-8.947574868E0,1.124415653E1
1.421975213E1,6.080730057E0,-2.642530416E0,-9.862783985E0,1.188413871E1
1.422978913E1,6.240219880E0,-2.742968916E0,-1.114267049E1,1.306228649E1
1.423982613E1,5.980732729E0,-2.965928804E0,-1.198176114E1,1.371599423E1
1.424986313E1,5.972384659E0,-3.187057051E0,-1.250822222E1,1.422259942E1
1.425990013E1,6.763163273E0,-3.434530221E0,-1.224792289E1,1.440652597E1
1.426993713E1,7.418261341E0,-3.926951733E0,-1.130009157E1,1.407634970E1
1.427997413E1,7.629795477E0,-4.774351568E0,-1.050427968E1,1.383286317E1
1.429001113E1,7.643787280E0,-5.892462577E0,-9.715611906E0,1.369458703E1
1.430004813E1,7.411434717E0,-6.928691517E0,-9.186996714E0,1.368711216E1
1.431008513E1,7.039018536E0,-8.257688205E0,-9.538001561E0,1.444682215E1
1.432012213E1,6.711390857E0,-1.015479861E1,-1.018150168E1,1.586901631E1
1.433015913E1,7.349981650E0,-1.297562525E1,-1.078387716E1,1.840329013E1
1.434019613E1,7.469389980E0,-1.838130829E1,-9.926593480E0,2.218561560E1
1.435023313E1,7.164382839E0,-2.260501529E1,-6.504128696E0,2.458899729E1
1.436027013E1,9.693852662E0,-2.387204844E1,-2.274779143E0,2.586542280E1
1.437030713E1,1.467264979E1,-2.366321397E1,1.784673128E0,2.790016855E1
1.438034413E1,1.868348421E1,-2.114559937E1,6.545725788E0,2.896645441E1
1.439038113E1,1.982398363E1,-1.777591331E1,1.089809199E1,2.877050278E1
1.440041813E1,1.692481248E1,-1.556314331E1,1.392246137E1,2.687927897E1
1.441045513E1,1.029592701E1,-1.450762499E1,1.561549928E1,2.367110292E1
1.442049213E1,3.264758946E0,-1.278929203E1,1.652998276E1,2.115336785E1
1.443052913E1,-1.488736188E0,-1.055009846E1,1.674357453E1,1.984611299E1
1.444056613E1,-4.246339223E0,-9.086069094E0,1.585835052E1,1.876367047E1
1.445060313E1,-5.526106449E0,-7.937105836E0,1.390093076E1,1.693432542E1
1.446064013E1,-5.409062149E0,-7.235742259E0,1.180788366E1,1.486741524E1
1.447067713E1,-4.372143238E0,-6.783570641E0,1.022862907E1,1.302909512E1
1.448071413E1,-2.804556761E0,-6.204951814E0,9.065895030E0,1.133831638E1
1.449075113E1,-1.344460235E0,-5.713571107E0,7.653607094E0,9.645214858E0
1.450078813E1,-5.661344361E-1,-5.504728444E0,6.671177216E0,8.667591874E0
1.451082513E1,-3.919476360E-1,-5.296523713E0,6.671002384E0,8.526960724E0
1.452086213E1,-3.428123134E-1,-4.854124546E0,7.449350402E0,8.897913621E0
1.453089913E1,-1.616199642E-1,-4.237339189E0,8.665546700E0,9.647427845E0
1.454093613E1,-1.311922234E-1,-3.619007244E0,9.583984065E0,1.024534896E1
1.455097412E1,-4.671054071E-1,-3.237803866E0,9.902456174E0,1.042881583E1
1.456101013E1,-8.535701090E-1,-3.116290539E0,9.653434369E0,1.017981551E1
1.457104713E1,-7.061536163E-1,-3.137914712E0,8.882771931E0,9.447158242E0
1.458108512E1,-3.751702201E-1,-3.022981256E0,7.209021653E0,7.826184355E0
1.459112113E1,-3.493524241E-1,-3.072062200E0,5.123790531E0,5.984383233E0
1.460115813E1,-5.005485570E-1,-3.353778126E0,3.384338014E0,4.790837126E0
1.461119612E1,-7.716044247E-1,-3.402143371E0,2.364291244E0,4.214240855E0
1.462123312E1,-9.446533567E-1,-3.398836185E0,2.334412264E0,4.230122693E0
1.463127012E1,-9.395616013E-1,-3.412671867E0,3.096186350E0,4.702709345E0
1.464130612E1,-4.278957331E-1,-3.330699166E0,4.548115193E0,5.653494804E0
1.465134412E1,4.861322469E-1,-3.123363916E0,5.493812862E0,6.338273146E0
1.466138112E1,1.360913715E0,-2.754033895E0,5.285501711E0,6.113371997E0
1.467141812E1,1.670712065E0,-2.672240703E0,5.078338954E0,5.976761306E0
1.468145512E1,1.495359330E0,-2.730755544E0,5.224160911E0,6.081527981E0
1.469149212E1,1.397118505E0,-2.962457604E0,5.588270538E0,6.477411734E0
1.470152912E1,1.418239233E0,-3.277862556E0,6.138530953E0,7.101925634E0
1.471156612E1,1.334580780E0,-3.996027230E0,6.644798087E0,7.867825691E0
1.472160312E1,1.352811813E0,-4.997871326E0,6.845986744E0,8.583493001E0
1.473164004E1,1.579997776E0,-5.868673764E0,6.781194332E0,9.106169409E0
1.474167704E1,2.059938406E0,-6.338198165E0,6.056412072E0,9.005344491E0
1.475171404E1,2.547358795E0,-6.600747503E0,4.687612216E0,8.487202880E0
1.476175104E1,2.502399554E0,-6.754564943E0,3.311155432E0,7.927792971E0
1.477178804E1,2.352340704E0,-6.785127169E0,2.401605981E0,7.572263122E0
1.478182504E1,2.466849652E0,-7.086806660E0,2.387688146E0,7.874593991E0
1.479186204E1,2.336323426E0,-7.508098547E0,2.742449391E0,8.327723555E0
1.480189904E1,2.563269653E0,-7.884229465E0,2.753379006E0,8.735703837E0
1.481193604E1,3.406477911E0,-7.663128115E0,2.459492100E0,8.739377876E0
1.482197304E1,4.600702711E0,-6.740745049E0,1.419953052E0,8.283741662E0
1.483201004E1,5.563270183E0,-6.150296136E0,9.054183204E-2,8.293631020E0
1.484204704E1,5.508544922E0,-5.712226247E0,-1.053860122E0,8.005261833E0
1.485208404E1,5.298346875E0,-5.330589591E0,-2.347550665E0,7.873922728E0
1.486212104E1,5.314791584E0,-5.182326422E0,-3.772056944E0,8.326579749E0
1.487215804E1,5.499194055E0,-4.827960595E0,-4.969664358E0,8.845784453E0
1.488219504E1,5.851056688E0,-4.208037037E0,-6.022148557E0,9.391949389E0
1.489223204E1,6.271484358E0,-3.373582061E0,-6.974306815E0,9.967623966E0
1.490226904E1,6.485718153E0,-2.586448601E0,-7.600734816E0,1.032111554E1
1.491230604E1,6.731114684E0,-1.852798892E0,-8.164867165E0,1.074271029E1
1.492234304E1,6.939124703E0,-1.345699699E0,-8.989661372E0,1.143574969E1
1.493238004E1,6.791653247E0,-1.254014334E0,-1.005607422E1,1.219933337E1
1.494241704E1,6.363168114E0,-1.372540904E0,-1.079167500E1,1.260293721E1
1.495245404E1,5.866519650E0,-1.632981005E0,-1.062532289E1,1.224663898E1
1.496249104E1,5.313859538E0,-1.991496747E0,-9.603550603E0,1.115487995E1
1.497252804E1,4.915526742E0,-2.312617060E0,-8.272755895E0,9.896923306E0
1.498256504E1,4.515727465E0,-2.497533793E0,-6.933028981E0,8.642705620E0
1.499260204E1,4.046018878E0,-2.727381701E0,-5.818158499E0,7.593408195E0
1.500263904E1,3.405524231E0,-2.952378466E0,-5.156922609E0,6.848940406E0
1.501267604E1,2.598345346E0,-3.426570991E0,-4.762692512E0,6.416854935E0
1.502271304E1,2.447386610E0,-3.722124646E0,-4.363211031E0,6.235505080E0
1.503275004E1,2.681310319E0,-3.549628860E0,-3.911737278E0,5.923763888E0
1.504278704E1,3.035881383E0,-3.260097838E0,-4.280123266E0,6.177723598E0
1.505282404E1,3.612326215E0,-2.713306283E0,-5.450544636E0,7.079503407E0
1.506286104E1,4.736706609E0,-1.667911833E0,-7.399018739E0,8.942247910E0
1.507289804E1,6.416397073E0,-7.135348490E-1,-9.754407597E0,1.169733948E1
1.508293504E1,7.620955072E0,-6.035191941E-1,-1.089946258E1,1.331320683E1
1.509297204E1,7.791613662E0,-1.254100873E0,-1.023486103E1,1.292417861E1
1.510300904E1,7.481434659E0,-2.195321037E0,-9.214875653E0,1.207084224E1
1.511304604E1,7.380490083E0,-3.006594434E0,-8.656117480E0,1.176603645E1
1.512308304E1,7.544666449E0,-3.489279163E0,-8.334458054E0,1.177116188E1
1.513312004E1,7.799482845E0,-4.056997317E0,-8.093625274E0,1.194980878E1
1.514315704E1,7.563785675E0,-4.890222917E0,-8.484316928E0,1.237371277E1
1.515319404E1,7.482256193E0,-4.925395673E0,-1.017822490E1,1.355875888E1
1.516323104E1,8.222507263E0,-4.849205868E0,-1.301404614E1,1.613969703E1
1.517326804E1,9.003152068E0,-6.209146022E0,-1.559031766E1,1.904385061E1
1.518330504E1,9.777781842E0,-9.409778554E0,-1.522219216E1,2.039274588E1
1.519334204E1,1.068070888E1,-1.380749225E1,-1.259214380E1,2.152409046E1
1.520337904E1,1.077639623E1,-2.125616321E1,-9.701288567E0,2.573072463E1
1.521341604E1,9.550559042E0,-2.661609997E1,-5.274957427E0,2.876551984E1
1.522345304E1,1.182529199E1,-2.830862098E1,1.822073089E0,3.073329632E1
1.523349004E1,1.350557127E1,-2.864160822E1,8.157540019E0,3.269996385E1
1.524352704E1,1.143986108E1,-2.362923697E1,1.342077963E1,2.948437869E1
1.525356404E1,8.618435099E0,-1.800758818E1,1.617906328E1,2.569655121E1
1.526360104E1,4.195259702E0,-1.434440230E1,1.682667516E1,2.250553439E1
1.527363804E1,-9.616670001E-1,-1.152113504E1,1.656468949E1,2.020025479E1
1.528367504E1,-4.604090588E0,-9.048866769E0,1.664581844E1,1.949776683E1
1.529371204E1,-6.130481676E0,-7.253932947E0,1.675340603E1,1.925821805E1
1.530374904E1,-5.540316938E0,-6.057134787E0,1.600783458E1,1.798985163E1
1.531378604E1,-3.747595702E0,-5.428871346E0,1.455667377E1,1.598167291E1
1.532382304E1,-1.703116164E0,-5.055402081E0,1.270292632E1,1.377759166E1
1.533386004E1,9.635158896E-2,-4.727451636E0,1.061513119E1,1.162063220E1
1.534389704E1,1.434972795E0,-4.465220386E0,8.973789690E0,1.012552425E1
1.535393404E1,1.951482496E0,-4.314941681E0,7.688818442E0,9.030223401E0
1.536397104E1,1.541199161E0,-4.111273804E0,6.994124783E0,8.258065671E0
1.537400804E1,5.344068593E-1,-3.960484638E0,6.925561502E0,7.995900911E0
1.538404504E1,-5.984648609E-1,-3.839546676E0,7.170245258E0,8.155531615E0
1.539408204E1,-1.369358849E0,-3.542587059E0,7.434393225E0,8.348369263E0
1.540411904E1,-1.661830144E0,-3.246692804E0,6.958101257E0,7.856071963E0
1.541415604E1,-1.617668463E0,-3.175079615E0,6.020403748E0,6.995944761E0
1.542419304E1,-1.197344874E0,-3.196077551E0,4.732223256E0,5.834593679E0
1.543423004E1,-9.525757492E-1,-2.895344140E0,3.453036951E0,4.605853062E0
1.544426704E1,-8.984042197E-1,-2.602451845E0,2.953987620E0,4.038060006E0
1.545430404E1,-1.201461899E0,-2.510134835E0,3.283926411E0,4.304469800E0
1.546434104E1,-1.894409578E0,-2.599077417E0,4.326092906E0,5.390646613E0
1.547437804E1,-2.487423665E0,-2.671919691E0,6.010458219E0,7.032214397E0
1.548441504E1,-2.931886314E0,-2.953861905E0,7.827764658E0,8.865390970E0
1.549445204E1,-3.266186836E0,-3.553520767E0,8.945061150E0,1.016413328E1
1.550448904E1,-2.924290196E0,-4.207833554E0,9.137122303E0,1.047589330E1
1.551452604E1,-1.737352781E0,-4.840969188E0,8.530604657E0,9.961154209E0
1.552456304E1,-7.879356980E-2,-5.195611296E0,6.696901456E0,8.476383325E0
1.553460004E1,1.342817168E0,-5.139459314E0,4.347625862E0,6.864331769E0
1.554463704E1,1.916010947E0,-5.092237201E0,2.866349552E0,6.149629047E0
1.555467404E1,1.576655508E0,-4.916652331E0,2.615265434E0,5.787825673E0
1.556471104E1,6.764187706E-1,-4.952921441E0,3.001912569E0,5.830990672E0
1.557474804E1,-5.854091978E-1,-5.733239386E0,3.283084120E0,6.632599726E0
1.558478504E1,-1.750854002E0,-6.626819653E0,3.477616307E0,7.685964066E0
1.559482204E1,-2.241485097E0,-7.535841247E0,3.742149020E0,8.707286491E0
1.560485904E1,-1.812913426E0,-8.239239070E0,4.030895054E0,9.349857244E0
1.561489604E1,-5.120862830E-1,-8.278193221E0,3.995370880E0,9.206177482E0
1.562493304E1,1.279061467E0,-7.763264607E0,3.757716647E0,8.719214987E0
1.563497004E1,2.345824567E0,-7.266476979E0,3.294652251E0,8.316207912E0
1.564500704E1,3.375816867E0,-6.421858372E0,2.451465043E0,7.658073212E0
1.565504404E1,4.418088319E0,-5.599558588E0,1.278296651E0,7.246282019E0
1.566508104E1,4.670279900E0,-5.135228269E0,-6.722509483E-1,6.973808504E0
1.567511804E1,4.400375934E0,-4.773606925E0,-2.970401924E0,7.139602161E0
1.568515504E1,4.250982497E0,-4.329780160E0,-4.693018552E0,7.670871630E0
1.569519204E1,4.137676322E0,-3.607742583E0,-5.545497571E0,7.803122144E0
1.570522904E1,4.191583557E0,-2.807716012E0,-5.655920484E0,7.579055247E0
1.571526604E1,4.197983919E0,-2.285577634E0,-5.114788742E0,7.000571261E0
1.572530304E1,3.972629305E0,-1.905158076E0,-4.468222346E0,6.275063492E0
1.573533975E1,3.881374733E0,-1.717417430E0,-4.164889848E0,5.946503166E0
1.574537675E1,3.755302332E0,-1.569213172E0,-4.644786624E0,6.175659347E0
1.575541375E1,3.883669766E0,-1.388990875E0,-5.577099432E0,6.936585945E0
1.576545075E1,4.205015196E0,-9.414540526E-1,-6.073066696E0,7.446517819E0
1.577548775E1,4.423103476E0,-4.662256935E-1,-6.107109185E0,7.554997906E0
1.578552475E1,4.497920939E0,-2.234840906E-1,-5.970044603E0,7.478146193E0
1.579556175E1,4.189432951E0,-2.827614087E-1,-5.795710453E0,7.156924069E0
1.580559875E1,3.569640371E0,-6.311458263E-1,-5.425421489E0,6.525019216E0
1.581563575E1,2.855573718E0,-1.099401673E0,-4.810432397E0,5.701161736E0
1.582567275E1,2.510142437E0,-1.557849108E0,-4.164627601E0,5.106058357E0
1.583570975E1,2.347796833E0,-2.090296858E0,-3.396059343E0,4.627603049E0
1.584574675E1,2.086402904E0,-2.700150633E0,-2.708914732E0,4.356846284E0
1.585578375E1,1.869151946E0,-3.323179062E0,-2.366520202E0,4.487501080E0
1.586582075E1,1.680493872E0,-3.777257750E0,-2.533424588E0,4.848708684E0
1.587585775E1,1.772756503E0,-3.947680990E0,-2.896143454E0,5.207158315E0
1.588589475E1,2.131482598E0,-3.859914867E0,-3.390743054E0,5.562310609E0
1.589593175E1,3.008401224E0,-3.493506992E0,-4.088804709E0,6.162255510E0
1.590596875E1,3.921128783E0,-3.066112658E0,-4.385875716E0,6.634169395E0
1.591600575E1,4.669675298E0,-2.817459520E0,-4.604932002E0,7.137880938E0
1.592604275E1,5.611710271E0,-2.583758882E0,-5.321992430E0,8.154183316E0
1.593607975E1,6.433967956E0,-2.426003927E0,-6.338756574E0,9.352073225E0
1.594611675E1,6.647342795E0,-2.233688419E0,-7.361182576E0,1.016678608E1
1.595615375E1,6.879552686E0,-2.115120335E0,-8.167049931E0,1.088589380E1
1.596619075E1,6.901127157E0,-2.121153492E0,-8.530376616E0,1.117551669E1
1.597622775E1,6.753644006E0,-2.303036689E0,-8.551329528E0,1.113736603E1
1.598626475E1,6.871218649E0,-2.597662683E0,-7.961622627E0,1.083277121E1
1.599630175E1,6.715921864E0,-2.979278874E0,-7.395522105E0,1.042465617E1
1.600633875E1,6.085094419E0,-3.588980037E0,-6.897389617E0,9.873354816E0
1.601637575E1,5.239191763E0,-4.233545516E0,-5.875841866E0,8.938543259E0
1.602641275E1,4.123502671E0,-4.860222023E0,-4.852207829E0,8.010552615E0
1.603644975E1,2.961653904E0,-5.428453270E0,-3.933679832E0,7.328938243E0
1.604648675E1,2.312641034E0,-5.471458372E0,-3.020596177E0,6.664020298E0
1.605652375E1,2.897737990E0,-4.764066023E0,-3.404324382E0,6.533194856E0
1.606656075E1,4.398152238E0,-3.693534685E0,-5.476870555E0,7.936123276E0
1.607659775E1,6.326148223E0,-3.490219980E0,-8.127615724E0,1.087473789E1
1.608663475E1,8.411431385E0,-4.751907615E0,-1.013547473E1,1.400216598E1
1.609667175E1,8.798536942E0,-7.804755864E0,-1.113162978E1,1.619387687E1
1.610670875E1,7.577464651E0,-1.258916055E1,-1.092587094E1,1.831064143E1
1.611674575E1,7.116357318E0,-1.657221485E1,-8.252853143E0,1.983407249E1
1.612678275E1,8.467695048E0,-1.913717552E1,-4.426886040E0,2.138996649E1
1.613681975E1,1.146770435E1,-2.009376714E1,-1.315011903E0,2.317319523E1
1.614685675E1,1.454107223E1,-2.006005209E1,1.976420871E0,2.485467182E1
1.615689375E1,1.471656238E1,-1.954438848E1,5.800993413E0,2.514382338E1
1.616693075E1,1.178993505E1,-1.842206339E1,9.668448265E0,2.391346649E1
1.617696775E1,6.746526775E0,-1.665528625E1,1.300881522E1,2.218430654E1
1.618700475E1,1.054228424E0,-1.430134808E1,1.512462669E1,2.084212770E1
1.619704175E1,-3.166161441E0,-1.127079351E1,1.566919543E1,1.955962807E1
1.620707875E1,-4.931903624E0,-8.610673504E0,1.485105769E1,1.786116699E1
1.621711575E1,-5.287599108E0,-6.921264968E0,1.336585322E1,1.595332710E1
1.622715275E1,-4.189090889E0,-5.560662909E0,1.175823612E1,1.366475654E1
1.623718975E1,-2.416216273E0,-4.652434782E0,1.026880762E1,1.152959932E1
1.624722675E1,-9.666599375E-1,-4.345948296E0,8.870262398E0,9.924880505E0
1.625726375E1,5.297869742E-2,-4.272979138E0,7.301018236E0,8.459670486E0
1.626730075E1,6.565703970E-1,-4.247671804E0,6.084466428E0,7.449465226E0
1.627733775E1,5.812167442E-1,-4.299481058E0,5.898777570E0,7.322494595E0
1.628737475E1,-1.046827018E-1,-4.190713491E0,6.680855527E0,7.887133104E0
1.629741175E1,-9.377682602E-1,-3.893801236E0,7.650718569E0,8.635658168E0
1.630744875E1,-1.466575826E0,-3.600787904E0,8.090428602E0,8.976165837E0
1.631748575E1,-1.730239643E0,-3.341793088E0,7.883486869E0,8.735598175E0
1.632752275E1,-1.806040024E0,-3.146793709E0,7.222717001E0,8.082804717E0
1.633755975E1,-1.802314178E0,-3.002092078E0,6.690364269E0,7.551282493E0
1.634759675E1,-1.676228912E0,-2.877760393E0,5.852720221E0,6.733912847E0
1.635763475E1,-1.702468293E0,-2.960354068E0,4.678622415E0,5.792374487E0
1.636767075E1,-1.985564162E0,-3.168361164E0,3.866414340E0,5.378674312E0
1.637770775E1,-2.128078349E0,-2.933183811E0,3.963859358E0,5.370704399E0
1.638774575E1,-2.252914065E0,-2.785124125E0,5.066183177E0,6.204736107E0
1.639778275E1,-1.981068823E0,-2.959531950E0,6.524693354E0,7.433376514E0
1.640781975E1,-1.191309378E0,-2.999922177E0,7.682284763E0,8.332841669E0
1.641785675E1,-4.637561220E-1,-3.128546888E0,7.906241308E0,8.515370045E0
1.642789375E1,2.301814914E-2,-3.386899679E0,7.811066179E0,8.513775551E0
1.643793075E1,4.865245950E-1,-3.619264813E0,7.802127541E0,8.614463311E0
1.644796775E1,5.607397950E-1,-4.192371177E0,8.007826155E0,9.056251153E0
1.645800475E1,2.003969443E-1,-4.827001359E0,7.754751645E0,9.136535128E0
1.646804175E1,-1.239779288E-1,-5.767481266E0,6.500577682E0,8.691186391E0
1.647807875E1,-3.757701445E-1,-7.227194799E0,4.991891963E0,8.791617214E0
1.648811575E1,4.974080175E-1,-7.762879860E0,3.521699635E0,8.538857463E0
1.649815275E1,2.055041363E0,-6.974476969E0,1.908129778E0,7.517145951E0
