"Time (s)","Linear Acceleration x (m/s^2)","Linear Acceleration y (m/s^2)","Linear Acceleration z (m/s^2)","Absolute acceleration (m/s^2)"
1.173145830E-2,1.086885470E-2,-2.737884725E-2,4.472301364E-2,5.355260244E-2
2.171045833E-2,6.459014394E-2,2.477995633E-2,-1.624455911E-1,1.765630284E-1
3.168845834E-2,-2.194169272E-2,-5.669794227E-2,6.133495331E-2,8.636012410E-2
4.166745831E-2,2.159483635E-2,-2.759682506E-2,-8.086699247E-2,8.813280991E-2
5.164545833E-2,1.197717159E-2,-1.746690766E-2,2.625399828E-4,2.118052006E-2
6.162445829E-2,8.225152635E-3,-1.306976495E-2,-1.515539825E-2,2.163695884E-2
7.160245831E-2,1.131470490E-3,-1.082329210E-2,-6.111100495E-2,6.207236747E-2
8.158145833E-2,-8.528129768E-3,-4.272132443E-2,-1.306209505E-2,4.548031316E-2
9.155945835E-2,2.975283965E-2,-1.863689897E-2,-5.482349396E-2,6.510131305E-2
1.015384583E-1,4.148211214E-3,-1.306161539E-2,-5.877036452E-3,1.491150597E-2
1.115164583E-1,2.761096344E-4,-2.060953940E-2,-2.638322175E-2,3.347990054E-2
1.214954583E-1,9.248705450E-3,-3.639683437E-2,-6.171034455E-2,7.223873427E-2
1.314734583E-1,3.213389895E-3,-3.185336965E-2,-7.224234939E-3,3.282000309E-2
1.414524583E-1,1.394923415E-2,-7.610242534E-3,-4.314777374E-2,4.598072752E-2
1.514304583E-1,-3.063750967E-2,4.182417425E-3,-2.518571198E-2,3.988069335E-2
1.614094583E-1,-2.416237615E-2,-1.750397810E-2,-3.626267731E-2,4.695946589E-2
1.713874583E-1,-2.669433016E-2,-1.559773555E-2,-7.413275421E-2,8.032149067E-2
1.813664583E-1,-4.473725252E-3,-1.136297640E-2,3.109666228E-2,3.340858955E-2
1.913444583E-1,2.590616889E-2,-9.901231877E-3,-1.994660676E-2,3.416183690E-2
2.013234583E-1,3.016289849E-2,-3.830481281E-2,-4.284898102E-2,6.490835312E-2
2.113014583E-1,6.648756999E-3,-4.847926041E-2,-3.072419465E-2,5.777906884E-2
2.212804583E-1,4.755175039E-2,-1.937895175E-2,-8.570848703E-3,5.205931409E-2
2.312584583E-1,2.599495521E-2,-1.331925833E-2,-3.072477937E-2,4.239283437E-2
2.412374583E-1,-7.938947417E-3,-7.093339534E-3,-1.979691803E-2,2.247799625E-2
2.512154583E-1,-3.674705746E-2,-1.920099083E-2,-4.494579256E-2,6.114857765E-2
2.611944583E-1,-3.778173140E-2,-2.331239199E-3,-3.102415681E-2,4.894274420E-2
2.711724583E-1,-1.205387518E-2,-4.292550646E-3,-1.036652863E-2,1.646775072E-2
2.811514583E-1,4.301236959E-3,-1.497806316E-2,-9.916877747E-3,1.847126091E-2
2.911294583E-1,-1.244430017E-2,-3.384398569E-2,-6.425329864E-2,7.368013545E-2
3.011084583E-1,4.717385124E-3,-4.889439901E-2,-9.467811584E-3,5.002554781E-2
3.110864583E-1,4.976808267E-2,-3.331786876E-2,-2.817773223E-2,6.618857171E-2
3.210654583E-1,3.875659701E-2,-3.016313603E-2,-3.236843169E-2,5.881839812E-2
3.310434583E-1,-3.841118189E-3,-3.925721004E-2,-1.590384185E-2,4.253016476E-2
3.410224583E-1,-4.869312232E-3,-1.010570170E-2,-4.045279205E-2,4.197932578E-2
3.510004583E-1,6.870729639E-4,-5.861162175E-3,-3.401559234E-2,3.452369930E-2
3.609794583E-1,-2.337992505E-2,-8.559839493E-3,-8.718198538E-3,2.637989259E-2
3.709574583E-1,-3.672412541E-2,-1.644447633E-2,-3.266839385E-2,5.182958755E-2
3.809364583E-1,-2.788372692E-2,-5.690857451E-3,-2.698022246E-2,3.921505437E-2
3.909144583E-1,1.742991717E-2,-1.426054585E-2,-6.772829890E-3,2.351672607E-2
4.008934583E-1,1.071664209E-2,-2.813788894E-2,-2.234045684E-2,3.749244222E-2
4.108714583E-1,-1.374691820E-3,-4.437233145E-2,-3.221991241E-2,5.485358996E-2
4.208504583E-1,2.297007406E-2,-3.299313816E-2,7.104367018E-4,4.020791201E-2
4.308284583E-1,3.590945752E-2,-2.660717924E-2,-3.671057403E-2,5.783681675E-2
4.408074583E-1,2.411312935E-2,-1.557416853E-2,-2.772866607E-2,3.991085885E-2
4.507854583E-1,-6.285692872E-3,-1.824834692E-2,2.809587121E-3,1.950399652E-2
4.607644583E-1,1.154642366E-4,-1.015756376E-2,-3.955115139E-2,4.083482595E-2
4.707434583E-1,-1.686690568E-2,-1.883831271E-3,-1.844562650E-2,2.506556332E-2
4.807214583E-1,-3.427498487E-2,-1.898472151E-3,-2.009395659E-2,3.977619735E-2
4.907004583E-1,-4.200860823E-2,-2.506934325E-3,-4.045162261E-2,5.837243918E-2
5.006784583E-1,-8.612884702E-3,-2.404198746E-2,-2.428524077E-2,3.524162118E-2
5.106574583E-1,2.441016790E-2,-1.633339750E-2,-2.131310105E-3,2.944789727E-2
5.206354583E-1,2.423425579E-2,-3.233454068E-2,-3.581244171E-2,5.399400574E-2
5.306144583E-1,2.735225384E-2,-3.826060695E-2,-3.416586578E-2,5.813197243E-2
5.405924583E-1,9.488952924E-3,-4.932120921E-2,-2.473547637E-2,5.598629919E-2
5.505714583E-1,2.165127340E-2,-3.386424538E-2,-2.772749662E-2,4.883010162E-2
5.605494583E-1,-4.161657526E-3,-2.224395038E-2,-1.021391630E-2,2.482814548E-2
5.705284583E-1,-2.953892749E-2,-1.087105655E-2,-4.030134916E-2,5.113635548E-2
5.805064583E-1,-1.671677842E-2,-8.204009011E-3,-4.524107695E-2,4.892352694E-2
5.904854583E-1,-2.473648593E-2,-1.080632604E-2,-1.904613554E-2,3.303673256E-2
6.004634583E-1,-1.325440220E-2,-1.891501630E-2,-1.006422758E-2,2.519415996E-2
6.104424583E-1,1.366329617E-2,-2.523848310E-2,-4.284430325E-2,5.156841099E-2
6.204204583E-1,2.135878699E-2,-2.594613781E-2,-2.817305446E-2,4.385340177E-2
6.303994583E-1,3.225039787E-2,-2.275985752E-2,-1.859297633E-2,4.363253426E-2
6.403774583E-1,5.895667143E-2,-3.050903538E-2,-4.149418116E-2,7.828446472E-2
6.503564583E-1,3.331975769E-2,-4.772399201E-2,-3.296133935E-2,6.688972684E-2
6.603344583E-1,3.261359904E-3,-3.427126184E-2,-2.368180811E-2,4.178497209E-2
6.703134583E-1,1.092475957E-2,-1.525502019E-2,-2.457994044E-2,3.092312217E-2
6.802914583E-1,-1.318404604E-2,3.311748742E-3,-2.143706203E-2,2.538374239E-2
6.902704583E-1,-1.887539228E-2,-1.245566112E-2,-2.532955348E-2,3.395600400E-2
7.002484583E-1,-3.925624159E-2,-1.024112413E-3,-3.730465114E-2,5.416399456E-2
7.102274583E-1,-2.065913110E-2,4.781647394E-3,-2.098799586E-2,2.983554625E-2
7.202054583E-1,4.077670039E-3,-8.711794009E-3,-2.293336451E-2,2.486889534E-2
7.301844583E-1,3.047719775E-2,-2.998803476E-2,-3.296075463E-2,5.398660165E-2
7.401624583E-1,2.665372399E-2,-5.097180967E-2,-3.969557762E-2,6.988766176E-2
7.501414583E-1,1.765714317E-2,-2.777116345E-2,-1.799071312E-2,3.750570600E-2
7.601194583E-1,2.863946812E-2,-2.747962950E-2,-9.309936762E-3,4.076792972E-2
7.700984583E-1,2.308826091E-2,-1.424041864E-2,-2.053717554E-2,3.402400467E-2
7.800764583E-1,-2.637148392E-2,-1.930078635E-2,-2.996814966E-2,4.434033730E-2
7.900563333E-1,-2.846504750E-2,4.515740694E-4,-2.652530909E-2,3.891085800E-2
8.000343333E-1,-3.715998052E-2,8.833484617E-3,-2.323098779E-2,4.470540679E-2
8.100133333E-1,-3.025572075E-2,-1.232944806E-3,-3.161297143E-2,4.377566394E-2
8.199913333E-1,-2.514736018E-2,-4.105608766E-3,-3.505522728E-2,4.333722081E-2
8.299703333E-1,-8.692756298E-3,-2.100053540E-2,-2.382857323E-2,3.293003798E-2
8.399483333E-1,1.199930650E-2,-6.307158549E-3,-2.742110252E-2,3.058889454E-2
8.499273333E-1,2.192019964E-2,-2.328064344E-2,-1.439759910E-2,3.506813897E-2
8.599053333E-1,2.388449408E-2,-2.373424119E-2,-3.954413474E-2,5.193767279E-2
8.698843333E-1,1.602185511E-2,-3.727532370E-2,-2.173000753E-2,4.602545845E-2
8.798623333E-1,1.371198337E-2,-1.419004122E-2,-1.484432638E-2,2.469270709E-2
8.898413333E-1,8.265594353E-3,-1.333500013E-2,-2.996288717E-2,3.382184037E-2
8.998193333E-1,-1.720364820E-2,-1.090716767E-2,-3.086043477E-2,3.697699626E-2
9.097983333E-1,-1.365548922E-2,-4.469442624E-3,-4.133806050E-2,4.376395262E-2
9.197763333E-1,1.482006728E-2,-3.351066699E-3,-1.154942036E-2,1.908541728E-2
9.297553333E-1,1.222735476E-2,-1.268336906E-2,-2.277665913E-2,2.879500402E-2
9.397333333E-1,4.315453002E-3,-1.894765564E-2,-2.666856587E-2,3.299771499E-2
9.497123333E-1,2.824109229E-3,-2.760733634E-2,-2.382564962E-2,3.657597836E-2
9.596903333E-1,7.125008146E-3,-2.407660937E-2,-1.184996724E-2,2.776455625E-2
9.696693333E-1,5.712869021E-3,-1.301812673E-2,-3.011257589E-2,3.329978562E-2
9.796473333E-1,-4.604013094E-3,-1.360600031E-2,-4.238763571E-2,4.475524373E-2
9.896263333E-1,-1.320016243E-2,-2.668389197E-2,-4.627954245E-2,5.502790590E-2
9.996043333E-1,-5.526989233E-4,-7.876012190E-3,-3.340631247E-2,3.432664791E-2
1.009583333E0,-6.969326029E-3,-6.114702928E-3,-2.203055441E-2,2.390201717E-2
1.019561333E0,-1.815530539E-2,-2.058095656E-2,-3.774845481E-2,4.667051240E-2
1.029540333E0,5.628072973E-3,-9.140216759E-3,-3.744907737E-2,3.895705538E-2
1.039518333E0,6.353148271E-3,-4.000258385E-3,-3.325603902E-2,3.409294196E-2
1.049497333E0,8.576426399E-4,-8.840053598E-3,-3.939269185E-2,4.038150901E-2
1.059475333E0,5.660216671E-3,-2.331783721E-2,-3.056047261E-2,3.885488478E-2
1.069454333E0,-9.029448568E-4,-2.557878648E-2,-3.205677509E-2,4.102104895E-2
1.079432333E0,-2.146024075E-3,-2.113941591E-2,-3.310459614E-2,3.933693696E-2
1.089411333E0,-5.829865867E-3,-8.132892251E-3,-4.433125019E-2,4.544657320E-2
1.099390333E0,-2.153846325E-2,-1.717134005E-2,-3.969031513E-2,4.831233210E-2
1.109368333E0,-2.784519468E-2,-8.979902552E-3,-1.768665791E-2,3.418788359E-2
1.119346333E0,-9.558781469E-3,7.291340875E-4,-2.232642353E-2,2.429755393E-2
1.129325333E0,-3.108306751E-3,-5.118090701E-3,-1.723700702E-2,1.824748844E-2
1.139304333E0,-2.296959898E-2,-2.862236730E-2,-1.633887470E-2,4.017214474E-2
1.149282333E0,-5.711560249E-3,-2.187354297E-2,-1.349478900E-2,2.632837125E-2
1.159261333E0,8.540943393E-3,-9.766088105E-3,-1.768665791E-2,2.193495062E-2
1.169239333E0,2.193725021E-2,-2.476698739E-2,-3.340455830E-2,4.701607306E-2
1.179218333E0,3.283956195E-3,-2.864829605E-2,-2.966292500E-2,4.136905068E-2
1.189196333E0,-2.754636998E-3,-1.439801480E-2,-2.008226216E-2,2.486338892E-2
1.199175333E0,5.110196960E-3,-5.943315555E-3,-3.475234151E-2,3.562530495E-2
1.209153333E0,-2.188488337E-2,-8.385944213E-3,-1.394502461E-2,2.727152163E-2
1.219132333E0,-3.155207816E-3,-1.668989950E-2,-2.142887592E-2,2.734419143E-2
1.229110333E0,-7.100710224E-3,4.503406724E-4,-3.415300190E-2,3.488624989E-2
1.239089333E0,-4.827790149E-3,-1.360023532E-2,-2.517109394E-2,2.901478810E-2
1.249067333E0,2.877659218E-3,-1.580352099E-2,-2.786490619E-2,3.216341393E-2
1.259046333E0,-5.064771404E-3,-1.190336420E-2,-3.355307758E-2,3.596040883E-2
1.269024333E0,1.532616436E-2,-1.084875033E-2,-2.981085956E-2,3.523171931E-2
1.279003333E0,1.630554100E-2,-2.420276762E-2,-3.280404925E-2,4.390615304E-2
1.288981333E0,1.505589508E-2,-2.841578700E-2,-1.274459124E-2,3.459135055E-2
1.298960333E0,-5.817509056E-3,-2.010928726E-2,-2.037930071E-2,2.921545384E-2
1.308938333E0,-5.051057856E-4,-1.312794474E-2,-4.687361956E-2,4.867991655E-2
1.318917333E0,3.830494985E-3,-8.135468680E-3,-3.579606950E-2,3.690822584E-2
1.328895333E0,-1.621498910E-2,-1.429660672E-2,-3.459972918E-2,4.079779522E-2
1.338874333E0,5.803966813E-3,-1.644957894E-2,-2.307428241E-2,2.892571843E-2
1.348852333E0,-8.349892474E-4,-2.498968408E-2,-2.382389545E-2,3.453635059E-2
1.358831333E0,1.850648322E-3,-8.745114002E-3,-3.190767109E-2,3.313610407E-2
1.368809333E0,4.865390486E-3,-6.325549870E-3,-1.738844991E-2,1.913224493E-2
1.378788333E0,-2.688967742E-3,-1.849741547E-2,-1.394619405E-2,2.332126187E-2
1.388766333E0,-4.251350616E-3,-8.411548622E-3,-2.562132955E-2,2.729982894E-2
1.398745333E0,-3.902568771E-3,-2.289138333E-2,-8.705919385E-3,2.479996988E-2
1.408723333E0,4.023496499E-3,-1.614063581E-2,-2.876420796E-2,3.322782431E-2
1.418702333E0,-2.139630967E-3,-1.423363495E-2,-3.100895405E-2,3.418668770E-2
1.428680333E0,-1.165894373E-2,-1.382497396E-2,-2.546988666E-2,3.123741347E-2
1.438659333E0,-3.730813663E-3,-1.772488408E-2,-2.696677387E-2,3.248534099E-2
1.448637333E0,3.573071316E-3,-1.987165733E-2,-2.083129048E-2,2.901020970E-2
1.458616333E0,2.773992196E-3,-2.886273811E-2,-1.424498677E-2,3.230591791E-2
1.468594333E0,-3.745417998E-3,-3.048267266E-2,-1.499401510E-2,3.417662911E-2
1.478573333E0,-5.606177892E-4,-2.773902660E-2,-1.918646872E-2,3.373260250E-2
1.488551333E0,3.490527361E-3,-2.594499120E-2,-3.580308616E-2,4.435298557E-2
1.498530333E0,5.362757847E-3,-2.410209501E-2,-2.038573265E-2,3.201949799E-2
1.508508333E0,-2.028234657E-3,-1.395340257E-2,-3.011549950E-2,3.325288693E-2
1.518487333E0,-8.429786910E-3,-2.528139618E-2,-3.460557640E-2,4.367786874E-2
1.528465333E0,9.576994632E-3,-2.006479360E-2,-3.206145287E-2,3.901604194E-2
1.538444333E0,1.893265616E-2,-2.161889216E-2,-3.505581200E-2,4.532915092E-2
1.548422333E0,6.889982054E-3,-1.295211714E-2,-3.550487816E-2,3.841647517E-2
1.558401333E0,5.280364640E-3,-7.829700415E-3,-4.553285301E-2,4.650190493E-2
1.568379333E0,-3.222226957E-4,-9.774511750E-3,-1.230195701E-2,1.571569450E-2
1.578358333E0,8.869225723E-3,-8.282032795E-3,-9.008805156E-3,1.511336503E-2
1.588336333E0,-4.949345996E-3,-1.347222697E-2,-3.400623679E-2,3.691098842E-2
1.598315333E0,-8.628311302E-3,-2.549158074E-2,-3.714911520E-2,4.587292453E-2
1.608293333E0,-4.905021361E-3,-3.043897386E-2,-2.592246115E-2,4.028106697E-2
1.618272333E0,-1.190530337E-2,-6.465143007E-3,-4.268818259E-2,4.478632889E-2
1.628250333E0,8.831693907E-4,-2.652601258E-2,-2.712055564E-2,3.794646057E-2
1.638229333E0,-4.614131518E-3,-2.932672838E-2,-4.238822043E-2,5.175044385E-2
1.648207333E0,-1.035478395E-2,-2.405933268E-2,-3.101304710E-2,4.059411447E-2
1.658186333E0,3.632596429E-3,-1.856126889E-2,-2.083421409E-2,2.813860225E-2
1.668164333E0,-1.237759623E-3,-2.192445486E-2,-3.610421777E-2,4.225787868E-2
1.678143333E0,1.194163834E-2,-1.967689480E-2,-3.490787745E-2,4.181318958E-2
1.688121333E0,1.064624252E-2,-1.549908662E-2,-2.667499781E-2,3.263617125E-2
1.698100333E0,8.548604159E-3,-2.092687419E-2,-2.038807154E-2,3.044152029E-2
1.708078333E0,7.536741206E-3,-1.090365934E-2,-2.158441186E-2,2.532941157E-2
1.718057333E0,-6.343440979E-3,-2.700740288E-2,-2.562659204E-2,3.776719838E-2
1.728035333E0,-5.057804994E-3,-1.771003306E-2,-2.877063990E-2,3.416103603E-2
1.738014333E0,-4.254870366E-3,-1.322859908E-2,-3.161472559E-2,3.453390551E-2
1.747992333E0,5.712455604E-6,-1.045158735E-2,-2.742344141E-2,2.934758677E-2
1.757971333E0,-4.469036059E-3,-1.317679640E-2,-3.939795434E-2,4.178276024E-2
1.767949333E0,-9.311640677E-3,-4.218469164E-3,-2.502783716E-2,2.703506551E-2
1.777928333E0,1.260812270E-2,-6.154354359E-3,-2.352978051E-2,2.739509822E-2
1.787905500E0,1.738155887E-2,-1.024227987E-2,-1.275160789E-2,2.386684708E-2
1.797884500E0,8.681493555E-4,-1.083178884E-2,-1.035541892E-2,1.501053076E-2
1.807862500E0,1.239791987E-2,-1.455361469E-2,-2.996464133E-2,3.554428010E-2
1.817841500E0,3.345511844E-3,-1.591583778E-2,-2.262872458E-2,2.786692516E-2
1.827819500E0,4.303425096E-3,-2.144147941E-2,-2.143004537E-2,3.061867651E-2
1.837798500E0,7.925850567E-3,-9.537069113E-3,-3.115922749E-2,3.353613353E-2
1.847776500E0,-1.615064917E-4,-1.918840104E-2,-3.055930316E-2,3.608450954E-2
1.857755500E0,7.751329453E-3,-2.078173990E-2,-3.475117207E-2,4.122629963E-2
1.867733500E0,1.155339007E-3,-7.635869784E-3,-3.565105855E-2,3.647792883E-2
1.877712500E0,-2.026663218E-3,-1.348499035E-2,-3.924358785E-2,4.154529475E-2
1.887690500E0,-2.226738492E-3,-2.209477329E-2,-1.978463888E-2,2.974170988E-2
1.897669500E0,-1.195207424E-2,-1.667172288E-2,-2.667032003E-2,3.364675903E-2
1.907647500E0,-1.021922448E-2,-2.028423778E-2,-2.277724385E-2,3.216653057E-2
1.917626500E0,-2.259752420E-3,-1.925845343E-2,-3.280638814E-2,3.810844542E-2
1.927604500E0,4.073373706E-3,-1.921993489E-3,-2.547105610E-2,2.586621602E-2
1.937583500E0,-9.543373142E-3,-1.354032420E-2,-3.564930439E-2,3.931016731E-2
1.947561500E0,-8.685399313E-4,-2.493300720E-2,-3.280521870E-2,4.121397315E-2
1.957540500E0,-8.508984705E-3,-9.520527888E-3,-2.532019794E-2,2.835763911E-2
1.967518500E0,-1.071898554E-2,-9.848602368E-3,-2.487113178E-2,2.881778644E-2
1.977497500E0,3.884038122E-3,-2.355428400E-2,-3.849222064E-2,4.529394106E-2
1.987475500E0,-1.914451495E-2,-1.311401193E-2,-1.903151751E-2,3.001147147E-2
1.997454500E0,1.601429028E-3,-7.871891730E-3,-2.861276507E-2,2.971904405E-2
2.007432500E0,2.388651548E-3,-1.958788464E-2,-2.352334857E-2,3.070405200E-2
2.017411500E0,3.701264667E-4,-1.270223547E-2,-4.223326921E-2,4.410365980E-2
2.027389500E0,5.257121958E-3,-1.011855187E-2,-2.022902727E-2,2.322145490E-2
2.037368500E0,9.652366613E-3,-1.456982701E-2,-3.100719988E-2,3.559346127E-2
2.047346500E0,9.215817146E-3,-7.871069466E-3,-2.531902850E-2,2.807023734E-2
2.057325500E0,6.344528196E-3,-2.819933952E-3,-3.804198503E-2,3.867037226E-2
2.067303500E0,6.591822021E-5,-7.730695177E-3,-4.013587296E-2,4.087366256E-2
2.077282500E0,-3.132273483E-3,-1.472386917E-2,-3.489676774E-2,3.800510306E-2
2.087260500E0,-2.792346971E-3,-9.201982543E-3,-1.588513076E-2,1.856908893E-2
2.097239500E0,-1.484265444E-3,-2.618424282E-3,-2.800991714E-2,2.817116696E-2
2.107217500E0,1.741374825E-2,-2.667217927E-2,-2.366835952E-2,3.968419102E-2
2.117196500E0,1.687717714E-2,-9.425903494E-3,-3.414656997E-2,3.923869271E-2
2.127174500E0,8.021189875E-3,-2.123007973E-2,-3.040435195E-2,3.794048484E-2
2.137153500E0,3.672743503E-3,-2.130483729E-2,-3.938509047E-2,4.492850418E-2
2.147131500E0,9.388748549E-3,-2.327910854E-2,-3.324785292E-2,4.165915527E-2
2.157110500E0,-1.822259633E-3,-1.632658641E-2,-1.842925429E-2,2.468836705E-2
2.167088500E0,-6.390111353E-3,-6.581904595E-3,-4.028497696E-2,4.131627234E-2
2.177067500E0,-4.985050557E-3,-2.820779057E-4,-3.399863541E-2,3.436331630E-2
2.187045500E0,9.010429129E-3,-2.027193578E-2,-3.609486222E-2,4.236718415E-2
2.197024500E0,1.107583700E-3,-2.896211794E-2,-2.801167130E-2,4.030737831E-2
2.207002500E0,-1.691512694E-3,-3.146398163E-2,-3.309991837E-2,4.569953994E-2
2.216981500E0,-3.004879556E-3,-1.550554140E-2,-1.858011246E-2,2.438589129E-2
2.226959500E0,2.301052948E-3,-1.806182531E-2,-2.831046402E-2,3.366016565E-2
2.236938500E0,4.762712466E-3,-1.707771608E-2,-4.297937393E-2,4.649256285E-2
2.246917500E0,-7.247600961E-4,-2.906968843E-2,-1.184470475E-2,3.139855241E-2
2.256895500E0,-2.509366858E-3,-2.436712920E-2,-2.112657487E-2,3.234789133E-2
2.266874500E0,-1.395881810E-2,-2.193824150E-2,-3.010731339E-2,3.978172146E-2
2.276852500E0,2.292354302E-2,-2.230844791E-2,-2.292167008E-2,3.935172972E-2
2.286831500E0,1.277718033E-2,-8.967335606E-3,-2.022785783E-2,2.555064925E-2
2.296809500E0,-2.898046814E-3,-7.233617892E-3,-2.112657487E-2,2.251790552E-2
2.306788500E0,-7.855142655E-3,-1.387421848E-2,-2.846190691E-2,3.262326393E-2
2.316766500E0,-6.756425709E-3,-2.456593453E-2,-2.352100968E-2,3.467524080E-2
2.326744500E0,2.128418474E-3,-1.962550325E-2,-3.085692644E-2,3.663114048E-2
2.336723500E0,1.295697992E-2,-1.696037890E-2,-2.472027361E-2,3.265929743E-2
2.346702500E0,8.333787506E-3,-1.323952606E-2,-3.385128558E-2,3.729137434E-2
2.356680500E0,1.001344817E-2,-2.219239438E-2,-3.475000262E-2,4.243034521E-2
2.366659500E0,5.288285790E-3,-9.460438611E-3,-1.259607196E-2,1.661706635E-2
2.376637500E0,-2.807764434E-3,-2.173286718E-2,-2.247494280E-2,3.138987275E-2
2.386616500E0,-1.487505624E-2,-2.508915526E-2,-2.876128435E-2,4.096272070E-2
2.396594500E0,-3.821511744E-3,-2.283450545E-2,-2.307252824E-2,3.268577903E-2
2.406572500E0,-1.045938287E-2,-9.070534394E-3,-3.175447404E-2,3.464130347E-2
2.416551500E0,8.814220782E-4,-7.837799722E-3,-2.591661394E-2,2.709019910E-2
2.426530500E0,-3.790669965E-3,-1.169595249E-2,-2.441914201E-2,2.733969605E-2
2.436508500E0,-2.968592558E-3,-1.797399831E-2,-1.678560197E-2,2.477162874E-2
2.446487500E0,-6.706612457E-3,-5.671730661E-3,-1.768373430E-2,1.974491423E-2
2.456465500E0,5.912464641E-3,-2.070230913E-2,-1.349186540E-2,2.540813400E-2
2.466444500E0,9.131306608E-3,-2.696433905E-2,-1.199497819E-2,3.089232660E-2
2.476422500E0,1.964314997E-3,-2.522499339E-2,-2.860984147E-2,3.819269372E-2
2.486401500E0,1.873933716E-2,-1.135440201E-2,-3.519497573E-2,4.145806941E-2
2.496379500E0,2.426971367E-3,-3.088494739E-3,-2.995703995E-2,3.021346111E-2
2.506358500E0,8.633256310E-3,-1.194582503E-2,-2.995762467E-2,3.338705028E-2
2.516336500E0,6.360055294E-3,-1.438216337E-2,-2.696326554E-2,3.121401312E-2
2.526315500E0,-2.796257297E-3,-1.894093134E-2,-3.429859757E-2,3.928067885E-2
2.536293500E0,-1.299172289E-2,-1.263576907E-2,-4.283026993E-2,4.650676882E-2
2.546272500E0,-5.404236533E-3,-2.129473714E-2,-2.501731217E-2,3.329470695E-2
2.556250500E0,-6.673822368E-3,-1.348960874E-2,-2.621423721E-2,3.022739952E-2
2.566229500E0,1.197204386E-2,-1.530681373E-2,-1.872863173E-2,2.698870184E-2
2.576207500E0,1.192787682E-2,-6.076326007E-3,-3.788937271E-2,4.018458096E-2
2.586186500E0,1.181641427E-2,-7.093933392E-3,-1.693295181E-2,2.183291996E-2
2.596164500E0,1.315047251E-2,-2.560125258E-2,-1.872980118E-2,3.433896494E-2
2.606143500E0,-3.828902990E-3,-2.542137761E-2,-3.085517228E-2,4.016153127E-2
2.616121500E0,-4.328814803E-3,-2.647067873E-2,-1.932914078E-2,3.306132413E-2
2.626100500E0,-6.784862364E-3,-1.730348712E-2,-2.786081314E-2,3.349134116E-2
2.636078500E0,2.157608871E-3,-2.037333929E-2,-3.279995620E-2,3.867254009E-2
2.646057500E0,-1.673572020E-2,-2.208657805E-2,-1.902859390E-2,3.361530375E-2
2.656035500E0,4.035743675E-3,-1.002473147E-2,-3.205092788E-2,3.382372608E-2
2.666014500E0,-1.622365029E-2,-4.936827016E-3,-3.249882460E-2,3.665723244E-2
2.675992500E0,-5.723729767E-3,-1.502770511E-2,-3.085166395E-2,3.479106454E-2
2.685971500E0,2.527817565E-3,-2.122321382E-2,-3.085107923E-2,3.753137029E-2
2.695949500E0,1.422229455E-2,-9.094211049E-3,-3.369516492E-2,3.768743127E-2
2.705928500E0,3.531405337E-3,-2.643353064E-2,-2.830637097E-2,3.889026875E-2
2.715906500E0,-1.644049748E-3,-1.217652510E-2,-1.363629162E-2,1.835535650E-2
2.725885500E0,7.074875124E-3,-1.817698348E-2,-1.917477429E-2,2.735193879E-2
2.735863500E0,-3.627096391E-3,-2.928765253E-3,-2.905422986E-2,2.942586900E-2
2.745842500E0,-4.416714900E-3,-1.001000836E-2,-4.252679944E-2,4.391168761E-2
2.755820500E0,3.155781117E-3,-1.807768588E-2,-1.887598157E-2,2.632611558E-2
2.765799500E0,-1.189418681E-2,-1.332374424E-2,-2.890571058E-2,3.397843352E-2
2.775777500E0,-1.221531772E-2,-1.137838473E-2,-2.725913465E-2,3.196470003E-2
2.785756500E0,1.158466125E-2,-4.049580563E-3,-3.908571303E-2,4.096701651E-2
2.795737708E0,8.959761634E-3,-2.713152374E-2,-2.920684218E-2,4.085873884E-2
2.805716708E0,-7.681743018E-3,-1.487376345E-2,-2.127217054E-2,2.706923077E-2
2.815694708E0,-9.162874720E-3,-1.463665886E-2,-3.923657119E-2,4.286838666E-2
2.825673708E0,-1.230563665E-2,-1.709254882E-2,-3.070431411E-2,3.723357119E-2
2.835651708E0,-2.933516116E-3,-3.094182070E-3,-2.830929458E-2,2.862858081E-2
2.845630708E0,-1.444079541E-4,-3.338088621E-3,-1.498758316E-2,1.535549863E-2
2.855608708E0,-1.045187971E-2,-7.278728248E-3,-2.890746474E-2,3.158897264E-2
2.865587708E0,-6.007251204E-3,-2.556416388E-3,-2.187151015E-2,2.282510215E-2
2.875565708E0,7.341636065E-3,-2.328342087E-2,-3.055462539E-2,3.911013219E-2
2.885544708E0,-3.308055403E-3,-2.587246746E-2,-2.486703873E-2,3.603744466E-2
2.895522708E0,1.618461327E-3,-2.071595872E-2,-3.339871109E-2,3.933502593E-2
2.905501708E0,1.115384480E-2,-1.578666457E-2,-2.337073624E-2,3.032850712E-2
2.915479708E0,9.352536926E-3,-2.647109900E-2,-2.022668839E-2,3.460213797E-2
2.925458708E0,1.461063190E-2,-2.601100079E-2,-4.028556168E-2,5.012952430E-2
2.935436708E0,1.013191367E-2,-9.755663616E-3,-3.100544572E-2,3.404653156E-2
2.945415708E0,-9.665378951E-4,-1.943590729E-2,-3.070548356E-2,3.635265338E-2
2.955393708E0,4.285305580E-3,-1.909358022E-2,-3.489618301E-2,4.000840210E-2
2.965372708E0,-3.851227476E-3,-6.147867604E-3,-2.621423721E-2,2.719953054E-2
2.975350708E0,3.668641315E-3,-2.009156289E-2,-1.872980118E-2,2.771164521E-2
2.985329708E0,1.221531544E-2,-2.593607877E-2,-2.052606583E-2,3.525923271E-2
2.995307708E0,-9.527215641E-4,-1.903835144E-2,-4.178186417E-2,4.592483726E-2
3.005286708E0,3.520948871E-3,-1.630668303E-2,-3.354898453E-2,3.746784429E-2
3.015264708E0,1.422855747E-2,-2.927242236E-2,-2.501731217E-2,4.105109580E-2
3.025243708E0,6.032458185E-3,-8.904802375E-3,-3.190299332E-2,3.366729927E-2
3.035221708E0,8.708968617E-3,-1.183627197E-2,-2.411976457E-2,2.824369861E-2
3.045200708E0,8.370755157E-3,-2.214978280E-2,-2.831104875E-2,3.690796528E-2
3.055178708E0,3.420120946E-3,-1.959931869E-2,-1.783283830E-2,2.671779636E-2
3.065157708E0,5.731685178E-3,-2.468292452E-3,-3.459797502E-2,3.515628760E-2
3.075135708E0,3.240874093E-3,-5.359014259E-3,-1.214466691E-2,1.366437825E-2
3.085114708E0,1.130570567E-3,-2.258283307E-2,-2.935945451E-2,3.705725446E-2
3.095092708E0,1.028760264E-2,-2.144249354E-2,-2.307194352E-2,3.313502490E-2
3.105071708E0,2.936768630E-3,-8.680196204E-3,-2.801108658E-2,2.947187452E-2
3.115049708E0,-1.062676627E-3,-2.083339183E-2,-2.411917984E-2,3.188878068E-2
3.125028708E0,-4.369167443E-3,-5.365345697E-3,-3.459680557E-2,3.528194318E-2
3.135006708E0,1.384061070E-3,-1.658723061E-2,-2.860925674E-2,3.309896397E-2
3.144985708E0,-7.246426949E-3,-1.828535340E-2,-2.950680435E-2,3.546147706E-2
3.154963708E0,1.264775586E-3,-5.540127195E-3,-3.429567397E-2,3.476328407E-2
3.164942708E0,9.638632508E-4,-8.989463663E-3,-2.561372817E-2,2.716252124E-2
3.174920708E0,1.071598884E-2,-2.838790765E-2,-2.636334121E-2,4.019616248E-2
3.184899708E0,-2.090585162E-4,-1.574013352E-2,-3.549318373E-2,3.882733058E-2
3.194877708E0,-7.488044864E-4,-1.951314535E-2,-1.842808485E-2,2.684991361E-2
3.204856708E0,-1.094468121E-2,-8.957847585E-3,-2.471501112E-2,2.847561860E-2
3.214834708E0,4.645667654E-3,-1.007015246E-2,-3.594283462E-2,3.761485822E-2
3.224813708E0,-6.559171260E-3,-1.857634831E-2,-2.576341689E-2,3.243234641E-2
3.234791708E0,-4.790192095E-3,-2.538134702E-2,-2.486586928E-2,3.585345412E-2
3.244770708E0,4.611488851E-3,-2.859180646E-2,-3.489442885E-2,4.534730853E-2
3.254748708E0,2.865327531E-3,-1.224997618E-2,-2.082310438E-2,2.432845442E-2
3.264727708E0,1.723283403E-2,-1.466978242E-2,-2.486411512E-2,3.362138167E-2
3.274705708E0,3.495428972E-3,-1.479029445E-2,-2.740823865E-2,3.133978908E-2
3.284684708E0,-1.479726543E-2,-1.858572213E-2,-2.606045544E-2,3.526379828E-2
3.294662708E0,-2.800880251E-3,-1.145583293E-2,-1.558166027E-2,1.954147321E-2
3.304641708E0,-6.571151200E-3,-9.181174678E-3,-2.815668225E-2,3.033599763E-2
3.314619708E0,-1.093873807E-2,-1.187529756E-2,-3.219827771E-2,3.601954706E-2
3.324598708E0,1.377051035E-2,-1.211850976E-2,-4.447333753E-2,4.810782665E-2
3.334576708E0,5.574726267E-4,-1.871510548E-2,-3.384543836E-2,3.867918881E-2
3.344555708E0,-5.253056316E-3,1.011157176E-3,-4.492298841E-2,4.524037939E-2
3.354533708E0,-1.914572550E-3,-7.603481691E-3,-3.474357069E-2,3.561733041E-2
3.364512708E0,-3.399383887E-3,-7.035155171E-3,-3.609076917E-2,3.692685796E-2
3.374490708E0,1.737356463E-2,-1.244806431E-2,-2.306843519E-2,3.144753973E-2
3.384469708E0,2.842345233E-3,-1.009595329E-2,-2.920567274E-2,3.103189520E-2
3.394447708E0,1.629678388E-3,-6.876298198E-3,-3.339754164E-2,3.413700509E-2
3.404426708E0,-5.304760777E-3,-1.569410040E-2,-2.321987808E-2,2.852381483E-2
3.414404708E0,-4.515267892E-3,-7.758926265E-3,-2.651419938E-2,2.799270172E-2
3.424383708E0,1.350629157E-3,-3.358732034E-3,-1.364155412E-2,1.411372661E-2
3.434361708E0,-1.305115893E-2,-1.318784216E-2,-2.696618915E-2,3.273266392E-2
3.444340708E0,-1.075487740E-2,-1.556543425E-2,-3.490144551E-2,3.969963513E-2
3.454318708E0,8.610938676E-5,-3.270906854E-2,-2.576984882E-2,4.164103371E-2
3.464297708E0,9.298632906E-3,-1.563603938E-2,-2.427296162E-2,3.033359469E-2
3.474275708E0,-1.197598844E-3,-6.902501034E-3,-1.214934468E-2,1.402445506E-2
3.484254708E0,-6.580755708E-3,-1.921126000E-2,-2.891448140E-2,3.533307362E-2
3.494232708E0,8.118810968E-3,-9.061973705E-3,-2.936296284E-2,3.178392748E-2
3.504211708E0,7.315670773E-3,-1.284627340E-2,-4.298463643E-2,4.545574494E-2
3.514189708E0,-1.091017351E-2,-2.052014095E-2,-3.430210590E-2,4.143359193E-2
3.524168708E0,-3.281772626E-3,-2.450439258E-2,-3.804256976E-2,4.537039124E-2
3.534146708E0,7.811512377E-3,-1.352688930E-2,-3.789346576E-2,4.098671989E-2
3.544125708E0,1.866259931E-3,-1.401216252E-2,-3.295432270E-2,3.585820700E-2
3.554103708E0,2.671903465E-3,-2.347176060E-2,-3.205677509E-2,3.982084182E-2
3.564082708E0,-7.396915094E-3,-2.471725408E-2,-2.891389668E-2,3.875139253E-2
3.574060708E0,3.723219135E-3,-1.524873443E-2,-2.981144428E-2,3.369137089E-2
3.584039708E0,3.767116650E-3,-1.491743485E-2,-2.861393452E-2,3.248812520E-2
3.594017708E0,-6.273852261E-3,-1.015766426E-2,-2.651770771E-2,2.908140621E-2
3.603996708E0,-4.809268636E-3,-2.325455938E-2,-2.157681048E-2,3.208523565E-2
3.613974708E0,-7.363122299E-3,-1.337029813E-2,-1.873272479E-2,2.416392807E-2
3.623953708E0,-1.341869297E-2,-3.994132513E-3,-3.759291887E-2,4.011535822E-2
3.633931708E0,-7.055693516E-4,-2.407670530E-2,-2.456883073E-2,3.440658381E-2
3.643910708E0,1.215384201E-2,-1.420116006E-2,-2.322104752E-2,2.980949296E-2
3.653888708E0,1.319003030E-2,-2.019187004E-2,-1.498699844E-2,2.839539817E-2
3.663867708E0,1.803728985E-3,-3.895886499E-2,-3.160303116E-2,5.019759136E-2
3.673845708E0,8.913130090E-3,-1.237240226E-2,-3.100486100E-2,3.455172399E-2
3.683823708E0,-9.975345335E-3,-1.452843512E-2,-1.738377213E-2,2.475436275E-2
3.693802708E0,-5.196096213E-4,-2.100219363E-2,-2.606688738E-2,3.347901954E-2
3.703781708E0,-1.096750134E-2,-1.469970829E-2,-4.163509905E-2,4.549559300E-2
3.713759708E0,-5.902764201E-4,-1.939082891E-4,-3.879218280E-2,3.879715806E-2
3.723738708E0,-1.069375800E-2,8.370883064E-4,-2.591895282E-2,2.805083408E-2
3.733716708E0,-1.177505893E-4,-1.722871128E-2,-2.472319722E-2,3.013434649E-2
3.743695708E0,1.148110158E-2,-1.803273541E-2,-2.681942403E-2,3.429689119E-2
3.753673708E0,7.769832693E-3,-1.847098880E-2,-3.580016255E-2,4.102681277E-2
3.763652708E0,4.489428224E-3,-2.534627287E-2,-3.235732198E-2,4.134712565E-2
3.773630708E0,1.105946023E-5,-2.072911039E-2,-1.499284565E-2,2.558283723E-2
3.783609708E0,3.360984125E-3,-7.847315152E-3,-3.534992695E-2,3.636610929E-2
3.793587500E0,9.689775088E-3,-1.973976607E-2,-2.936296284E-2,3.668424311E-2
3.803566500E0,-1.000232932E-2,-8.921576575E-3,-1.469229877E-2,1.988730157E-2
3.813544500E0,-1.650732933E-3,-1.537946081E-2,-3.549903095E-2,3.872252487E-2
3.823523500E0,6.430212746E-3,-1.269237286E-2,-2.621833026E-2,2.983026662E-2
3.833501500E0,1.029388840E-2,-8.016180913E-3,-1.439292133E-2,1.942625747E-2
3.843480500E0,-1.111835951E-2,-8.957573497E-3,-2.891331196E-2,3.224648275E-2
3.853458500E0,5.948715094E-3,-2.558942111E-2,-3.205677509E-2,4.144686373E-2
3.863437500E0,1.488528886E-2,-1.911167918E-2,-4.073813617E-2,4.739645392E-2
3.873415500E0,1.249613025E-2,-1.326007811E-2,-3.235615253E-2,3.713359058E-2
3.883393500E0,-8.089901512E-3,-1.258747016E-2,-3.056047261E-2,3.402695104E-2
3.893372500E0,6.434447409E-3,-1.051513470E-2,-2.636860371E-2,2.910796167E-2
3.903350500E0,1.488581648E-2,-1.128979028E-2,-2.337365985E-2,2.992281524E-2
3.913329500E0,-4.653017786E-3,-1.463894293E-2,-2.442148089E-2,2.885061444E-2
3.923307500E0,-1.448042171E-2,-3.171721632E-3,-3.385187030E-2,3.695526422E-2
3.933286500E0,-3.009340342E-3,-1.390831506E-2,-3.385128558E-2,3.672066029E-2
3.943264500E0,-7.908491646E-3,-6.517397929E-3,-3.190591693E-2,3.351131527E-2
3.953243500E0,-1.983342202E-2,-1.210429371E-2,-2.367245257E-2,3.317022107E-2
3.963221500E0,-8.428852726E-4,-1.214669516E-2,-1.888124406E-2,2.246673177E-2
3.973200500E0,1.899397199E-3,-1.867808073E-2,-3.609369278E-2,4.068455564E-2
3.983178500E0,-2.733344911E-4,-2.185809810E-2,-2.980559707E-2,3.696247801E-2
3.993157500E0,3.580572198E-3,-3.736569059E-2,-1.708088636E-2,4.124041718E-2
4.003135500E0,4.614635841E-2,-4.292964976E-2,-2.980384290E-2,6.971879427E-2
4.013114500E0,1.134787231E-1,-6.341822031E-2,-1.813806295E-3,1.300099272E-1
4.023092500E0,8.965186754E-2,-5.726672104E-2,-9.237080455E-2,1.408875446E-1
4.033071500E0,-2.213929207E-2,-1.286034783E-2,3.037102282E-2,3.972324039E-2
4.043049500E0,-4.075221974E-2,7.407901464E-3,-4.102815807E-2,5.830034453E-2
4.053028500E0,-4.724666278E-2,1.935368538E-2,-2.381453991E-2,5.633777234E-2
4.063006500E0,-1.420179229E-1,3.433431127E-2,-5.300267100E-2,1.554259261E-1
4.072985500E0,-1.419691809E-1,5.311119624E-2,6.573439837E-3,1.517209860E-1
4.082963500E0,-7.424684800E-2,3.750019482E-2,-3.938158214E-2,9.203134282E-2
4.092942500E0,5.004661113E-2,-2.818104870E-2,-9.292979836E-3,5.818242231E-2
4.102920500E0,5.920884174E-2,-7.394763501E-2,-3.504002452E-2,1.010036781E-1
4.112899500E0,7.926535788E-2,-7.753319333E-2,-3.309348643E-2,1.157133176E-1
4.122877500E0,9.765434861E-2,-6.189744632E-2,-2.066932261E-2,1.174516350E-1
4.132856500E0,1.147729861E-1,-7.229267655E-2,1.929639637E-2,1.370088330E-1
4.142834500E0,4.437049049E-2,-4.325807598E-2,-8.638208628E-2,1.063102365E-1
4.152813500E0,-6.610942873E-2,8.436294221E-3,-3.905940056E-3,6.675989810E-2
4.162791500E0,-1.147006816E-1,5.598931456E-2,-2.890395641E-2,1.308682100E-1
4.172770500E0,-8.787935721E-2,4.564039153E-2,-2.276671886E-2,1.016078257E-1
4.182748500E0,-7.121066300E-2,1.583821143E-2,-1.782582164E-2,7.509705309E-2
4.192727500E0,-5.731270848E-2,8.385656420E-3,-4.357111216E-2,7.248108444E-2
4.202705500E0,5.859494805E-3,-8.088352913E-3,-2.216504037E-2,2.431139953E-2
4.212684500E0,7.204461300E-2,-4.708312803E-2,-2.815258920E-2,9.055283257E-2
4.222662500E0,1.170972543E-1,-8.725069930E-2,-2.291289926E-2,1.478156028E-1
4.232641500E0,1.013960093E-1,-8.227021459E-2,-5.748982430E-2,1.426696142E-1
4.242619500E0,6.638205516E-2,-3.615657319E-2,2.533598542E-3,7.563262625E-2
4.252598500E0,-3.585224845E-3,-1.722342138E-2,-4.910725594E-2,5.216342269E-2
4.262576500E0,-2.401919017E-2,-9.937991677E-3,-3.009795785E-2,3.976898593E-2
4.272555500E0,-8.528978985E-2,1.993153190E-2,-2.381103158E-2,9.076662074E-2
4.282533500E0,-1.104989455E-1,5.845860743E-2,-2.650484383E-2,1.277886242E-1
4.292512500E0,-9.464121443E-2,4.464405796E-2,-3.155742288E-3,1.046900668E-1
4.302490500E0,-3.205905231E-2,-6.472780933E-3,-7.889765024E-2,8.540795596E-2
4.312469500E0,3.770430376E-2,-3.756367823E-2,-1.707562387E-2,5.589473477E-2
4.322447500E0,5.623745120E-2,-4.926196961E-2,4.279869497E-2,8.614592769E-2
4.332426500E0,1.078735183E-1,-2.859069183E-2,-1.184137183E-1,1.627142658E-1
4.342404500E0,5.122127107E-2,-1.045145944E-1,-2.066873789E-2,1.182121642E-1
4.352383500E0,7.771797448E-2,-7.666933117E-2,1.450869620E-2,1.101307049E-1
4.362361500E0,-9.057563168E-3,1.661050984E-2,-7.560449839E-2,7.793579835E-2
4.372340500E0,-3.336457796E-2,3.764947241E-2,-2.554063797E-3,5.037063706E-2
4.382318500E0,-1.040623579E-1,2.111180609E-2,2.169433951E-2,1.083758601E-1
4.392297500E0,-6.617720618E-2,8.920530472E-3,-4.282208383E-2,7.932672529E-2
4.402275500E0,-3.141765843E-2,3.069056402E-2,-1.136219251E-1,1.218151134E-1
4.412254500E0,-1.399751936E-2,-1.569452067E-2,1.305151159E-1,1.321985022E-1
4.422232500E0,1.782728710E-1,-6.416145167E-3,-2.778175879E-1,3.301590459E-1
4.432211500E0,1.167515559E-1,-1.226144494E-1,2.383605766E-1,2.923713281E-1
4.442189500E0,1.529816716E-1,-1.033410856E-1,1.235604376E-1,2.221484943E-1
4.452168500E0,-4.690397940E-2,1.707231654E-2,-3.015303862E-1,3.056338023E-1
4.462146500E0,2.324317558E-1,3.618312777E-2,8.530619860E-2,2.502216764E-1
4.472125500E0,-1.454990080E-1,-6.814305379E-2,-1.182833254E-2,1.611004238E-1
4.482103500E0,-1.398463858E-1,-5.509236538E-2,-1.375732899E-1,2.037611112E-1
4.492082500E0,-3.410808798E-3,8.402716585E-2,5.824411511E-3,8.429781722E-2
4.502060500E0,-9.538314387E-2,8.171301149E-2,-5.544914603E-3,1.257207479E-1
4.512039500E0,-1.343609758E-1,-6.016965805E-2,-6.659393907E-2,1.615797397E-1
4.522017500E0,-1.848642910E-2,-8.611961938E-2,-5.578536093E-2,1.042609390E-1
4.531996500E0,5.513863147E-2,-1.535017448E-3,-3.500728011E-3,5.527096938E-2
4.541974500E0,1.440387115E-1,-5.692392346E-3,3.351156235E-2,1.479951978E-1
4.551953500E0,6.982058798E-2,-7.225400270E-2,-1.273652208E-1,1.622265542E-1
4.561931500E0,8.670988667E-2,-6.188846079E-2,-1.418253851E-1,1.773787639E-1
4.571910500E0,-1.283260097E-2,-3.180275012E-2,9.168434143E-3,3.549860205E-2
4.581888500E0,6.291217578E-2,9.482548395E-2,1.254262841E-1,1.693563315E-1
4.591867500E0,1.563731845E-1,9.541862916E-2,8.643646538E-2,2.025550547E-1
4.601845500E0,3.462606358E-1,2.299148949E-1,-1.271769404E-1,4.346622378E-1
4.611824500E0,1.235213782E0,6.445280564E-1,5.120704955E-1,1.484380576E0
4.621802500E0,2.063676093E0,9.860576369E-1,1.312204655E0,2.636844655E0
4.631781500E0,1.752505694E0,8.189930378E-1,1.210595250E0,2.282009348E0
4.641759500E0,2.174261705E0,1.500418048E0,1.169285256E-1,2.644303417E0
4.651738500E0,1.030360820E0,2.014548810E0,1.383068815E0,2.651967133E0
4.661716500E0,-2.441164003E0,-1.013008550E-1,3.330834237E0,4.130859507E0
4.671695500E0,-1.541636095E0,-2.967379717E-1,3.878364587E-1,1.617130913E0
4.681673500E0,-2.475289523E0,1.268369833E0,9.720674425E-1,2.946308770E0
4.691652500E0,-1.802555668E0,1.315910035E0,9.686877519E-1,2.432936932E0
4.701630500E0,3.922266944E-1,4.408585351E-1,-2.056699634E-2,5.904413850E-1
4.711609500E0,8.150834432E-1,-3.003935413E0,-2.851553172E0,4.221296540E0
4.721587500E0,-2.277780665E0,-5.612108467E0,-1.158705888E0,6.166574862E0
4.731566500E0,-8.997023016E-1,-2.206380168E0,-6.890622050E-1,2.480400048E0
4.741544500E0,1.951382070E0,5.482091387E-1,-8.054779297E-1,2.181105211E0
4.751523500E0,3.552557438E0,1.617085130E-1,9.272573054E-2,3.557444596E0
4.761501500E0,3.177094565E0,-3.681303187E-1,1.443772854E0,3.509120953E0
4.771480500E0,2.120533102E0,-6.134217462E-1,2.911918073E0,3.654068108E0
4.781458500E0,8.177345708E-1,-1.158815743E0,3.788619182E0,4.045389853E0
4.791435458E0,-3.568798372E-1,-1.612992006E0,3.988631964E0,4.317208748E0
4.801413458E0,-6.586452815E-1,-1.251309997E0,3.811112836E0,4.064993403E0
4.811392458E0,-8.255350488E-1,-7.504676172E-1,4.033004145E0,4.184475140E0
4.821370458E0,-1.042115624E0,-6.702080774E-1,4.538208840E0,4.704309016E0
4.831349458E0,-1.072504189E0,-8.653869664E-1,4.921719528E0,5.111015844E0
4.841327458E0,-8.216168296E-1,-1.224124025E0,4.970780007E0,5.184803537E0
4.851306458E0,-3.718685898E-1,-1.441296851E0,4.923244482E0,5.143341238E0
4.861284458E0,3.401600164E-1,-1.455872936E0,5.088967438E0,5.304042272E0
4.871263458E0,1.039892513E0,-1.374717530E0,5.433509358E0,5.700372678E0
4.881241458E0,1.634739409E0,-1.336568541E0,5.747619444E0,6.123227716E0
4.891220458E0,1.621884890E0,-1.435086231E0,5.886187345E0,6.271936268E0
4.901198458E0,2.127649748E-1,-1.442045879E0,5.566576783E0,5.754262970E0
4.911177458E0,-8.733839840E-1,-1.564057097E0,5.164438035E0,5.466305370E0
4.921155458E0,-4.105716026E-1,-1.462823668E0,5.310532472E0,5.523601838E0
4.931134458E0,4.860141331E-1,-1.234505391E0,5.827533925E0,5.976651650E0
4.941112458E0,1.856914308E0,-1.947788225E0,6.292959427E0,6.844220048E0
4.951091458E0,3.346357425E0,-3.267494273E0,6.112118495E0,7.696273081E0
4.961069458E0,2.651374914E0,-4.557005592E0,4.179685643E0,6.727990857E0
4.971048458E0,2.219080321E0,-3.951800645E0,1.774911786E0,4.867376877E0
4.981026458E0,2.534213669E0,-2.937812175E0,1.071975893E0,4.025184668E0
4.991005458E0,2.739183721E0,-2.470161515E0,1.805578678E0,4.106694502E0
5.000983458E0,2.817878473E0,-2.725652679E0,2.576229422E0,4.691117100E0
5.010962458E0,3.722343916E0,-2.926014540E0,3.479467535E0,5.875721202E0
5.020940458E0,5.238270242E0,-3.148469521E0,4.419144911E0,7.541961098E0
5.030919458E0,6.804763874E0,-4.279622160E0,4.843424726E0,9.385027453E0
5.040897458E0,7.514159771E0,-5.346228554E0,3.986678410E0,1.004680853E1
5.050876458E0,6.151555041E0,-5.879478250E0,1.471157412E0,8.635635358E0
5.060854458E0,4.899712948E0,-4.784072564E0,-7.689603138E-1,6.890996824E0
5.070833458E0,4.743755427E0,-3.987630921E0,-1.243098460E0,6.320578272E0
5.080811458E0,4.657598459E0,-4.386129193E0,-1.281881287E0,6.524919335E0
5.090790458E0,4.934281687E0,-4.236961459E0,-9.735122895E-1,6.576222650E0
5.100768458E0,5.224138691E0,-3.635177134E0,-2.551836008E-1,6.369557012E0
5.110746458E0,5.003020384E0,-3.818163409E0,3.952723628E-1,6.305935698E0
5.120725458E0,4.094865348E0,-4.827832541E0,3.471027079E-1,6.340060690E0
5.130703458E0,2.521619352E0,-5.492033554E0,-8.848603141E-1,6.107697970E0
5.140682458E0,1.526878161E0,-5.050094563E0,-2.498356496E0,5.837516355E0
5.150660458E0,1.529227572E0,-4.156156447E0,-3.743022594E0,5.798481829E0
5.160639458E0,1.358495307E0,-3.718080711E0,-4.619000988E0,6.083157388E0
5.170617458E0,7.073903024E-1,-3.579304649E0,-5.149992489E0,6.311437669E0
5.180596458E0,3.336783779E-1,-3.287077475E0,-5.230135011E0,6.186318115E0
5.190574458E0,1.475626731E-1,-3.044100814E0,-4.343843883E0,5.306345653E0
5.200553458E0,3.377725983E-1,-3.302974301E0,-3.478962920E0,4.809044870E0
5.210531458E0,-3.846643442E-1,-3.798420285E0,-3.766314393E0,5.362936456E0
5.220510458E0,-1.633865835E0,-3.530710779E0,-5.070031815E0,6.390669665E0
5.230488458E0,-2.793056458E0,-3.038844752E0,-6.157841967E0,7.413147746E0
5.240467458E0,-4.395743769E0,-2.937390883E0,-6.461346374E0,8.348642132E0
5.250445458E0,-6.272560830E0,-2.726318969E0,-6.746015729E0,9.606589546E0
5.260424458E0,-7.429049454E0,-2.420977660E0,-7.273981880E0,1.067533236E1
5.270402458E0,-7.658633945E0,-2.027016536E0,-7.764896564E0,1.109310996E1
5.280381458E0,-7.553375877E0,-1.891235710E0,-7.896389920E0,1.108978058E1
5.290359458E0,-7.416035891E0,-2.254981348E0,-7.523136417E0,1.080185682E1
5.300338458E0,-8.066224637E0,-2.619523376E0,-7.638602554E0,1.141376939E1
5.310316458E0,-9.039664421E0,-2.942540818E0,-8.577119257E0,1.280394682E1
5.320295458E0,-1.062874351E1,-3.392536395E0,-9.917091755E0,1.492743115E1
5.330273458E0,-1.291783956E1,-3.598838735E0,-1.180847189E1,1.786791055E1
5.340252458E0,-1.441043959E1,-3.908003831E0,-1.390219375E1,2.040108463E1
5.350230458E0,-1.528604025E1,-4.318966027E0,-1.604991583E1,2.258132618E1
5.360209458E0,-1.565166898E1,-5.499500449E0,-1.769302669E1,2.425412214E1
5.370187458E0,-1.562859938E1,-6.739915913E0,-1.884703785E1,2.539469277E1
5.380166458E0,-1.569308949E1,-8.402030817E0,-1.919217326E1,2.617645305E1
5.390144458E0,-1.516010526E1,-1.027371695E1,-1.876531132E1,2.622050648E1
5.400123458E0,-1.431233734E1,-1.224469289E1,-1.712812719E1,2.545875577E1
5.410101458E0,-1.344653778E1,-1.404744795E1,-1.424386177E1,2.410451763E1
5.420080458E0,-1.242047189E1,-1.572650282E1,-1.015524183E1,2.246597315E1
5.430058458E0,-1.081951594E1,-1.738976436E1,-5.659234101E0,2.124835900E1
5.440037458E0,-8.491880887E0,-1.894481967E1,-1.426271407E0,2.080991310E1
5.450015458E0,-5.753046829E0,-2.035021666E1,2.881132482E0,2.134314387E1
5.459994458E0,-2.628842084E0,-2.150569898E1,7.812346720E0,2.303125400E1
5.469972458E0,8.823536128E-1,-2.122156640E1,1.342453705E1,2.512671135E1
5.479951458E0,5.174321584E0,-1.989154002E1,1.914365892E1,2.808783802E1
5.489929458E0,9.837396544E0,-1.841139105E1,2.447878361E1,3.217086474E1
5.499908458E0,1.359945884E1,-1.639874317E1,2.899149157E1,3.597736291E1
5.509886458E0,1.587832811E1,-1.371244693E1,3.162744211E1,3.795322910E1
5.519865458E0,1.747184407E1,-1.025344114E1,3.182540077E1,3.772604570E1
5.529843458E0,1.773449515E1,-7.398631654E0,2.989089625E1,3.553474000E1
5.539822458E0,1.562922386E1,-5.948415753E0,2.541827914E1,3.042606124E1
5.549800458E0,1.213776603E1,-5.286770557E0,1.901049560E1,2.316623081E1
5.559779458E0,9.283133125E0,-4.741401923E0,1.285113920E1,1.654718198E1
5.569757458E0,7.415411993E0,-4.440103671E0,7.698780928E0,1.157471742E1
5.579736458E0,6.039431173E0,-4.247601637E0,3.495785360E0,8.169293962E0
5.589714458E0,5.052465609E0,-4.083446320E0,3.212748986E-2,6.496381667E0
5.599693458E0,4.405114517E0,-4.174264104E0,-2.420979999E0,6.533808911E0
5.609671458E0,4.047773042E0,-3.937983967E0,-3.703503603E0,6.753378655E0
5.619650458E0,3.938046532E0,-3.136435366E0,-3.617716178E0,6.199460270E0
5.629628458E0,3.521204960E0,-2.602817881E0,-2.792385782E0,5.193357647E0
5.639607458E0,2.901723745E0,-1.994672955E0,-2.227669880E0,4.166681411E0
5.649585458E0,2.132704666E0,-1.207778646E0,-1.816211840E0,3.050538296E0
5.659564458E0,1.403427651E0,-5.816155243E-1,-1.182728004E0,1.925287335E0
5.669542458E0,8.916018614E-1,-2.332161963E-1,-6.866128063E-1,1.149252287E0
5.679521458E0,9.985486051E-1,-4.512992138E-1,-5.136077285E-1,1.210191388E0
5.689499458E0,2.393049020E0,-1.409530390E0,-7.489347696E-2,2.778321177E0
5.699478458E0,2.434495254E0,-3.808291554E-2,3.956343055E-1,2.466727377E0
5.709456458E0,1.823557112E0,3.983281177E-1,4.944031334E-1,1.930922134E0
5.719435458E0,1.094846984E0,1.387076497E-1,4.296697783E-1,1.184291286E0
5.729413458E0,9.693908796E-1,3.406213617E-1,7.576693404E-1,1.276637936E0
5.739392458E0,1.005736880E0,5.615911496E-1,1.396021568E0,1.809908149E0
5.749370458E0,1.111664746E0,4.503852940E-1,1.810285102E0,2.171584116E0
5.759349458E0,1.229452812E0,2.475225788E-1,1.946048094E0,2.315151146E0
5.769327458E0,1.484471522E0,2.071949172E-1,1.984997567E0,2.487328039E0
5.779305458E0,1.529138402E0,2.421636057E-1,1.904207758E0,2.454162719E0
5.789284458E0,1.605698335E0,7.908593059E-2,1.518768657E0,2.211601222E0
5.799265208E0,1.908022481E0,-1.125121236E-2,1.042504756E0,2.174279776E0
5.809244208E0,2.702082261E0,-2.307755685E-1,8.435498086E-1,2.840084891E0
5.819222208E0,3.353409459E0,-4.095383996E-1,1.033722239E0,3.532939055E0
5.829201208E0,3.631747742E0,-7.962685651E-1,1.566671387E0,4.034612066E0
5.839179208E0,3.526015172E0,-6.241300446E-1,2.264726025E0,4.236898072E0
5.849158208E0,2.875049039E0,-2.349083805E-1,2.798140612E0,4.018790839E0
5.859136208E0,2.015139671E0,-6.000061870E-2,2.982587521E0,3.600030040E0
5.869115208E0,1.351337438E0,9.061722457E-2,2.848496833E0,3.154086010E0
5.879093208E0,8.373177731E-1,1.972458798E-1,2.554760785E0,2.695702072E0
5.889072208E0,6.724830097E-1,2.777427435E-2,1.995626928E0,2.106070190E0
5.899050208E0,9.526160949E-1,-5.465620512E-1,1.482292703E0,1.844830387E0
5.909029208E0,6.993708462E-1,-2.261948597E-1,7.090814634E-1,1.021312987E0
5.919007208E0,6.644302243E-1,-4.198026019E-1,1.774945700E-1,8.057332499E-1
5.928986208E0,6.483913118E-1,-4.447023851E-1,1.496254246E-1,8.003494688E-1
5.938964208E0,7.485973853E-1,-2.072680074E-1,5.933953249E-1,9.774845696E-1
5.948943208E0,1.065152192E0,3.825950146E-2,1.436882934E0,1.789034809E0
5.958921208E0,7.699023002E-1,-4.689238912E-1,1.604022085E0,1.839979896E0
5.968900208E0,3.178312540E-1,-7.907563949E-1,7.051671910E-1,1.106152408E0
5.978878208E0,1.549114537E-1,-7.853097135E-1,-3.659174399E-1,8.801161727E-1
5.988857208E0,-4.722796082E-2,-9.538504422E-1,-1.178322712E0,1.516741758E0
5.998835208E0,-4.692098200E-1,-8.347648787E-1,-1.605749499E0,1.869604694E0
6.008814208E0,-1.039633189E0,-4.385072601E-1,-1.907745177E0,2.216442520E0
6.018792208E0,-1.195890672E0,-4.677363217E-1,-1.923889486E0,2.313067772E0
6.028771208E0,-6.957765627E-1,-6.840470481E-1,-1.480256410E0,1.772902826E0
6.038749208E0,-2.260831779E-1,-6.335376298E-1,-7.290285087E-1,9.919506531E-1
6.048728208E0,-2.173076767E-1,-6.487053072E-1,-3.486343861E-2,6.850231101E-1
6.058706208E0,-5.292659873E-1,-1.004850442E0,2.995212829E-1,1.174546676E0
6.068685208E0,-1.228934457E0,-1.337031932E0,6.973743875E-2,1.817360063E0
6.078663208E0,-2.208037269E0,-1.419733196E0,-4.957549000E-1,2.671487199E0
6.088642208E0,-2.987173492E0,-1.260156834E0,-1.024062565E0,3.399986008E0
6.098620208E0,-3.689447481E0,-8.912016195E-1,-1.486099094E0,4.076119915E0
6.108599208E0,-4.396292238E0,-6.587040460E-1,-2.050429080E0,4.895460742E0
6.118577208E0,-4.830953785E0,-6.331271553E-1,-2.794394885E0,5.616725669E0
6.128556208E0,-4.880901285E0,-7.242092335E-1,-3.413776406E0,6.000128809E0
6.138534208E0,-4.725286412E0,-9.859148186E-1,-3.819048092E0,6.155118848E0
6.148513208E0,-4.692868863E0,-1.252799283E0,-4.108832592E0,6.361998859E0
6.158491208E0,-4.920512078E0,-1.274872522E0,-4.386865357E0,6.714262932E0
6.168470208E0,-5.124252461E0,-1.233637372E0,-4.472798377E0,6.912723759E0
6.178448208E0,-5.418771451E0,-1.248250734E0,-4.133513689E0,6.928719171E0
6.188427208E0,-5.659262753E0,-1.389395503E0,-3.538856535E0,6.817710784E0
6.198405208E0,-5.983685573E0,-1.603169415E0,-3.234614210E0,6.988374224E0
6.208384208E0,-6.970660492E0,-1.903335645E0,-3.753504313E0,8.142578762E0
6.218362208E0,-8.522127948E0,-2.118135159E0,-5.044346166E0,1.012712148E1
6.228341208E0,-1.009444365E1,-2.264622237E0,-6.567644076E0,1.225398936E1
6.238319208E0,-1.142599265E1,-2.805142945E0,-8.151901549E0,1.431347735E1
6.248298208E0,-1.234392365E1,-3.687391600E0,-9.064116307E0,1.575206375E1
6.258276208E0,-1.282235453E1,-4.744475804E0,-9.073658963E0,1.640896442E1
6.268255208E0,-1.249285223E1,-5.165867679E0,-9.604862133E0,1.658345327E1
6.278233208E0,-1.214215845E1,-5.194653522E0,-1.059489398E1,1.693127921E1
6.288212208E0,-1.199796027E1,-4.878738400E0,-1.111187438E1,1.706537111E1
6.298190208E0,-1.236978237E1,-4.727004908E0,-1.191707924E1,1.781496194E1
6.308169208E0,-1.322941897E1,-4.804277617E0,-1.245174046E1,1.879213799E1
6.318147208E0,-1.377352694E1,-5.679410504E0,-1.092141302E1,1.847276402E1
6.328125208E0,-1.387545561E1,-7.093804607E0,-7.021493261E0,1.709244569E1
6.338104208E0,-1.269146928E1,-7.606908306E0,-2.246443243E0,1.496612688E1
6.348082208E0,-1.001121439E1,-7.960949028E0,2.575790881E0,1.304744502E1
6.358061208E0,-7.459253832E0,-8.200006008E0,7.711467047E0,1.350360286E1
6.368039208E0,-5.951844560E0,-7.923198234E0,1.232762863E1,1.581682495E1
6.378018208E0,-4.304165847E0,-7.601209025E0,1.679676431E1,1.893239323E1
6.387996208E0,-1.884478083E0,-7.671580850E0,2.043061354E1,2.190466571E1
6.397975208E0,7.218867195E-1,-7.147187347E0,2.146753771E1,2.263754808E1
6.407953208E0,3.218347549E0,-5.946628259E0,1.948232380E1,2.062234442E1
6.417932208E0,5.342524928E0,-5.162404373E0,1.658482379E1,1.817276456E1
6.427910208E0,7.201537217E0,-4.934172928E0,1.429157622E1,1.674686095E1
6.437889208E0,9.199777558E0,-5.134410244E0,1.271109254E1,1.650969258E1
6.447867208E0,1.188134574E1,-5.386572588E0,1.151356172E1,1.739953000E1
6.457846208E0,1.457538369E1,-5.301014959E0,1.004979665E1,1.848082742E1
6.467824208E0,1.590265838E1,-4.492033378E0,8.204499593E0,1.844957238E1
6.477803208E0,1.565565211E1,-3.657887719E0,6.446171679E0,1.732145244E1
6.487781208E0,1.402425204E1,-3.262919996E0,5.101299216E0,1.527578299E1
6.497760208E0,1.176818107E1,-3.061381091E0,4.153953216E0,1.284980417E1
6.507738208E0,9.502836406E0,-2.873347499E0,3.669083383E0,1.058405397E1
6.517717208E0,7.198490818E0,-2.869926293E0,3.264380338E0,8.408978890E0
6.527695208E0,5.090953152E0,-2.948490652E0,2.594232999E0,6.429731408E0
6.537674208E0,3.422316265E0,-2.910445159E0,1.571425319E0,4.759445049E0
6.547652208E0,2.339447886E0,-2.670813398E0,4.698261166E-1,3.581479750E0
6.557631208E0,1.724345358E0,-2.372396654E0,-4.296475589E-1,2.964157523E0
6.567609208E0,1.468894832E0,-2.011474344E0,-1.105804228E0,2.725157620E0
6.577588208E0,1.429086987E0,-1.434745923E0,-1.340192206E0,2.428353481E0
6.587566208E0,1.488372492E0,-8.657907897E-1,-1.054316278E0,2.019016885E0
6.597545208E0,1.743014348E0,-5.389057070E-1,-4.829893684E-1,1.887272399E0
6.607523208E0,1.900898526E0,-5.274749851E-1,-2.464009367E-2,1.972879165E0
6.617502208E0,1.805320816E0,-2.249400473E-1,3.070268420E-1,1.845005896E0
6.627480208E0,1.289312806E0,1.176003706E-1,5.762243915E-1,1.417106879E0
6.637459208E0,4.675907260E-1,2.593702072E-1,1.062728010E0,1.189665841E0
6.647437208E0,-2.038526487E-1,4.079321694E-1,1.581585295E0,1.646018409E0
6.657416208E0,-5.373521018E-1,4.829326504E-1,1.934657718E0,2.065156583E0
6.667394208E0,-6.553521296E-1,4.007892108E-1,2.120538365E0,2.255393837E0
6.677373208E0,-7.984033835E-1,2.976203531E-1,2.076424485E0,2.244451933E0
6.687351208E0,-8.277283394E-1,2.035655504E-1,1.732810518E0,1.931115074E0
6.697330208E0,-4.436709362E-1,2.718931890E-1,1.526360536E0,1.612620939E0
6.707308208E0,2.230104661E-1,3.126675779E-1,1.555966158E0,1.602661963E0
6.717287208E0,9.180520338E-1,2.605583614E-1,1.647024994E0,1.903523451E0
6.727265208E0,1.367928620E0,1.877418154E-1,1.645745623E0,2.148244482E0
6.737244208E0,1.539874767E0,3.478087592E-1,1.513102705E0,2.186701861E0
6.747222208E0,1.702570034E0,5.887076122E-1,1.436361362E0,2.304008537E0
6.757201208E0,1.709097281E0,4.129531735E-1,1.372853730E0,2.230755747E0
6.767179208E0,1.569476881E0,-4.572002238E-1,1.097070023E0,1.968718456E0
6.777158208E0,1.711583517E0,-6.131144750E-1,8.783185223E-1,2.019126277E0
6.787136208E0,1.941074452E0,3.221406519E-1,5.924621093E-1,2.054885880E0
6.797111958E0,1.745066428E0,2.260299683E-2,2.289138150E-1,1.760161717E0
6.807089958E0,1.370138283E0,-1.154509342E-1,4.496275679E-1,1.446641898E0
6.817067958E0,1.222149932E0,-6.267513514E-2,8.677303112E-1,1.500178164E0
6.827046958E0,1.041880859E0,1.939346015E-2,1.351374275E0,1.706488870E0
6.837024958E0,7.252424365E-1,-3.782388389E-2,1.847959882E0,1.985538457E0
6.847003958E0,3.599961108E-1,-4.602589023E-1,2.184684513E0,2.261477809E0
6.856981958E0,8.362980187E-2,-9.838074821E-1,2.219344615E0,2.429065998E0
6.866960958E0,2.896301329E-2,-1.109572320E0,1.985550567E0,2.274730895E0
6.876938958E0,2.204400301E-2,-9.950569403E-1,1.434169972E0,1.745699791E0
6.886917958E0,-1.690254629E-1,-9.353510213E-1,8.737247305E-1,1.291063920E0
6.896895958E0,-5.206039220E-1,-9.498281425E-1,3.981662960E-1,1.154009681E0
6.906874958E0,-5.462065405E-1,-8.719075620E-1,-3.888607447E-1,1.099898659E0
6.916852958E0,-4.949024856E-2,-6.805778950E-1,-1.333428147E0,1.497887239E0
6.926831958E0,-5.771587765E-1,-1.238519797E0,-9.694660163E-1,1.675382911E0
6.936809958E0,-1.139218288E0,-1.581053783E0,-4.875665689E-1,2.008798281E0
6.946788958E0,-1.231069275E0,-1.210202317E0,-2.706734598E-1,1.747393868E0
6.956766958E0,-1.183278812E0,-1.122968876E0,-3.924703771E-1,1.677867945E0
6.966745958E0,-1.181345723E0,-1.053256032E0,-8.455002205E-1,1.794379171E0
6.976723958E0,-1.198830067E0,-8.168817544E-1,-1.393285948E0,2.011401268E0
6.986702958E0,-1.543806435E0,-7.880248681E-1,-1.816320306E0,2.510645525E0
6.996680958E0,-2.124945411E0,-8.230990988E-1,-1.841183836E0,2.929648963E0
7.006659958E0,-2.801883414E0,-7.686872488E-1,-1.673328694E0,3.352828607E0
7.016637958E0,-3.231494721E0,-7.472800076E-1,-1.718205489E0,3.735400332E0
7.026616958E0,-3.575458935E0,-7.863525644E-1,-2.095541810E0,4.218240443E0
7.036594958E0,-3.983539624E0,-6.945998105E-1,-2.521801492E0,4.765557638E0
7.046573958E0,-4.512171189E0,-5.760720715E-1,-2.845816469E0,5.365651800E0
7.056551958E0,-5.086751343E0,-5.101730740E-1,-3.116817373E0,5.987475789E0
7.066530958E0,-5.509852944E0,-5.552320102E-1,-3.631148987E0,6.622084643E0
7.076508958E0,-5.668988426E0,-7.120976034E-1,-4.465455444E0,7.251538119E0
7.086487958E0,-5.713499771E0,-8.671724868E-1,-5.462022135E0,7.951713876E0
7.096465958E0,-5.555070047E0,-1.038111743E0,-6.318579587E0,8.477082471E0
7.106444958E0,-5.284136971E0,-1.307541793E0,-6.823329953E0,8.728665460E0
7.116422958E0,-5.553258580E0,-1.555647631E0,-7.178919017E0,9.208452566E0
7.126401958E0,-6.382081518E0,-1.583814254E0,-7.568253533E0,1.002586124E1
7.136379958E0,-7.512027292E0,-1.731251796E0,-7.911942344E0,1.104656591E1
7.146358958E0,-8.852985629E0,-2.043561232E0,-8.306330608E0,1.231042750E1
7.156336958E0,-1.011282613E1,-2.380311737E0,-8.627454429E0,1.350437360E1
7.166315958E0,-1.086124400E1,-2.715972614E0,-8.701912873E0,1.417978900E1
7.176293958E0,-1.100737645E1,-3.171927965E0,-8.515001947E0,1.427335705E1
7.186272958E0,-1.046089334E1,-3.724220873E0,-8.049083524E0,1.371451261E1
7.196250958E0,-9.739126484E0,-4.184379203E0,-7.599115137E0,1.304247541E1
7.206229958E0,-8.964859822E0,-4.751343359E0,-7.450452018E0,1.258781993E1
7.216207958E0,-8.062770687E0,-5.444869913E0,-7.652031269E0,1.237774059E1
7.226185958E0,-7.226251059E0,-6.311264720E0,-8.442699956E0,1.278006061E1
7.236164958E0,-6.540710047E0,-7.528590115E0,-9.793748249E0,1.397777027E1
7.246142958E0,-6.074867638E0,-9.134823178E0,-1.037031880E1,1.509610954E1
7.256121958E0,-5.799135168E0,-1.065981795E1,-8.666649485E0,1.491215949E1
7.266099958E0,-5.427410712E0,-1.128196287E1,-4.863456702E0,1.343103437E1
7.276078958E0,-4.442250184E0,-1.155018283E1,-8.035629666E-1,1.240104930E1
7.286056958E0,-2.687230040E0,-1.261650447E1,3.507894359E0,1.336797341E1
7.296035958E0,7.032446265E-2,-1.369294413E1,8.645881344E0,1.619422516E1
7.306013958E0,3.852158828E0,-1.328398986E1,1.403162889E1,1.970254105E1
7.315992958E0,8.373737894E0,-1.118089608E1,1.825080546E1,2.298312040E1
7.325970958E0,1.164773427E1,-9.253935639E0,1.976545300E1,2.473819255E1
7.335949958E0,1.173982675E1,-8.088175085E0,1.911870417E1,2.384883556E1
7.345927958E0,1.033932271E1,-6.473073549E0,1.846964218E1,2.213436147E1
7.355906958E0,9.336298349E0,-4.818555349E0,1.866804406E1,2.142150348E1
7.365884958E0,8.909894825E0,-3.828115370E0,1.840456267E1,2.080309160E1
7.375863958E0,8.860906852E0,-3.238005595E0,1.640243042E1,1.892194689E1
7.385841958E0,8.556441164E0,-2.966810564E0,1.316391261E1,1.597821159E1
7.395820958E0,7.619110860E0,-2.747942265E0,9.880510404E0,1.277601357E1
7.405798958E0,5.996852918E0,-2.581010690E0,6.641765136E0,9.313265014E0
7.415777958E0,4.246963998E0,-2.147440819E0,3.773518748E0,6.073520315E0
7.425755958E0,3.067430620E0,-1.658986058E0,1.694178695E0,3.877061620E0
7.435734958E0,2.599877901E0,-1.647802089E0,5.403014374E-1,3.125146791E0
7.445712958E0,2.811928054E0,-1.838050606E0,3.798351288E-2,3.359585117E0
7.455691958E0,3.028969390E0,-1.594380172E0,-1.804392278E-1,3.427719652E0
7.465669958E0,2.851461664E0,-1.221292731E0,-2.436160541E-1,3.111549186E0
7.475648958E0,2.591992638E0,-1.135448003E0,-3.559457080E-1,2.852080881E0
7.485626958E0,2.200879985E0,-1.037447500E0,-7.063413119E-1,2.533591931E0
7.495605958E0,1.914324610E0,-4.363671792E-1,-7.553327199E-1,2.103706858E0
7.505583958E0,1.579012228E0,3.707134724E-2,-3.372357508E-1,1.615048560E0
7.515562958E0,1.269151021E0,4.710218722E-1,2.109242713E-1,1.370071154E0
7.525540958E0,9.535756230E-1,6.502735305E-1,6.603715988E-1,1.329756663E0
7.535519958E0,6.047658205E-1,3.702176285E-1,7.237953237E-1,1.013253404E0
7.545497958E0,4.846230805E-2,-4.514108956E-2,-2.289698752E-1,2.383558621E-1
7.555476958E0,-5.933345139E-2,1.712105674E-1,-9.856954750E-1,1.002212096E0
7.565454958E0,6.827852190E-2,3.572683847E-1,-1.090637720E0,1.149692694E0
7.575433958E0,4.512866423E-1,6.105703515E-1,-6.595225100E-1,1.005696639E0
7.585411958E0,8.647347826E-1,7.666085637E-1,-1.312839516E-1,1.163052196E0
7.595390958E0,1.197901237E0,8.029490089E-1,3.621626504E-1,1.486894841E0
7.605368958E0,1.584843656E0,8.350817978E-1,7.992782731E-1,1.961615860E0
7.615346958E0,1.749450086E0,6.331049359E-1,1.185917076E0,2.206308404E0
7.625325958E0,1.132319451E0,-6.301076531E-2,7.944133166E-1,1.384633602E0
7.635303958E0,9.219100267E-2,-3.706438905E-1,-1.210126595E-1,4.006496453E-1
7.645282958E0,-6.136772695E-1,-1.698364717E-1,-4.916149617E-1,8.044435896E-1
7.655260958E0,-5.515283838E-1,1.062760681E-1,-2.967922412E-2,5.624580137E-1
7.665239958E0,7.618249565E-2,2.342920840E-1,8.743505287E-1,9.083971600E-1
7.675217958E0,1.131280693E0,4.184086257E-1,1.494203335E0,1.920287841E0
7.685196958E0,2.333122076E0,4.098173118E-1,2.109378369E0,3.171889965E0
7.695174958E0,3.623986440E0,3.708812875E-1,2.492857482E0,4.414200842E0
7.705153958E0,3.525274622E0,-8.917120814E-2,2.216203490E0,4.164981462E0
7.715131958E0,2.106606204E0,-6.402478945E-1,8.404869640E-1,2.356719203E0
7.725110958E0,9.562144715E-1,-5.372866130E-1,-4.081556793E-1,1.170305122E0
7.735088958E0,1.031407911E-1,-4.672743917E-1,-7.950378723E-1,9.279378203E-1
7.745067958E0,-1.711848396E-1,-3.316862315E-1,-5.096420006E-1,6.317079818E-1
7.755045958E0,6.043915987E-2,-8.026648343E-2,1.367992647E-1,1.697340250E-1
7.765024958E0,5.753683591E-1,4.959608316E-2,7.655958259E-1,9.589814851E-1
7.775002958E0,1.302705268E0,1.635132927E-1,1.047935943E0,1.679865278E0
7.784981958E0,1.828847088E0,7.893039465E-2,1.088411100E0,2.129683170E0
7.794959583E0,1.791490397E0,-2.366128439E-1,7.666996340E-1,1.962970150E0
7.804938583E0,1.197589288E0,-4.838313675E-1,1.972732155E-1,1.306609971E0
7.814916583E0,2.557098502E-1,-5.075166839E-1,-3.828066107E-1,6.852018777E-1
7.824895583E0,-5.276281822E-1,-4.402111387E-1,-6.029882669E-1,9.142057730E-1
7.834873583E0,-8.423142189E-1,-3.532916933E-1,-3.392437577E-1,9.743688168E-1
7.844852583E0,-5.530162078E-1,-2.820129651E-1,1.413960533E-1,6.366718798E-1
7.854830583E0,1.617176127E-1,-2.703974712E-1,7.531798482E-1,8.164234578E-1
7.864809583E0,1.227717066E0,-3.697989678E-1,1.297365299E0,1.824060632E0
7.874787583E0,1.807967851E0,-7.023014706E-1,1.218138816E0,2.290379287E0
7.884766583E0,1.559132572E0,-9.349598426E-1,2.799986724E-1,1.839413912E0
7.894744583E0,8.994181269E-1,-9.126217246E-1,-7.353984654E-1,1.477376825E0
7.904723583E0,5.021296442E-2,-8.302566755E-1,-1.322498678E0,1.562322067E0
7.914701583E0,-7.251757783E-1,-7.300576186E-1,-1.472948852E0,1.796786676E0
7.924680583E0,-1.129372162E0,-5.948863649E-1,-1.231199083E0,1.773477502E0
7.934658583E0,-1.159094144E0,-4.035093355E-1,-7.693438911E-1,1.448519603E0
7.944637583E0,-9.945388770E-1,-3.643417615E-1,-2.095314646E-1,1.079701779E0
7.954615583E0,-8.664059168E-1,-5.123932618E-1,-3.015643001E-2,1.007033007E0
7.964593583E0,-1.075611691E0,-7.083831596E-1,-4.497444391E-1,1.364191069E0
7.974572583E0,-1.723013070E0,-7.839695317E-1,-1.338432341E0,2.318357909E0
7.984550583E0,-2.550732054E0,-7.187298077E-1,-2.299647936E0,3.508730137E0
7.994529583E0,-3.266884409E0,-5.626945192E-1,-2.928365121E0,4.423175459E0
8.004507583E0,-3.644954263E0,-4.264415306E-1,-3.142152189E0,4.831217687E0
8.014486583E0,-3.700692261E0,-3.603586382E-1,-2.727469994E0,4.611298530E0
8.024464583E0,-3.552290513E0,-3.564056280E-1,-1.924428453E0,4.055763520E0
8.034443583E0,-3.398058506E0,-4.101587892E-1,-1.108296384E0,3.597687134E0
8.044421583E0,-3.565190055E0,-6.178744009E-1,-7.952926648E-1,3.704705026E0
8.054400583E0,-4.296899512E0,-8.326119339E-1,-1.206903756E0,4.540176729E0
8.064378583E0,-5.318814468E0,-7.867744410E-1,-2.266207855E0,5.834766440E0
8.074357583E0,-6.121630746E0,-7.047719193E-1,-3.393052704E0,7.034477457E0
8.084335583E0,-6.488128375E0,-8.713930070E-1,-4.210826744E0,7.783713603E0
8.094314583E0,-6.505648388E0,-1.110598214E0,-4.672008337E0,8.086071434E0
8.104292583E0,-6.928364657E0,-1.415014786E0,-4.987773185E0,8.653460869E0
8.114271583E0,-7.879376276E0,-1.583423075E0,-5.321823446E0,9.639170292E0
8.124249583E0,-8.965117099E0,-1.709885193E0,-5.817704755E0,1.082324908E1
8.134228583E0,-9.682442991E0,-1.924656348E0,-6.232819644E0,1.167484668E1
8.144206583E0,-9.753924032E0,-2.296217959E0,-6.431202807E0,1.190680564E1
8.154185583E0,-9.687061706E0,-2.732814641E0,-6.644268329E0,1.206042047E1
8.164163583E0,-9.909594455E0,-3.156010967E0,-6.744760332E0,1.239565486E1
8.174142583E0,-1.056436332E1,-3.574388895E0,-6.567932929E0,1.294294292E1
8.184120583E0,-1.134332355E1,-3.863961141E0,-6.200920744E0,1.349268701E1
8.194099583E0,-1.185280080E1,-4.226006700E0,-5.967731445E0,1.392701828E1
8.204077583E0,-1.168196036E1,-4.954625319E0,-5.755035467E0,1.393330338E1
8.214056583E0,-1.102863225E1,-6.010536572E0,-5.655680748E0,1.377475967E1
8.224034583E0,-1.019542741E1,-7.017953941E0,-5.949647176E0,1.373305207E1
8.234013583E0,-8.521446163E0,-8.093974938E0,-5.765071628E0,1.309058921E1
8.243991583E0,-6.022840868E0,-9.152279456E0,-4.493389932E0,1.184184886E1
8.253970583E0,-3.430884774E0,-9.762683746E0,-2.087107786E0,1.055637169E1
8.263948583E0,-1.851006866E0,-9.907105880E0,7.257704401E-1,1.010463834E1
8.273927583E0,-1.508557665E0,-9.756393896E0,3.388893580E0,1.043779516E1
8.283905583E0,-1.702102257E0,-9.434162613E0,5.688459070E0,1.114715851E1
8.293884583E0,-1.795110116E0,-9.129862985E0,7.702368779E0,1.207904397E1
8.303862583E0,-1.390459111E0,-8.533573873E0,9.430827945E0,1.279436498E1
8.313841583E0,4.213225856E-1,-7.722368011E0,1.131624626E1,1.370656448E1
8.323819583E0,3.348280574E0,-7.081435992E0,1.291516621E1,1.510494081E1
8.333797583E0,6.651865032E0,-6.648128661E0,1.326540975E1,1.626087387E1
8.343776583E0,8.806675097E0,-6.131467516E0,1.254833763E1,1.651100231E1
8.353754583E0,8.924985319E0,-5.682631150E0,1.156397525E1,1.567396514E1
8.363733583E0,7.570170835E0,-5.003364785E0,1.133173787E1,1.451721147E1
8.373711583E0,5.765844630E0,-3.700086490E0,1.209582980E1,1.390124825E1
8.383690583E0,4.365847248E0,-2.407873465E0,1.312136242E1,1.403668867E1
8.393668583E0,3.706579823E0,-1.582325553E0,1.342498611E1,1.401687341E1
8.403647583E0,3.802396392E0,-1.065463849E0,1.273253545E1,1.333082482E1
8.413625583E0,4.172955498E0,-8.457325011E-1,1.139171510E1,1.216141415E1
8.423604583E0,4.368826112E0,-8.950444096E-1,9.537642542E0,1.052874025E1
8.433582583E0,4.706946620E0,-7.696350825E-1,7.683569981E0,9.043502214E0
8.443561583E0,5.313066071E0,-5.140948015E-1,6.588454317E0,8.479427741E0
8.453539583E0,5.615282335E0,-8.004434770E-1,5.804658448E0,8.115797259E0
8.463518583E0,5.129380469E0,-1.425091000E0,3.897345818E0,6.597782414E0
8.473496583E0,4.695629334E0,-1.153984262E0,1.502188585E0,5.063317594E0
8.483475583E0,4.739121216E0,-5.242900068E-1,5.450577088E-1,4.799087186E0
8.493453583E0,4.846399789E0,-2.769054222E-1,1.177548614E0,4.995086413E0
8.503432583E0,4.663979817E0,-1.264051080E-2,2.324991961E0,5.211377470E0
8.513410583E0,4.192965547E0,4.384692532E-1,2.989339886E0,5.168110710E0
8.523389583E0,3.664522555E0,7.596351743E-1,3.364161612E0,5.032231563E0
8.533367583E0,2.918512855E0,5.867604893E-1,3.332000756E0,4.468135427E0
8.543346583E0,1.932388706E0,2.675767744E-1,2.626340353E0,3.271603137E0
8.553324583E0,1.133865162E0,1.521053749E-1,1.713195595E0,2.060054707E0
8.563303583E0,6.684662649E-1,7.859534919E-2,1.083389512E0,1.275443927E0
8.573281583E0,4.839363250E-1,2.075352252E-2,6.453000350E-1,8.068687691E-1
8.583260583E0,3.697966290E-1,2.252242219E-1,4.088314712E-1,5.954986724E-1
8.593238583E0,3.019472927E-1,5.749479443E-1,3.267190218E-1,7.269681048E-1
8.603217583E0,1.825950962E-1,8.016661298E-1,4.142578335E-1,9.206623189E-1
8.613195583E0,-1.496986610E-1,8.183131528E-1,3.784202488E-1,9.139190280E-1
8.623174583E0,-5.887157983E-1,7.217025322E-1,6.836915374E-2,9.338710710E-1
8.633152583E0,-1.064421583E0,6.106422722E-1,-3.238163178E-1,1.269147075E0
8.643130583E0,-1.602762741E0,4.816480172E-1,-6.889329815E-1,1.809823712E0
8.653109583E0,-1.864725019E0,3.371720892E-1,-8.117106231E-1,2.061494251E0
8.663087583E0,-1.707368259E0,1.766940862E-1,-6.104213937E-1,1.821796216E0
8.673066583E0,-1.004094397E0,-3.722045124E-2,-2.241212909E-1,1.029476213E0
8.683044583E0,9.431149542E-2,-2.910422355E-1,2.494575687E-1,3.947522256E-1
8.693023583E0,1.062328572E0,-4.891915101E-1,4.887887831E-1,1.267582266E0
8.703001583E0,1.517844213E0,-5.758846682E-1,4.704448251E-1,1.690210797E0
8.712980583E0,1.423306430E0,-6.024397981E-1,4.115246987E-1,1.599402226E0
8.722958583E0,9.417420280E-1,-6.503659165E-1,2.572785120E-1,1.173049916E0
8.732937583E0,2.962550282E-1,-6.742757660E-1,1.306665587E-1,7.479897058E-1
8.742915583E0,-3.299636418E-1,-7.207038277E-1,1.515002612E-1,8.069958744E-1
8.752894583E0,-6.390883917E-1,-6.982294697E-1,5.145374358E-1,1.077361192E0
8.762872583E0,-5.167722416E-1,-6.391989040E-1,1.006761970E0,1.299691676E0
8.772851583E0,-5.843414962E-2,-7.469110483E-1,1.361392164E0,1.553923836E0
8.782829583E0,5.319434273E-1,-9.953264970E-1,1.381398851E0,1.783788505E0
8.792808583E0,8.474229312E-1,-1.149868407E0,1.188930731E0,1.858461530E0
8.802786708E0,6.571989727E-1,-1.238019276E0,7.516722898E-1,1.590475856E0
8.812765708E0,1.975546128E-1,-1.312347912E0,2.618020642E-1,1.352710312E0
8.822743708E0,-4.109557647E-1,-1.118160710E0,-1.433900269E-1,1.199886959E0
8.832722708E0,-1.089602909E0,-8.817443329E-1,-3.063811632E-1,1.434774193E0
8.842700708E0,-1.578554099E0,-7.768072772E-1,-4.622246631E-1,1.819042118E0
8.852679708E0,-1.600577052E0,-6.875805205E-1,-4.406215402E-1,1.796875402E0
8.862657708E0,-1.196316934E0,-7.101443410E-1,-3.597090125E-2,1.391679955E0
8.872636708E0,-4.873320955E-1,-8.021087641E-1,5.012712729E-1,1.064022523E0
8.882614708E0,1.374019665E-1,-8.631478482E-1,8.773128013E-1,1.238378480E0
8.892593708E0,2.734935719E-1,-9.150547510E-1,1.006324598E0,1.387376347E0
8.902571708E0,-5.117149848E-1,-9.781964940E-1,3.211407781E-1,1.149718229E0
8.912550708E0,-1.580064434E0,-7.232093596E-1,-8.056656984E-1,1.915393592E0
8.922528708E0,-2.224241658E0,-5.113811088E-1,-1.422383155E0,2.689225805E0
8.932506708E0,-2.369994033E0,-5.522315115E-1,-1.425678645E0,2.820352985E0
8.942485708E0,-2.113196601E0,-4.825859106E-1,-1.126883514E0,2.443021794E0
8.952463708E0,-1.550654694E0,-5.655245715E-1,-6.033589073E-1,1.757381573E0
8.962442708E0,-9.260779220E-1,-6.835102737E-1,-2.105863023E-1,1.170108201E0
8.972420708E0,-5.803104258E-1,-7.069587779E-1,-1.126699253E-1,9.215451242E-1
8.982399708E0,-6.367272860E-1,-7.300166881E-1,-3.806198982E-1,1.040777358E0
8.992377708E0,-1.116469111E0,-7.829275578E-1,-1.063120796E0,1.729076246E0
9.002356708E0,-1.933881792E0,-7.890490079E-1,-1.934233210E0,2.846709545E0
9.012334708E0,-3.051029180E0,-7.305166250E-1,-2.714954613E0,4.148904934E0
9.022313708E0,-3.948345233E0,-6.224980867E-1,-3.151455109E0,5.090049435E0
9.032291708E0,-4.326988115E0,-5.455864432E-1,-3.098687496E0,5.349986440E0
9.042270708E0,-4.298194086E0,-4.854267803E-1,-2.600240428E0,5.046916073E0
9.052248708E0,-3.892148228E0,-4.908173284E-1,-2.151015076E0,4.473989868E0
9.062227708E0,-3.463213445E0,-5.802230099E-1,-2.105517891E0,4.094351193E0
9.072205708E0,-3.357708625E0,-7.045368612E-1,-2.471085960E0,4.228101846E0
9.082184708E0,-3.634307068E0,-7.174045363E-1,-3.016210181E0,4.777068242E0
9.092162708E0,-4.362380142E0,-7.357048595E-1,-3.503346394E0,5.643142573E0
9.102141708E0,-5.686014934E0,-9.525295562E-1,-4.417588967E0,7.263137797E0
9.112119708E0,-7.480883267E0,-1.163446226E0,-5.795555502E0,9.534447291E0
9.122098708E0,-9.407933757E0,-1.496265356E0,-7.221141762E0,1.195378249E1
9.132076708E0,-1.174547867E1,-2.092092830E0,-8.847368209E0,1.485291371E1
9.142055708E0,-1.383657279E1,-2.779418704E0,-1.081189818E1,1.777844361E1
9.152033708E0,-1.494707365E1,-3.418589834E0,-1.274857436E1,1.994060970E1
9.162012708E0,-1.484688746E1,-4.250636635E0,-1.408349486E1,2.090078483E1
9.171990708E0,-1.348370970E1,-5.264596161E0,-1.416519918E1,2.025288295E1
9.181969708E0,-1.143169018E1,-6.091808192E0,-1.285966444E1,1.825279806E1
9.191947708E0,-9.554317047E0,-6.783030943E0,-1.093839217E1,1.602943874E1
9.201926708E0,-8.396170737E0,-7.333962618E0,-8.735098161E0,1.416279035E1
9.211904708E0,-8.413567958E0,-7.749032484E0,-6.359980212E0,1.308758872E1
9.221883708E0,-8.920139732E0,-8.260651574E0,-3.750401781E0,1.272292304E1
9.231861708E0,-8.437864893E0,-9.145462772E0,-4.479959755E-1,1.245141573E1
9.241840708E0,-6.253413538E0,-1.018966673E1,3.566932526E0,1.247627735E1
9.251818708E0,-2.397194695E0,-1.072033195E1,7.726006733E0,1.342993819E1
9.261797708E0,1.753361288E0,-1.007711251E1,1.153888952E1,1.541974201E1
9.271775708E0,4.843377948E0,-8.667420732E0,1.454589151E1,1.761151475E1
9.281754708E0,6.421168401E0,-7.533300632E0,1.613765447E1,1.893161149E1
9.291732708E0,6.887701365E0,-6.945908643E0,1.591949485E1,1.868465663E1
9.301710708E0,7.232724511E0,-6.605044037E0,1.537324562E1,1.822842812E1
9.311689708E0,8.001486604E0,-5.884923761E0,1.592743069E1,1.877069961E1
9.321667708E0,9.136497821E0,-4.795153037E0,1.693901537E1,1.983429673E1
9.331646708E0,1.060494417E1,-3.695564838E0,1.737987321E1,2.069255985E1
9.341624708E0,1.187962900E1,-2.874838539E0,1.671785847E1,2.070934749E1
9.351603708E0,1.208630468E1,-2.449100429E0,1.467732639E1,1.917030943E1
9.361581708E0,1.124032601E1,-2.211534489E0,1.175023713E1,1.641048099E1
9.371560708E0,9.798659910E0,-2.149667439E0,8.961121112E0,1.345126380E1
9.381538708E0,7.811338660E0,-2.243601204E0,6.519802158E0,1.041914479E1
9.391517708E0,5.809948424E0,-2.153463451E0,3.982877719E0,7.365882191E0
9.401495708E0,4.173967066E0,-1.951048633E0,1.748401680E0,4.928032089E0
9.411474708E0,3.213067220E0,-1.719440421E0,3.597488467E-1,3.661925116E0
9.421452708E0,2.994014442E0,-1.387889845E0,-1.694545754E-1,3.304402450E0
9.431431708E0,2.750614150E0,-1.269104828E0,3.320377222E-1,3.047417648E0
9.441409708E0,2.529430647E0,-1.132412714E0,7.240281160E-1,2.864366364E0
9.451388708E0,2.381824704E0,-7.357884747E-1,8.507244153E-1,2.634047386E0
9.461366708E0,2.152315058E0,-4.925419647E-1,8.266829304E-1,2.357639150E0
9.471345708E0,1.695079166E0,-2.112721807E-1,6.464051588E-1,1.826408756E0
9.481323708E0,1.156029618E0,-2.499368942E-1,4.146683080E-1,1.253324672E0
9.491302708E0,6.190961766E-1,-4.178332597E-1,2.369712782E-1,7.835943437E-1
9.501280708E0,1.111438751E-2,-3.874189675E-2,-5.073190480E-3,4.062267144E-2
9.511259708E0,-4.293996370E-1,5.908283973E-1,4.117914779E-1,8.384715049E-1
9.521237708E0,-5.212664115E-1,9.369753778E-1,7.666390423E-1,1.318095957E0
9.531216708E0,-9.456082070E-1,7.430559790E-1,8.240260287E-1,1.457849774E0
9.541194708E0,-1.638341879E0,3.506002200E-1,8.070106311E-1,1.859664159E0
9.551173708E0,-1.739742538E0,3.587336969E-1,6.687285125E-1,1.898049469E0
9.561151708E0,-1.489902708E0,5.059993315E-1,5.519185393E-1,1.667470982E0
9.571129708E0,-1.074855646E0,5.677178621E-1,5.745591775E-1,1.344520911E0
9.581108708E0,-3.652855021E-1,5.801794481E-1,6.777870921E-1,9.640731467E-1
9.591086708E0,1.911437255E-1,5.166009182E-1,6.667778814E-1,8.648729245E-1
9.601065708E0,2.793062890E-1,3.097083020E-1,4.912772850E-1,6.444257957E-1
9.611043708E0,3.848695815E-2,1.904625249E-1,2.017255048E-1,2.800899831E-1
9.621022708E0,-2.914451087E-1,2.230005258E-1,-1.121834370E-1,3.837376831E-1
9.631000708E0,-3.392712396E-1,2.519740641E-1,-9.817241192E-2,4.338591079E-1
9.640979708E0,-6.019299209E-2,1.887340879E-1,2.981647289E-1,3.579748005E-1
9.650957708E0,4.704207784E-1,8.899169862E-2,9.265789553E-1,1.042959151E0
9.660936708E0,1.015984710E0,1.287749845E-1,1.548153255E0,1.856229088E0
9.670914708E0,1.503395158E0,1.351806092E-1,2.052206633E0,2.547552328E0
9.680893708E0,1.871199641E0,1.013322473E-3,2.266236945E0,2.938914598E0
9.690871708E0,1.599569576E0,-3.358722532E-1,1.925274106E0,2.525492701E0
9.700850708E0,4.523236459E-1,-5.909120125E-1,9.220988917E-1,1.184921961E0
9.710828708E0,-4.259638131E-1,-5.777885216E-1,4.721158862E-2,7.193842366E-1
9.720807708E0,-6.240505224E-1,-5.794865531E-1,-2.474518275E-1,8.868348926E-1
9.730785708E0,-6.019281667E-1,-6.022392386E-1,1.794568225E-1,8.701806534E-1
9.740764708E0,-3.273709863E-1,-5.645153421E-1,1.090518583E0,1.270858023E0
9.750742708E0,1.995420814E-1,-4.059751064E-1,1.839618244E0,1.894420258E0
9.760721708E0,8.076302898E-1,-3.599429011E-1,2.291446631E0,2.456125656E0
9.770699708E0,1.201526218E0,-6.572416574E-1,2.387454404E0,2.752375407E0
9.780678708E0,7.250968409E-1,-9.329004532E-1,1.428412803E0,1.853761533E0
9.790656708E0,-3.947057676E-1,-6.887704289E-1,-1.647721982E-1,8.107695258E-1
9.800638833E0,-1.365328363E0,-2.022388172E-1,-1.164753664E0,1.806010292E0
9.810616833E0,-1.885813587E0,-4.420512575E-1,-1.462457632E0,2.427032040E0
9.820595833E0,-2.103355737E0,-3.385081780E-1,-1.425813131E0,2.563520280E0
9.830573833E0,-2.216548476E0,-5.935742497E-2,-1.126399437E0,2.487043655E0
9.840551833E0,-1.835280195E0,4.497678280E-3,-6.207766664E-1,1.937430590E0
9.850530833E0,-1.082991462E0,-1.151693907E-1,-5.351020475E-2,1.090411775E0
9.860508833E0,-1.781962359E-1,-3.423059446E-1,5.331385982E-1,6.581519757E-1
9.870487833E0,4.765667868E-1,-5.973021421E-1,1.083760956E0,1.326055640E0
9.880465833E0,5.377280778E-1,-8.166885039E-1,1.068357051E0,1.448281184E0
9.890444833E0,-5.436735266E-1,-1.011393476E0,1.093311469E-2,1.148310585E0
9.900422833E0,-1.826829799E0,-8.806658140E-1,-1.241815288E0,2.378021152E0
9.910401833E0,-2.650765634E0,-7.255368438E-1,-1.902959377E0,3.342785747E0
9.920379833E0,-3.004647896E0,-6.800583699E-1,-2.097911394E0,3.727146440E0
9.930358833E0,-3.049534047E0,-6.240940842E-1,-2.111107975E0,3.761107312E0
9.940336833E0,-2.786762515E0,-7.128059936E-1,-2.090774868E0,3.556047981E0
9.950315833E0,-2.221808047E0,-8.551137739E-1,-2.108529353E0,3.180180277E0
9.960293833E0,-2.091406367E0,-1.132269165E0,-2.407530234E0,3.384112273E0
9.970272833E0,-2.542057124E0,-1.279167302E0,-3.167530274E0,4.258118299E0
9.980250833E0,-3.347689421E0,-1.272638301E0,-3.975728914E0,5.350986180E0
9.990229833E0,-4.342831730E0,-1.350297218E0,-4.560324179E0,6.440500495E0
1.000020783E1,-5.356236064E0,-1.435168676E0,-5.002473085E0,7.468179890E0
1.001018683E1,-6.133996437E0,-1.482841318E0,-5.005660987E0,8.054897428E0
1.002016483E1,-6.143915069E0,-1.726771075E0,-4.868714519E0,8.027067446E0
1.003014383E1,-5.810216811E0,-2.050447498E0,-4.610833597E0,7.695631280E0
1.004012183E1,-5.492522382E0,-2.375052459E0,-4.509990177E0,7.493242802E0
1.005010083E1,-5.548421178E0,-2.683577285E0,-4.931455142E0,7.893403223E0
1.006007883E1,-6.444476572E0,-3.060027168E0,-5.922626023E0,9.272138026E0
1.007005783E1,-7.868071269E0,-3.348934878E0,-7.380998790E0,1.129606363E1
1.008003583E1,-9.114101815E0,-3.839669175E0,-8.935414413E0,1.332859865E1
1.009001483E1,-1.077843457E1,-4.409487650E0,-1.018489072E1,1.547094800E1
1.009999283E1,-1.224445198E1,-5.084321240E0,-1.128385386E1,1.740983299E1
1.010997183E1,-1.308285149E1,-5.895981431E0,-1.173006073E1,1.853423656E1
1.011994983E1,-1.290579663E1,-6.480753867E0,-1.108796394E1,1.820721565E1
1.012992783E1,-1.172510112E1,-6.887616581E0,-9.458864175E0,1.656464216E1
1.013990683E1,-1.002608502E1,-7.605852299E0,-7.418941373E0,1.460862968E1
1.014988483E1,-8.251288428E0,-8.144118905E0,-5.617570935E0,1.288283884E1
1.015986383E1,-6.663088762E0,-8.486106761E0,-4.157970253E0,1.156284898E1
1.016984183E1,-5.677459288E0,-8.926605583E0,-2.277106919E0,1.082141613E1
1.017982083E1,-4.705457334E0,-9.165730391E0,3.019537612E-1,1.030743025E1
1.018979883E1,-3.467715216E0,-9.203792256E0,3.381781611E0,1.040054266E1
1.019977783E1,-2.458625543E0,-9.265402613E0,7.084085366E0,1.191959691E1
1.020975583E1,-1.022667493E0,-9.046945374E0,1.106742268E1,1.433111699E1
1.021973483E1,1.443453012E0,-8.741376316E0,1.482171286E1,1.726784261E1
1.022971283E1,4.050686710E0,-8.599573735E0,1.763830143E1,2.003672650E1
1.023969183E1,5.915389509E0,-7.899431641E0,1.896484171E1,2.137891658E1
1.024966983E1,6.606421056E0,-6.504205295E0,1.852464109E1,2.071501420E1
1.025964883E1,6.083299323E0,-5.154404798E0,1.713585370E1,1.890005030E1
1.026962683E1,4.700741262E0,-4.271427872E0,1.556589852E1,1.681187857E1
1.027960583E1,3.883384714E0,-3.709702821E0,1.392200178E1,1.492195381E1
1.028958383E1,4.514884589E0,-3.436880509E0,1.248575371E1,1.371460449E1
1.029956283E1,6.091854969E0,-3.227373603E0,1.124559435E1,1.319052803E1
1.030954083E1,7.724986979E0,-2.914455180E0,9.849437131E0,1.285227157E1
1.031951983E1,8.810693888E0,-2.674871365E0,8.075363835E0,1.224723498E1
1.032949783E1,9.419424121E0,-2.490860658E0,6.041774737E0,1.146442234E1
1.033947683E1,9.512453322E0,-2.174536232E0,4.020633191E0,1.055371344E1
1.034945483E1,8.887800536E0,-1.713862762E0,2.317771965E0,9.343574842E0
1.035943383E1,8.052306510E0,-1.284766011E0,1.213794261E0,8.244001476E0
1.036941183E1,7.055200705E0,-1.018231210E0,6.528790498E-1,7.158135430E0
1.037939083E1,6.022164345E0,-8.594676107E-1,4.087871055E-1,6.096905352E0
1.038936883E1,5.136712292E0,-7.132860500E-1,3.512737461E-1,5.197882589E0
1.039934783E1,4.347004303E0,-5.477595609E-1,2.552379799E-1,4.388807740E0
1.040932583E1,3.640585516E0,-3.928948849E-1,1.356789382E-1,3.664237719E0
1.041930383E1,3.156383727E0,-1.686173272E-1,1.516780166E-1,3.164521489E0
1.042928283E1,2.961346633E0,1.865127307E-1,4.933355049E-1,3.007946276E0
1.043926083E1,3.059465251E0,4.932453847E-1,1.164547915E0,3.310557427E0
1.044923983E1,3.176238825E0,4.880372697E-1,2.025526958E0,3.798609338E0
1.045921783E1,3.110377250E0,2.030907565E-1,2.559670107E0,4.033311735E0
1.046919683E1,2.320504662E0,-5.016753155E-1,1.874369416E0,3.024843916E0
1.047917483E1,1.419447852E0,-7.074785954E-1,4.638292853E-1,1.652421186E0
1.048915383E1,1.144894765E0,-4.241722262E-1,-2.802020824E-1,1.252684840E0
1.049913183E1,1.115673012E0,-2.554321074E-1,3.629951477E-2,1.145115491E0
1.050911083E1,1.151324948E0,4.486802459E-2,9.551695009E-1,1.496633239E0
1.051908883E1,1.187895189E0,3.510995722E-1,1.783377385E0,2.171359203E0
1.052906783E1,1.402063496E0,4.706090587E-1,2.286746639E0,2.723318770E0
1.053904583E1,1.789545613E0,4.367250288E-1,2.556983896E0,3.151407447E0
1.054902483E1,1.597368684E0,-6.373932838E-2,2.402130915E0,2.885460509E0
1.055900283E1,3.809765053E-1,-6.381902593E-1,1.040080501E0,1.278357287E0
1.056898183E1,-9.877882665E-1,-5.976088285E-1,-6.356941561E-1,1.317941209E0
1.057895983E1,-1.809108058E0,-3.655340087E-1,-1.444319569E0,2.343618163E0
1.058893883E1,-1.939099263E0,-1.658802456E-1,-1.206417341E0,2.289774008E0
1.059891683E1,-1.439529530E0,9.713336170E-2,-4.672872190E-1,1.516587453E0
1.060889583E1,-5.767652589E-1,2.840425336E-1,2.660518936E-1,6.957887143E-1
1.061887383E1,2.494597614E-1,2.959082884E-1,7.788058555E-1,8.696726098E-1
1.062885283E1,7.157553291E-1,1.135581905E-1,9.091122258E-1,1.162620399E0
1.063883083E1,5.691896063E-1,-1.129395550E-1,5.042532798E-1,7.687675339E-1
1.064880983E1,1.377428591E-2,-1.912197393E-1,-1.180973840E-1,2.251704060E-1
1.065878783E1,-6.664124304E-1,-2.483482057E-1,-5.680195785E-1,9.101805316E-1
1.066876583E1,-1.244551785E0,-2.718633682E-1,-7.985577500E-1,1.503500355E0
1.067874483E1,-1.497684767E0,-2.592766517E-1,-8.094370063E-1,1.722054677E0
1.068872283E1,-1.411759933E0,-2.785707092E-1,-5.369521523E-1,1.535898878E0
1.069870183E1,-9.607764691E-1,-2.987558824E-1,-9.751635432E-2,1.010868904E0
1.070867983E1,-4.513600248E-1,-4.312771779E-1,1.637863942E-1,6.454082887E-1
1.071865883E1,-3.948156953E-2,-5.164804655E-1,2.055506802E-1,5.572808517E-1
1.072863683E1,2.881636512E-1,-5.401248515E-1,1.386468752E-1,6.276910873E-1
1.073861583E1,3.065478820E-1,-5.564847761E-1,-4.020658772E-2,6.366030786E-1
1.074859383E1,-1.128319663E-1,-5.486576933E-1,-3.041838161E-1,6.374041975E-1
1.075857283E1,-8.313331479E-1,-5.383502215E-1,-6.318548012E-1,1.174809029E0
1.076855083E1,-1.613190081E0,-4.937172550E-1,-1.043290622E0,1.983581177E0
1.077852983E1,-2.068847809E0,-4.365542901E-1,-1.300696750E0,2.482442938E0
1.078850783E1,-2.138584042E0,-4.489193970E-1,-1.297563812E0,2.541405551E0
1.079848687E1,-1.899755688E0,-4.329722857E-1,-1.237820470E0,2.308405551E0
1.080846487E1,-1.443089315E0,-4.311666656E-1,-1.213021259E0,1.933864535E0
1.081844388E1,-9.100828636E-1,-4.817059046E-1,-1.074331151E0,1.488112502E0
1.082842187E1,-2.291424412E-1,-5.265996569E-1,-7.939828885E-1,9.799093245E-1
1.083840087E1,1.184330142E-1,-6.916045743E-1,-4.874162954E-1,8.543523343E-1
1.084837888E1,-4.963332993E-1,-8.542530638E-1,-7.252003366E-1,1.225565408E0
1.085835787E1,-1.446368433E0,-7.456252456E-1,-1.436218836E0,2.170406229E0
1.086833587E1,-2.107397332E0,-6.304783666E-1,-1.932057461E0,2.927707724E0
1.087831488E1,-2.413051175E0,-7.134474331E-1,-2.070950468E0,3.258935263E0
1.088829287E1,-2.324181683E0,-6.898948485E-1,-2.035581830E0,3.165654558E0
1.089827187E1,-1.920426764E0,-6.173063439E-1,-1.841822060E0,2.731559002E0
1.090824988E1,-1.348058027E0,-5.494552535E-1,-1.534767809E0,2.115342466E0
1.091822787E1,-9.900382751E-1,-6.938998988E-1,-1.239879860E0,1.731754868E0
1.092820687E1,-1.198871582E0,-9.045993447E-1,-1.402864564E0,2.055145258E0
1.093818488E1,-1.964024774E0,-9.084775105E-1,-1.885304294E0,2.870034317E0
1.094816387E1,-3.121724941E0,-8.357337624E-1,-2.163992532E0,3.889277723E0
1.095814187E1,-4.211808491E0,-7.823501453E-1,-2.128601675E0,4.783549687E0
1.096812088E1,-5.126267996E0,-6.657861936E-1,-2.023495050E0,5.551254546E0
1.097809887E1,-5.856350173E0,-5.673442250E-1,-1.981551218E0,6.208483071E0
1.098807787E1,-6.060317427E0,-5.653900856E-1,-2.003176560E0,6.407794441E0
1.099805588E1,-5.858596088E0,-7.826869449E-1,-2.140372120E0,6.286250058E0
1.100803487E1,-5.809297044E0,-1.168283628E0,-2.504189386E0,6.433022871E0
1.101801287E1,-6.241277642E0,-1.543619909E0,-3.155156397E0,7.161795928E0
1.102799187E1,-7.285452948E0,-1.806383255E0,-3.841652259E0,8.432030431E0
1.103796987E1,-8.700547548E0,-1.993403817E0,-4.451663032E0,9.974491975E0
1.104794887E1,-1.028150427E1,-2.026145593E0,-4.970933788E0,1.159848174E1
1.105792688E1,-1.201264964E1,-2.275029111E0,-5.446807095E0,1.338458877E1
1.106790587E1,-1.365134937E1,-2.763433878E0,-5.843824852E0,1.510450911E1
1.107788387E1,-1.512534239E1,-3.502814298E0,-5.877175031E0,1.660080952E1
1.108786287E1,-1.579113326E1,-4.782194438E0,-5.339434090E0,1.734182314E1
1.109784087E1,-1.483090585E1,-6.152264308E0,-3.968430419E0,1.653948501E1
1.110781988E1,-1.279314184E1,-7.392897874E0,-1.867743351E0,1.489321598E1
1.111779787E1,-1.056154848E1,-8.600475376E0,-2.804873534E-1,1.362325791E1
1.112777687E1,-8.772816795E0,-9.687414293E0,6.344837093E-1,1.308475754E1
1.113775488E1,-7.328500734E0,-1.052759369E1,8.001669037E-1,1.285213675E1
1.114773387E1,-6.003761988E0,-1.175289878E1,5.539300545E-1,1.320918719E1
1.115771187E1,-4.028910509E0,-1.319654358E1,1.829312380E-1,1.379907049E1
1.116769088E1,-9.330948731E-1,-1.408121445E1,1.044757469E-1,1.411248318E1
1.117766887E1,3.194073710E0,-1.423611772E1,7.499977934E-1,1.460930016E1
1.118764687E1,7.479831353E0,-1.329841377E1,2.277759469E0,1.542672597E1
1.119762588E1,1.063748510E1,-1.200777891E1,5.050423762E0,1.681813378E1
1.120760387E1,1.251865716E1,-1.068243849E1,8.487946295E0,1.851692473E1
1.121758287E1,1.384193703E1,-8.961565500E0,1.173960105E1,2.024171706E1
1.122756088E1,1.475053002E1,-7.100627723E0,1.402649387E1,2.155781947E1
1.123753987E1,1.495816933E1,-5.700038311E0,1.466048290E1,2.170638213E1
1.124751787E1,1.440011457E1,-4.979058495E0,1.369951523E1,2.048977893E1
1.125749688E1,1.333544302E1,-4.506300584E0,1.212857303E1,1.858071768E1
1.126747487E1,1.187305790E1,-4.182094111E0,1.086149777E1,1.662623075E1
1.127745387E1,1.008922443E1,-3.686560711E0,1.000090107E1,1.467655278E1
1.128743188E1,8.068585743E0,-2.933320051E0,9.038034217E0,1.246565301E1
1.129741087E1,6.373275611E0,-2.146026962E0,7.746996483E0,1.025865626E1
1.130738887E1,5.171886218E0,-1.490551164E0,6.260080533E0,8.255831763E0
1.131736787E1,4.267798505E0,-9.940114582E-1,4.899099575E0,6.572924729E0
1.132734587E1,3.625178980E0,-5.738135844E-1,3.947265252E0,5.389998853E0
1.133732487E1,3.046247620E0,-3.922581232E-1,3.285531179E0,4.497577807E0
1.134730288E1,2.347822268E0,-5.892116421E-1,2.338769317E0,3.365899832E0
1.135728187E1,1.778425378E0,-6.118450445E-1,1.279853180E0,2.274901173E0
1.136725987E1,1.276464134E0,-3.437771040E-1,6.662568945E-1,1.480351861E0
1.137723887E1,8.189306188E-1,-1.085044420E-1,7.193858653E-1,1.095416175E0
1.138721687E1,4.461428466E-1,9.245383501E-2,1.286875101E0,1.365151522E0
1.139719588E1,2.527207536E-1,4.328570956E-1,2.082993393E0,2.142450587E0
1.140717387E1,2.533417279E-1,7.456059498E-1,2.822523501E0,2.930315542E0
1.141715187E1,4.096451113E-1,8.453705585E-1,3.176403424E0,3.312400823E0
1.142713088E1,1.435967991E-1,5.545820922E-1,2.592443751E0,2.654985111E0
1.143710887E1,-6.082987082E-1,1.889650530E-1,1.025936086E0,1.207592631E0
1.144708787E1,-9.887898946E-1,2.557244682E-1,-4.234161812E-1,1.105613731E0
1.145706588E1,-1.179362347E0,3.169921786E-1,-1.161371634E0,1.685278511E0
1.146704487E1,-1.101708984E0,3.424936402E-1,-1.190519419E0,1.657830229E0
1.147702287E1,-6.628298414E-1,5.964078104E-1,-6.843850172E-1,1.124023366E0
1.148700188E1,-2.931033790E-2,1.170342432E0,2.500947690E-1,1.197124847E0
1.149697987E1,4.866099644E-1,1.542132377E0,1.588195572E0,2.266567163E0
1.150695887E1,2.717604572E-1,1.094358450E0,2.509936030E0,2.751591001E0
1.151693688E1,-1.023161582E0,3.701030231E-1,1.787330103E0,2.092459024E0
1.152691587E1,-2.276923901E0,3.120811021E-1,4.198779945E-1,2.336252255E0
1.153689387E1,-2.953956630E0,3.114612973E-1,-5.132885071E-1,3.014354492E0
1.154687288E1,-2.791699904E0,3.724968731E-2,-6.965501493E-1,2.877526369E0
1.155685087E1,-1.889514874E0,-1.470451945E-1,-2.645584416E-1,1.913603908E0
1.156682987E1,-6.577924651E-1,-2.984208369E-1,4.497368377E-1,8.508872700E-1
1.157680788E1,6.021293110E-1,-3.939701879E-1,1.243431458E0,1.436625911E0
1.158678687E1,1.567749029E0,-4.107943815E-1,1.737767934E0,2.376221040E0
1.159676487E1,2.063270150E0,-2.919555706E-1,1.638364098E0,2.650765679E0
1.160674387E1,1.814117367E0,-4.432054979E-1,1.086207431E0,2.160393371E0
1.161672187E1,9.422489816E-1,-6.412781739E-1,2.019282935E-1,1.157517117E0
1.162670088E1,-4.794307530E-2,-6.606581855E-1,-4.925653901E-1,8.254625612E-1
1.163667887E1,-7.680890787E-1,-7.303628433E-1,-7.594749606E-1,1.303914465E0
1.164665687E1,-1.157825298E0,-7.204828030E-1,-7.864844191E-1,1.574233982E0
1.165663587E1,-9.687409616E-1,-5.423924017E-1,-7.532570314E-1,1.341657454E0
1.166661388E1,-6.348491603E-1,-5.116120738E-1,-5.395874923E-1,9.777193014E-1
1.167659287E1,-3.834212261E-1,-6.082963693E-1,-3.616859561E-1,8.048931857E-1
1.168657087E1,-1.857309580E-1,-6.929763311E-1,-4.606611907E-1,8.525965734E-1
1.169654987E1,-3.814290798E-1,-7.416105473E-1,-9.058898252E-1,1.231304480E0
1.170652787E1,-6.678549385E-1,-6.007838666E-1,-1.529245698E0,1.773573759E0
1.171650688E1,-7.810693127E-1,-4.843400753E-1,-1.795927849E0,2.017426930E0
1.172648487E1,-8.545693982E-1,-4.794132113E-1,-1.692236250E0,1.955451204E0
1.173646387E1,-9.330419558E-1,-4.573148292E-1,-1.577284668E0,1.888790901E0
1.174644188E1,-9.552555281E-1,-4.005664319E-1,-1.554262426E0,1.867805739E0
1.175642087E1,-9.755541372E-1,-2.973127896E-1,-1.612144598E0,1.907645401E0
1.176639887E1,-8.738330501E-1,-3.275665757E-1,-1.832377637E0,2.056329707E0
1.177637788E1,-9.111108041E-1,-5.932804272E-1,-2.440545952E0,2.671772653E0
1.178635587E1,-1.184023163E0,-7.154547822E-1,-3.038545960E0,3.338644627E0
1.179633487E1,-1.377177161E0,-7.267372772E-1,-3.321382797E0,3.668289477E0
1.180631371E1,-1.492994716E0,-8.090581799E-1,-2.979476218E0,3.429414949E0
1.181629271E1,-1.827198758E0,-8.256221724E-1,-2.513871206E0,3.215564603E0
1.182627071E1,-2.499108741E0,-6.535380310E-1,-2.433691846E0,3.549015703E0
1.183624971E1,-3.439127010E0,-4.823879823E-1,-2.542508529E0,4.304026298E0
1.184622771E1,-4.579428787E0,-3.959933245E-1,-2.968616184E0,5.471805988E0
1.185620671E1,-5.936590344E0,-5.252641529E-1,-3.408509234E0,6.865634897E0
1.186618471E1,-7.510818087E0,-7.503734770E-1,-3.761553590E0,8.433548133E0
1.187616371E1,-9.127255712E0,-7.661665142E-1,-3.996055005E0,9.993110805E0
1.188614171E1,-1.027368186E1,-6.957756856E-1,-4.059928819E0,1.106867945E1
1.189611971E1,-1.134299961E1,-9.200836489E-1,-4.071802760E0,1.208676019E1
1.190609871E1,-1.285786350E1,-1.382300199E0,-4.444014874E0,1.367423401E1
1.191607671E1,-1.439564262E1,-1.966515103E0,-5.455432323E0,1.551977609E1
1.192605571E1,-1.529269672E1,-2.592929947E0,-6.402378373E0,1.678035481E1
1.193603371E1,-1.557460034E1,-3.418790978E0,-7.008413039E0,1.741763936E1
1.194601271E1,-1.531865251E1,-4.261058712E0,-7.048206850E0,1.739238212E1
1.195599071E1,-1.547950707E1,-5.250896720E0,-6.743928273E0,1.768241002E1
1.196596971E1,-1.607339473E1,-6.614346957E0,-6.446820720E0,1.853820653E1
1.197594771E1,-1.526684969E1,-8.450004882E0,-5.967352545E0,1.844149067E1
1.198592671E1,-1.268481632E1,-1.042521479E1,-5.199650552E0,1.722283468E1
1.199590471E1,-9.275099636E0,-1.209146193E1,-4.984933777E0,1.603372974E1
1.200588371E1,-5.821980239E0,-1.305316986E1,-5.492787845E0,1.531180641E1
1.201586171E1,-2.661066089E0,-1.375698049E1,-5.398966931E0,1.501614561E1
1.202584071E1,1.232383729E0,-1.435500798E1,-3.401292601E0,1.480384461E1
1.203581871E1,6.495831497E0,-1.438229811E1,1.454998924E0,1.584813388E1
1.204579771E1,1.184150281E1,-1.300203245E1,9.302102662E0,1.989480210E1
1.205577571E1,1.561840183E1,-1.046102431E1,1.671471618E1,2.515450740E1
1.206575471E1,1.702548400E1,-8.244460634E0,2.054445415E1,2.792691950E1
1.207573271E1,1.652540322E1,-6.597791736E0,2.044927083E1,2.710705600E1
1.208571171E1,1.523815389E1,-5.216086491E0,1.861019638E1,2.461195445E1
1.209568971E1,1.356683723E1,-4.191180684E0,1.656630566E1,2.181897227E1
1.210566771E1,1.173513026E1,-3.247020248E0,1.483432413E1,1.919149799E1
1.211564671E1,9.764129763E0,-2.507616439E0,1.347851503E1,1.683142114E1
1.212562471E1,7.794439037E0,-2.002949688E0,1.216988361E1,1.459010468E1
1.213560371E1,5.982635413E0,-1.577565919E0,1.062050244E1,1.229128605E1
1.214558171E1,4.522170512E0,-1.175990843E0,8.996682708E0,1.013771574E1
1.215556071E1,3.191873403E0,-9.954212219E-1,7.657667985E0,8.355764369E0
1.216553871E1,1.968037426E0,-1.067205150E0,6.393174856E0,6.773830739E0
1.217551771E1,1.120450772E0,-1.251690066E0,4.897926039E0,5.178012885E0
1.218549571E1,6.860865569E-1,-1.425010893E0,3.231269603E0,3.597565018E0
1.219547471E1,7.137596744E-1,-1.417096102E0,1.673832139E0,2.306366897E0
1.220545271E1,7.165371019E-1,-1.222004337E0,5.161840117E-1,1.507702209E0
1.221543171E1,5.920492959E-1,-9.578856057E-1,-2.066978308E-1,1.144897897E0
1.222540971E1,5.799116457E-1,-5.381578481E-1,-4.030637046E-1,8.879029993E-1
1.223538871E1,6.086629897E-1,-1.419978780E-1,2.034480945E-1,6.572862083E-1
1.224536671E1,6.855731714E-1,1.558896929E-1,1.560927082E0,1.711959557E0
1.225534571E1,4.929617947E-1,6.449829698E-2,2.543658092E0,2.591788543E0
1.226532371E1,-4.490059358E-1,-3.393495923E-1,2.099732802E0,2.173854254E0
1.227530271E1,-1.220192285E0,-2.891752195E-1,9.405421063E-1,1.567517455E0
1.228528071E1,-1.305986726E0,-4.399854362E-2,8.377298556E-2,1.309410216E0
1.229525971E1,-9.687310213E-1,1.796258801E-1,-7.278614044E-3,9.852706362E-1
1.230523771E1,-5.070185012E-1,3.448582542E-1,3.730803522E-1,7.177631400E-1
1.231521671E1,-1.589524645E-1,4.999369383E-1,7.596866298E-1,9.232153615E-1
1.232519471E1,-7.562437892E-2,6.258789468E-1,8.883920324E-1,1.089350222E0
1.233517371E1,-5.585704780E-1,3.877610296E-1,4.447461661E-1,8.125015367E-1
1.234515171E1,-1.544098796E0,8.041675687E-2,-5.642727558E-1,1.645937936E0
1.235512971E1,-2.023801444E0,2.049729753E-1,-1.173806396E0,2.348533087E0
1.236510871E1,-2.125606146E0,2.569190544E-1,-1.169976397E0,2.439888042E0
1.237508671E1,-1.951040447E0,2.475231636E-1,-6.686150765E-1,2.077227157E0
1.238506571E1,-1.516195883E0,3.606141615E-1,-1.255875941E-1,1.563542379E0
1.239504371E1,-9.074130249E-1,4.336517322E-1,2.485488017E-1,1.035967533E0
1.240502271E1,-2.379021549E-1,4.700763774E-1,5.229457684E-1,7.423217043E-1
1.241500071E1,5.244701010E-1,5.942770851E-1,1.052248557E0,1.317369032E0
1.242497971E1,7.860131335E-1,2.127456790E-1,1.387972291E0,1.609206155E0
1.243495771E1,-2.563653231E-2,-3.725091523E-1,5.369112217E-1,6.539831499E-1
1.244493671E1,-9.189074814E-1,-3.289848179E-1,-4.537328249E-1,1.076334263E0
1.245491471E1,-1.234165376E0,-2.866866446E-1,-6.690705746E-1,1.432832454E0
1.246489371E1,-9.585673910E-1,-3.726734591E-1,-8.383971691E-2,1.031875016E0
1.247487171E1,-2.802102685E-1,-2.451135260E-1,7.568466371E-1,8.434543659E-1
1.248485071E1,3.761297482E-1,-8.397888064E-2,1.330511118E0,1.385202467E0
1.249482871E1,9.130760533E-1,-2.198611557E-2,1.700210683E0,1.930001978E0
1.250480771E1,1.442825605E0,8.924020529E-2,1.912746447E0,2.397563036E0
1.251478571E1,1.639763337E0,-5.194841802E-2,1.883030897E0,2.497464273E0
1.252476471E1,6.633034658E-1,-6.350602448E-1,7.056221044E-1,1.158091342E0
1.253474271E1,-6.680660230E-1,-8.556856316E-1,-1.083656802E0,1.533891188E0
1.254472171E1,-1.745327214E0,-8.646096522E-1,-2.045723240E0,2.824659362E0
1.255469971E1,-2.385211996E0,-5.718395644E-1,-2.198005201E0,3.293548788E0
1.256467771E1,-2.602257133E0,-2.973484576E-1,-1.773483312E0,3.163131573E0
1.257465671E1,-2.258499910E0,-9.478804350E-2,-1.067956005E0,2.500067328E0
1.258463471E1,-1.562006478E0,-1.061737418E-2,-4.629111262E-1,1.629191111E0
1.259461371E1,-8.892562509E-1,-1.020467770E-1,2.259188712E-2,8.953773605E-1
1.260459171E1,-1.448922497E-1,-1.306928712E-1,4.790009826E-1,5.172198101E-1
1.261457071E1,4.891336226E-1,-1.260946208E-1,8.719012032E-1,1.007652352E0
1.262454871E1,6.505688149E-1,-3.464387566E-1,7.569822925E-1,1.056542373E0
1.263452771E1,-1.372850221E-1,-6.493888468E-1,-4.815094382E-1,8.200026772E-1
1.264450571E1,-9.774790406E-1,-6.208459559E-1,-1.854363022E0,2.186224415E0
1.265448471E1,-1.369913165E0,-4.709052202E-1,-2.520330625E0,2.906970978E0
1.266446271E1,-1.322712101E0,-3.945543247E-1,-2.324255212E0,2.703220803E0
1.267444171E1,-9.468454778E-1,-2.302364552E-1,-1.689943557E0,1.950752268E0
1.268441971E1,-4.603448564E-1,-1.104886946E-1,-1.017662276E0,1.122391040E0
1.269439871E1,-1.387497497E-1,-1.012138411E-1,-5.816266340E-1,6.064530287E-1
1.270437671E1,-2.674107134E-1,-1.528590810E-1,-7.025207412E-1,7.670787314E-1
1.271435571E1,-1.020206400E0,-2.088648820E-1,-1.425399002E0,1.765278435E0
1.272433371E1,-2.149485590E0,-1.596798581E-1,-2.300991041E0,3.152831383E0
1.273431271E1,-3.284906112E0,8.125407815E-2,-2.912156639E0,4.390656748E0
1.274429071E1,-4.158647946E0,2.849985534E-1,-3.084866433E0,5.185747566E0
1.275426971E1,-4.707030235E0,3.800196084E-1,-2.802490940E0,5.491311683E0
1.276424771E1,-4.963396143E0,4.650328615E-1,-2.430612264E0,5.546118716E0
1.277422571E1,-4.955644489E0,3.559375584E-1,-2.166892751E0,5.420380802E0
1.278420471E1,-5.122573725E0,9.290933311E-2,-2.242410711E0,5.592655855E0
1.279418271E1,-5.812518860E0,-1.445136425E-1,-2.724873245E0,6.421152069E0
1.280416183E1,-6.904923754E0,-3.666631061E-1,-3.435866017E0,7.721242722E0
1.281413983E1,-8.334168032E0,-5.475125161E-1,-4.243259495E0,9.368211029E0
1.282411883E1,-9.659810758E0,-6.802469426E-1,-5.056145847E0,1.092425240E1
1.283409683E1,-1.035467282E1,-9.852526215E-1,-5.645572667E0,1.183479880E1
1.284407583E1,-1.066731291E1,-1.433661264E0,-5.998416463E0,1.232184846E1
1.285405383E1,-1.042071829E1,-1.910413992E0,-6.107795649E0,1.222890915E1
1.286403283E1,-9.695332593E0,-2.403816960E0,-5.812676734E0,1.155703339E1
1.287401083E1,-9.126329513E0,-2.862471094E0,-5.444394534E0,1.100568321E1
1.288398983E1,-9.084925963E0,-3.041705210E0,-5.269362227E0,1.093407649E1
1.289396783E1,-1.016261985E1,-3.419099126E0,-5.435556468E0,1.202141236E1
1.290394683E1,-1.161343801E1,-3.977821047E0,-5.716806371E0,1.354167190E1
1.291392483E1,-1.236862579E1,-4.610692679E0,-5.472575190E0,1.428952309E1
1.292390383E1,-1.236442399E1,-5.691844023E0,-4.427031051E0,1.431344378E1
1.293388183E1,-1.162822913E1,-6.968633262E0,-3.143680651E0,1.391618806E1
1.294386083E1,-1.044876153E1,-8.056513581E0,-1.907002727E0,1.333119230E1
1.295383883E1,-8.566903587E0,-9.123298316E0,-2.353562041E-1,1.251726015E1
1.296381783E1,-5.844851038E0,-1.036561646E1,2.150000292E0,1.209259234E1
1.297379583E1,-2.580989933E0,-1.162881619E1,4.966581706E0,1.290572775E1
1.298377483E1,1.124931786E0,-1.149014596E1,8.135586648E0,1.412362191E1
1.299375283E1,3.776497612E0,-1.030473175E1,1.069125141E1,1.532162809E1
1.300373183E1,4.344556367E0,-9.133961298E0,1.150861147E1,1.532163689E1
1.301370983E1,3.864989666E0,-8.358503559E0,1.110741061E1,1.442835047E1
1.302368783E1,4.309300872E0,-7.847983745E0,1.077478357E1,1.400917142E1
1.303366683E1,6.656687230E0,-7.420210803E0,1.145581696E1,1.518574185E1
1.304364483E1,1.020214001E1,-6.675840955E0,1.251113881E1,1.746937628E1
1.305362383E1,1.335803199E1,-5.631890182E0,1.278534048E1,1.932925598E1
1.306360183E1,1.515935331E1,-4.624997892E0,1.207516457E1,1.992501437E1
1.307358083E1,1.531825958E1,-4.088593040E0,1.104875252E1,1.932461130E1
1.308355883E1,1.441868299E1,-3.833824006E0,1.013673656E1,1.803746251E1
1.309353783E1,1.267281433E1,-3.452451060E0,9.130051850E0,1.599617104E1
1.310351583E1,1.019513271E1,-3.049465050E0,7.946711057E0,1.328119666E1
1.311349483E1,7.799335495E0,-2.802169928E0,6.658847777E0,1.063118263E1
1.312347283E1,5.651245635E0,-2.634922019E0,5.264038922E0,8.160238786E0
1.313345183E1,4.039026192E0,-2.429630955E0,3.775212686E0,6.038962658E0
1.314342983E1,2.942604845E0,-2.203810317E0,2.494893483E0,4.442994112E0
1.315340883E1,2.290667051E0,-1.959031252E0,1.561246340E0,3.394473320E0
1.316338683E1,2.031346107E0,-1.617239277E0,1.051205486E0,2.801225243E0
1.317336583E1,1.970059685E0,-1.274244531E0,9.700731035E-1,2.538873001E0
1.318334383E1,1.870592115E0,-1.083184420E0,1.159067831E0,2.452721261E0
1.319332283E1,1.552866988E0,-1.014683120E0,1.188066512E0,2.202834482E0
1.320330083E1,1.152018720E0,-9.613290310E-1,9.606799901E-1,1.781630343E0
1.321327983E1,9.587530401E-1,-7.423888117E-1,9.361112324E-1,1.531878840E0
1.322325783E1,1.147215233E0,-4.600869942E-1,1.366182057E0,1.842345311E0
1.323323583E1,1.676356089E0,-1.996976173E-1,2.002188381E0,2.618932452E0
1.324321483E1,2.079699656E0,-2.257902324E-1,2.399850501E0,3.183616547E0
1.325319283E1,2.023268178E0,-4.046279079E-1,2.280311193E0,3.075249096E0
1.326317183E1,1.069323596E0,-6.539748180E-1,1.226633724E0,1.753786277E0
1.327314983E1,-1.300973323E-1,-6.588174820E-1,-8.635972068E-2,6.770700051E-1
1.328312883E1,-1.174422035E0,-4.980196363E-1,-9.398989125E-1,1.584519056E0
1.329310683E1,-1.829608980E0,-3.087592989E-1,-1.236440527E0,2.229705475E0
1.330308583E1,-2.041094584E0,-6.185594022E-2,-9.375625844E-1,2.246979497E0
1.331306383E1,-1.672496635E0,8.469282568E-2,-2.788537145E-1,1.697697636E0
1.332304283E1,-9.172211444E-1,1.191662550E-1,5.339958731E-1,1.068010682E0
1.333302083E1,-2.980355054E-1,8.151018620E-2,9.613033763E-1,1.009739201E0
1.334299983E1,8.293398321E-2,1.425937092E-1,8.583549587E-1,8.740619238E-1
1.335297783E1,5.230334401E-2,3.072536409E-2,6.794066247E-1,6.821092650E-1
1.336295683E1,-3.847959065E-1,-1.168256146E-1,3.339987322E-1,5.227535433E-1
1.337293483E1,-9.099173874E-1,-1.727700198E-1,5.974571664E-2,9.280995002E-1
1.338291383E1,-1.219798182E0,-1.757550234E-1,-6.001545601E-3,1.232409612E0
1.339289183E1,-1.023894238E0,-2.023434824E-1,3.269306910E-1,1.093702872E0
1.340287083E1,-4.621241641E-1,-2.072393560E-1,8.838861680E-1,1.018705871E0
1.341284883E1,7.325040936E-2,-2.724568605E-1,1.331146710E0,1.360716696E0
1.342282783E1,4.844932723E-1,-3.745609403E-1,1.495365762E0,1.615904821E0
1.343280583E1,8.452553684E-1,-4.783408320E-1,1.463926452E0,1.756800287E0
1.344278383E1,1.014227622E0,-5.821587306E-1,1.375377388E0,1.805333602E0
1.345276283E1,5.016256142E-1,-9.038924164E-1,7.694187355E-1,1.288664017E0
1.346274083E1,-3.303407872E-1,-1.058704467E0,-2.888863671E-1,1.146052145E0
1.347271983E1,-1.033995888E0,-1.053799823E0,-9.491065961E-1,1.755119624E0
1.348269783E1,-1.474854898E0,-1.099090016E0,-8.368605208E-1,2.020774942E0
1.349267683E1,-1.616217184E0,-1.129275683E0,-3.698059845E-1,2.006035398E0
1.350265483E1,-1.545315017E0,-1.054130191E0,2.083315977E-1,1.882177200E0
1.351263383E1,-1.078528283E0,-9.662412769E-1,7.046947360E-1,1.610416136E0
1.352261183E1,-5.057204193E-1,-8.312191272E-1,1.100358862E0,1.468832191E0
1.353259083E1,-1.381790614E-1,-7.147215414E-1,1.276837186E0,1.469773294E0
1.354256883E1,-3.649019247E-1,-6.595349354E-1,9.937319613E-1,1.247254167E0
1.355254783E1,-1.146290495E0,-5.228486681E-1,4.307941979E-1,1.331516530E0
1.356252583E1,-2.121792592E0,-3.254416975E-1,-4.054053683E-2,2.146988505E0
1.357250483E1,-2.873562677E0,-1.950598982E-1,-3.106268996E-1,2.896877611E0
1.358248283E1,-3.271818289E0,-1.804930222E-1,-3.272815970E-1,3.293096703E0
1.359246183E1,-3.311403939E0,-1.721002212E-1,-3.036413042E-1,3.329746623E0
1.360243983E1,-3.013998179E0,-7.802319914E-2,-3.617158135E-1,3.036628224E0
1.361241883E1,-2.572275535E0,-3.372469336E-2,-4.638725181E-1,2.613984792E0
1.362239683E1,-2.256840470E0,-1.878985208E-1,-7.090999552E-1,2.373069217E0
1.363237583E1,-2.287525488E0,-3.384976530E-1,-1.192226222E0,2.601683471E0
1.364235383E1,-2.522132737E0,-3.527227592E-1,-1.734039164E0,3.080983400E0
1.365233183E1,-2.719697875E0,-3.121477604E-1,-2.216548476E0,3.522396897E0
1.366231083E1,-2.878964919E0,-2.726799318E-1,-2.565944754E0,3.866117670E0
1.367228883E1,-3.007873220E0,-1.539498791E-1,-2.762793608E0,4.087056447E0
1.368226783E1,-3.218599271E0,-8.083658695E-2,-2.953158485E0,4.368874095E0
1.369224583E1,-3.671643879E0,-1.111166856E-1,-3.186453034E0,4.862797408E0
1.370222483E1,-3.978912722E0,-1.095163026E-1,-3.258960262E0,5.144371902E0
1.371220283E1,-3.904390544E0,-1.246012419E-1,-3.201493827E0,5.050678539E0
1.372218183E1,-3.782050420E0,-2.121963331E-1,-3.138446224E0,4.919225281E0
1.373215983E1,-3.722235743E0,-2.259329045E-1,-3.136561666E0,4.872792186E0
1.374213883E1,-3.734071092E0,-2.465466785E-1,-3.196795004E0,4.921744658E0
1.375211683E1,-4.180817079E0,-3.620560849E-1,-3.369095492E0,5.381553725E0
1.376209583E1,-5.349938028E0,-5.136936826E-1,-3.838666086E0,6.604625305E0
1.377207383E1,-7.012340614E0,-6.501633105E-1,-4.409231542E0,8.308848055E0
1.378205283E1,-9.480882450E0,-8.381881312E-1,-5.210798854E0,1.085090393E1
1.379203083E1,-1.191550283E1,-1.247455220E0,-6.266646956E0,1.352058491E1
1.380200575E1,-1.386598780E1,-1.978825246E0,-7.470123805E0,1.587400758E1
1.381198375E1,-1.505265682E1,-2.860373697E0,-8.698187027E0,1.761881587E1
1.382196275E1,-1.479240076E1,-3.805970210E0,-9.591281390E0,1.803588668E1
1.383194075E1,-1.372929042E1,-4.864705667E0,-9.927851801E0,1.762728051E1
1.384191875E1,-1.258239181E1,-6.106815655E0,-9.365802230E0,1.683235077E1
1.385189775E1,-1.105530725E1,-7.415067008E0,-7.405153638E0,1.523283747E1
1.386187575E1,-9.703823919E0,-8.292248173E0,-4.707631913E0,1.360468216E1
1.387185475E1,-8.376462697E0,-8.771587710E0,-2.295402857E0,1.234401687E1
1.388183275E1,-6.631883926E0,-9.364290140E0,-3.050024629E-1,1.147888674E1
1.389181175E1,-4.917146421E0,-9.804366208E0,1.176011893E0,1.103117988E1
1.390178975E1,-3.101620460E0,-1.006905270E1,2.421076917E0,1.081052659E1
1.391176875E1,-5.986069483E-1,-1.065425023E1,3.683081617E0,1.128877622E1
1.392174675E1,2.109556124E0,-1.080617844E1,5.050568773E0,1.211329701E1
1.393172575E1,4.088929254E0,-9.902781279E0,6.856141019E0,1.271971262E1
1.394170375E1,4.420723367E0,-8.998087209E0,8.887731539E0,1.339776625E1
1.395168275E1,2.536687919E0,-8.366766844E0,1.046252354E1,1.363458734E1
1.396166075E1,2.334556398E-1,-7.380726310E0,1.158970884E1,1.374230597E1
1.397163975E1,-6.749996513E-2,-6.453357323E0,1.323020951E1,1.472035396E1
1.398161775E1,2.867980632E0,-5.509772252E0,1.597969310E1,1.714448876E1
1.399159675E1,6.861368430E0,-4.523422986E0,1.882783209E1,2.054329558E1
1.400157475E1,1.043087724E1,-3.252548205E0,1.948329678E1,2.233788538E1
1.401155375E1,1.261715936E1,-2.086713392E0,1.769094976E1,2.182926445E1
1.402153175E1,1.303264496E1,-1.534072575E0,1.491723297E1,1.986773900E1
1.403151075E1,1.204888718E1,-1.276684574E0,1.243542556E1,1.736218346E1
1.404148875E1,1.022630655E1,-1.145138594E0,1.048390330E1,1.469016394E1
1.405146675E1,8.084204825E0,-1.256744984E0,8.560202093E0,1.184106564E1
1.406144575E1,6.122509582E0,-1.356570988E0,6.438857982E0,8.988008708E0
1.407142375E1,4.823928647E0,-1.167770242E0,4.627140312E0,6.785602582E0
1.408140275E1,4.185250145E0,-9.026387733E-1,3.677603946E0,5.644098362E0
1.409138075E1,3.938662536E0,-9.138075399E-1,3.314098921E0,5.227940173E0
1.410135975E1,3.066612887E0,-1.673086034E0,1.972367581E0,4.011678620E0
1.411133775E1,1.999336109E0,-1.811508340E0,-4.055358343E-1,2.728253407E0
1.412131675E1,1.046702765E0,-1.277369868E0,-2.147244791E0,2.708859659E0
1.413129475E1,3.226847354E-1,-8.111316025E-1,-2.490649574E0,2.639203519E0
1.414127375E1,-2.616611463E-1,-4.579013050E-1,-1.696862859E0,1.776930985E0
1.415125175E1,-7.009729832E-1,-7.991565049E-2,-7.131941025E-1,1.003192635E0
1.416123075E1,-7.669974035E-1,3.366902786E-1,2.309838755E-1,8.689067335E-1
1.417120875E1,-3.409871051E-1,6.312075144E-1,1.204433015E0,1.401910846E0
1.418118775E1,4.824432385E-1,6.581719494E-1,2.046407365E0,2.203117086E0
1.419116575E1,1.107317049E0,1.681916499E-1,2.302365721E0,2.560337359E0
1.420114475E1,7.713822305E-1,-7.397920632E-1,1.328194889E0,1.704823893E0
1.421112275E1,-5.546651226E-1,-1.281565830E0,-8.105715854E-1,1.614648776E0
1.422110175E1,-1.672114812E0,-9.367379808E-1,-2.296713803E0,2.991377656E0
1.423107975E1,-2.214869741E0,-5.907395196E-1,-2.424351504E0,3.336480385E0
1.424105775E1,-2.068589947E0,-2.374770623E-1,-1.452323238E0,2.538641863E0
1.425103675E1,-1.456807467E0,3.065829653E-1,-1.441292612E-1,1.495678560E0
1.426101475E1,-8.161742413E-1,5.607123131E-1,8.984936091E-1,1.337097399E0
1.427099375E1,-1.039646637E-1,6.754826313E-1,1.575418822E0,1.717273973E0
1.428097175E1,5.636686653E-1,5.072009343E-1,1.998963057E0,2.137949591E0
1.429095075E1,1.285960597E-1,-1.694634193E-1,1.470402828E0,1.485711707E0
1.430092875E1,-9.144144809E-1,-3.229323649E-1,1.559710057E-1,9.822250811E-1
1.431090775E1,-1.644248736E0,-1.491443449E-1,-8.072911513E-1,1.837802205E0
1.432088575E1,-1.921391555E0,-1.269939226E-1,-1.221430725E0,2.280299537E0
1.433086475E1,-1.808887618E0,2.500854135E-2,-1.209322311E0,2.176042346E0
1.434084275E1,-1.359437293E0,1.867594832E-1,-9.635205674E-1,1.676699360E0
1.435082175E1,-5.581524020E-1,1.534654373E-1,-5.583868754E-1,8.042895293E-1
1.436079975E1,4.266859442E-1,-2.724919438E-2,-2.066616511E-1,4.748815132E-1
1.437077875E1,1.429353036E0,-1.721104538E-1,3.775751799E-1,1.488366596E0
1.438075675E1,1.939597446E0,-4.167614651E-1,9.824257851E-1,2.213795111E0
1.439073575E1,1.639035358E0,-7.082720625E-1,1.209912295E0,2.156843523E0
1.440071375E1,7.218124598E-1,-7.639235222E-1,7.458486092E-1,1.288752312E0
1.441069275E1,-1.913618267E-1,-5.948892885E-1,-3.866295934E-2,6.261049742E-1
1.442067075E1,-7.770768338E-1,-4.620978516E-1,-5.181007290E-1,1.042022646E0
1.443064975E1,-9.794279176E-1,-4.180946302E-1,-7.074113524E-1,1.278480734E0
1.444062775E1,-7.339173657E-1,-3.006737691E-1,-6.171747816E-1,1.004959763E0
1.445060575E1,-2.041391623E-1,-2.348890847E-1,-2.666084754E-1,4.097874557E-1
1.446058475E1,4.882933778E-1,-2.986067784E-1,2.177496896E-1,6.123817096E-1
1.447056275E1,8.109708041E-1,-5.719582629E-1,4.379266316E-1,1.084707165E0
1.448054175E1,1.988392460E-1,-7.431278998E-1,8.590608638E-2,7.740516629E-1
1.449051975E1,-7.373315549E-1,-4.214257890E-1,-5.089428564E-1,9.900910809E-1
1.450049875E1,-1.549051972E0,-1.994958884E-1,-8.250386202E-1,1.766366142E0
1.451047675E1,-2.119634385E0,-8.452734947E-2,-8.721461284E-1,2.293607130E0
1.452045575E1,-2.341122236E0,1.608627498E-1,-7.119669181E-1,2.452269773E0
1.453043375E1,-2.132132224E0,2.944339129E-1,-4.094179469E-1,2.190959197E0
1.454041275E1,-1.356300262E0,2.665152124E-1,4.181760527E-2,1.382870013E0
1.455039075E1,-4.853574908E-1,1.526593986E-1,5.202337933E-1,7.276812389E-1
1.456036975E1,-4.708423626E-1,-1.400478315E-1,2.347295288E-1,5.444298644E-1
1.457034775E1,-8.534443939E-1,-1.933223981E-1,-6.483761090E-1,1.089097086E0
1.458032675E1,-1.091882738E0,-1.317594033E-1,-1.331895738E0,1.727285359E0
1.459030475E1,-1.167942150E0,-1.883054870E-1,-1.597117839E0,1.987544519E0
1.460028375E1,-1.247310501E0,-1.041272163E-1,-1.556502494E0,1.997329712E0
1.461026175E1,-1.302331631E0,3.070577592E-2,-1.366087332E0,1.887645391E0
1.462024075E1,-1.244454136E0,-1.952853084E-2,-1.105471668E0,1.664666654E0
1.463021875E1,-1.096020228E0,-1.615582761E-1,-8.926523137E-1,1.422740163E0
1.464019675E1,-1.115386207E0,-3.656556308E-1,-8.057439780E-1,1.423732344E0
1.465017575E1,-1.356772717E0,-4.361505398E-1,-8.817747384E-1,1.675883704E0
1.466015375E1,-1.794484756E0,-4.986455807E-1,-1.256433327E0,2.246652546E0
1.467013275E1,-2.443772446E0,-4.916587427E-1,-1.789169052E0,3.068367316E0
1.468011075E1,-3.290528795E0,-5.515836400E-1,-2.284765018E0,4.043757590E0
1.469008975E1,-4.044348328E0,-6.911543387E-1,-2.757864406E0,4.943709518E0
1.470006775E1,-4.850526754E0,-8.337372306E-1,-3.189728059E0,5.864903465E0
1.471004675E1,-6.305795819E0,-9.155272061E-1,-3.329910377E0,7.189544777E0
1.472002475E1,-8.607313694E0,-8.747247505E-1,-3.498210785E0,9.332120398E0
1.473000375E1,-1.150455116E1,-9.164291391E-1,-3.940773674E0,1.219525469E1
1.473998175E1,-1.416339005E1,-1.251573999E0,-4.674104564E0,1.496714096E1
1.474996075E1,-1.596348579E1,-1.876660355E0,-5.540486507E0,1.700152121E1
1.475993875E1,-1.670262648E1,-2.693936504E0,-6.557327249E0,1.814479445E1
1.476991775E1,-1.637338496E1,-3.770050472E0,-7.554058832E0,1.842185714E1
1.477989575E1,-1.500405360E1,-4.659367241E0,-8.156999152E0,1.770220220E1
1.478987475E1,-1.399050425E1,-5.147370597E0,-8.138733619E0,1.698436393E1
1.479985346E1,-1.409379766E1,-5.681234835E0,-7.389762597E0,1.689734159E1
1.480983246E1,-1.494631351E1,-6.313151616E0,-6.287713305E0,1.740067555E1
1.481981046E1,-1.563661240E1,-6.979818401E0,-5.099378990E0,1.786687377E1
1.482978946E1,-1.535057363E1,-8.097249963E0,-3.743168775E0,1.775434821E1
1.483976746E1,-1.385108792E1,-9.980801847E0,-1.951884785E0,1.718368110E1
1.484974546E1,-1.119930546E1,-1.169367701E1,-5.995369479E-2,1.619166820E1
1.485972446E1,-7.810253416E0,-1.307002153E1,1.573702225E0,1.530692850E1
1.486970246E1,-4.176310045E0,-1.431689583E1,2.535919887E0,1.512765552E1
1.487968146E1,-6.805776027E-1,-1.531823034E1,3.494545165E0,1.572651305E1
1.488965946E1,3.156341335E0,-1.554710323E1,5.713183436E0,1.686165396E1
1.489963846E1,6.823831644E0,-1.419945801E1,9.558940440E0,1.842722520E1
1.490961646E1,9.235390610E0,-1.179544897E1,1.424119427E1,2.066970417E1
1.491959546E1,9.829535547E0,-9.723310935E0,1.843892676E1,2.304683416E1
1.492957346E1,9.724854015E0,-8.567538595E0,2.071316269E1,2.443380060E1
1.493955246E1,1.049093048E1,-7.671171545E0,2.076320317E1,2.449524650E1
1.494953046E1,1.195648012E1,-6.280034741E0,1.928769104E1,2.354593975E1
1.495950946E1,1.335476456E1,-5.046581556E0,1.755734439E1,2.262914192E1
1.496948746E1,1.404572536E1,-4.224411580E0,1.619795212E1,2.185181244E1
1.497946646E1,1.329254317E1,-3.588677151E0,1.495504925E1,2.032790707E1
1.498944446E1,1.158578419E1,-3.252391500E0,1.350976723E1,1.809204954E1
1.499942346E1,9.831958634E0,-3.240540363E0,1.157189705E1,1.552666461E1
1.500940146E1,8.280261966E0,-3.341853899E0,9.079617276E0,1.273460544E1
1.501937946E1,6.855521214E0,-3.363798500E0,6.542796918E0,1.005591880E1
1.502935846E1,5.571180881E0,-3.162618029E0,4.406016158E0,7.775164795E0
1.503933646E1,4.598166774E0,-2.950810243E0,2.670707563E0,6.081373008E0
1.504931546E1,3.778155005E0,-2.608749881E0,1.466867748E0,4.819930723E0
1.505929346E1,2.988812759E0,-2.200103182E0,1.007179388E0,3.845499453E0
1.506927246E1,2.334028394E0,-1.771860124E0,8.233113527E-1,3.043849278E0
1.507925046E1,1.827835812E0,-1.344249151E0,6.673646495E-1,2.365029622E0
1.508922946E1,1.396608336E0,-1.145879436E0,2.728924781E-1,1.827026226E0
1.509920746E1,1.062770914E0,-9.412701577E-1,-2.530043435E-1,1.442041165E0
1.510918646E1,9.043058145E-1,-5.811243582E-1,-5.532034649E-1,1.208928699E0
1.511916446E1,8.432529894E-1,-5.426508486E-2,-4.066098216E-1,9.377376235E-1
1.512914346E1,8.326782998E-1,3.130681121E-1,-2.624800488E-2,8.899740174E-1
1.513912146E1,8.497802362E-1,5.767377770E-1,4.683527644E-1,1.128763582E0
1.514910046E1,1.066439749E0,8.133552986E-1,9.929789861E-1,1.668786339E0
1.515907846E1,9.845834076E-1,4.801797813E-1,9.470961772E-1,1.448091253E0
1.516905746E1,1.725595200E-1,-6.409542382E-2,-5.493236911E-1,5.793457767E-1
1.517903546E1,-7.410076994E-1,2.092718482E-2,-2.223015789E0,2.343358606E0
1.518901446E1,-1.434191607E0,1.934562993E-1,-2.982319719E0,3.314899970E0
1.519899246E1,-1.519176793E0,3.661748636E-1,-2.615913305E0,3.047127267E0
1.520897046E1,-1.140863695E0,6.877161759E-1,-1.498560534E0,2.005045431E0
1.521894946E1,-6.211450410E-1,1.014250426E0,-3.546279283E-1,1.241082614E0
1.522892746E1,7.400470018E-2,1.186928059E0,3.709428294E-1,1.245742147E0
1.523890646E1,9.573944396E-1,1.231738197E0,8.228155088E-1,1.763748412E0
1.524888446E1,1.863424013E0,8.869542021E-1,1.222019028E0,2.398409330E0
1.525886346E1,1.443343669E0,-1.287094957E-1,1.102931126E0,1.821061270E0
1.526884146E1,-6.334820813E-1,-5.832118142E-1,1.560742456E-2,8.612079651E-1
1.527882046E1,-2.459133081E0,-4.353076637E-2,-8.880037773E-1,2.614915132E0
1.528879846E1,-3.523453799E0,2.466858423E-1,-8.711263740E-1,3.637917226E0
1.529877746E1,-3.500021667E0,4.618265408E-1,-2.247798336E-1,3.537507795E0
1.530875546E1,-2.482305597E0,6.555564898E-1,5.127212906E-1,2.618105901E0
1.531873446E1,-1.241895395E0,5.361733031E-1,8.885908377E-1,1.618449771E0
1.532871246E1,-9.089789093E-2,2.337430304E-1,8.441847432E-1,8.806509589E-1
1.533869146E1,5.994132793E-1,-6.416500568E-2,7.207950443E-1,9.396589399E-1
1.534866946E1,6.934838694E-1,-3.195713854E-1,8.327002269E-1,1.129794413E0
1.535864846E1,1.286720735E-1,-4.620662767E-1,8.872757989E-1,1.008622868E0
1.536862646E1,-9.531733346E-1,-5.086966521E-1,3.911009226E-1,1.149030731E0
1.537860546E1,-1.958289825E0,-4.675334233E-1,-2.970408940E-1,2.035121577E0
1.538858346E1,-2.456584865E0,-4.303644276E-1,-7.342909297E-1,2.599847286E0
1.539856146E1,-2.286943690E0,-4.404742634E-1,-8.339661491E-1,2.473788301E0
1.540854046E1,-1.754886242E0,-5.170838982E-1,-7.086076927E-1,1.961919046E0
1.541851846E1,-1.313195173E0,-6.246861148E-1,-5.738288238E-1,1.563327804E0
1.542849746E1,-1.012495092E0,-6.392094290E-1,-4.582165064E-1,1.282067616E0
1.543847546E1,-9.399919564E-1,-6.190944225E-1,-3.256811410E-1,1.171721378E0
1.544845446E1,-1.120656302E0,-6.290674335E-1,-2.842396213E-1,1.316202319E0
1.545843246E1,-1.460706975E0,-5.751128358E-1,-3.986509206E-1,1.619673485E0
1.546841146E1,-2.085014191E0,-5.190368682E-1,-5.367720580E-1,2.214680042E0
1.547838946E1,-2.505102137E0,-3.691896880E-1,-5.885152753E-1,2.599651509E0
1.548836846E1,-2.490427964E0,-3.196380436E-1,-5.365007837E-1,2.567534423E0
1.549834646E1,-2.205469172E0,-4.101412475E-1,-4.490802320E-1,2.287790018E0
1.550832546E1,-1.808291202E0,-4.743246719E-1,-4.779011579E-1,1.929582981E0
1.551830346E1,-1.309711402E0,-5.154542792E-1,-5.601019003E-1,1.514843625E0
1.552828246E1,-8.204824698E-1,-5.828454861E-1,-6.045343073E-1,1.174036657E0
1.553826046E1,-4.610868680E-1,-6.577053416E-1,-6.646588504E-1,1.042568369E0
1.554823946E1,-3.957033026E-1,-7.119315425E-1,-9.815738457E-1,1.275505719E0
1.555821746E1,-6.132021832E-1,-6.408326161E-1,-1.416547633E0,1.671314021E0
1.556819646E1,-1.134487306E0,-5.936730677E-1,-1.784350362E0,2.196227532E0
1.557817446E1,-1.800659416E0,-4.926694340E-1,-1.807700048E0,2.598629825E0
1.558815346E1,-2.353585576E0,-2.821313712E-1,-1.573973390E0,2.845409533E0
1.559813146E1,-2.620011619E0,-1.246465579E-1,-1.217003798E0,2.891555964E0
1.560810946E1,-2.643051987E0,-1.830470860E-3,-9.854482108E-1,2.820786297E0
1.561808846E1,-2.398023246E0,-4.991183281E-3,-9.758215012E-1,2.588970452E0
1.562806646E1,-2.108170334E0,-6.761866361E-2,-1.075315238E0,2.367542460E0
1.563804546E1,-1.993397092E0,-2.223915383E-1,-1.145264309E0,2.309701345E0
1.564802346E1,-2.188682985E0,-4.417583120E-1,-1.405512768E0,2.638361188E0
1.565800246E1,-2.788800854E0,-5.657198685E-1,-1.824231881E0,3.380128863E0
1.566798046E1,-3.691706260E0,-5.695117879E-1,-2.197434513E0,4.333792476E0
1.567795946E1,-4.757175372E0,-6.631707340E-1,-2.505668732E0,5.417461466E0
1.568793746E1,-6.028063016E0,-7.738003466E-1,-2.958715094E0,6.759460460E0
1.569791646E1,-7.425452247E0,-8.332641909E-1,-3.676374276E0,8.327508517E0
1.570789446E1,-9.067983656E0,-1.034845781E0,-4.684861102E0,1.025900370E1
1.571787346E1,-1.097285683E1,-1.289125110E0,-5.995429121E0,1.257022676E1
1.572785146E1,-1.253980303E1,-1.720221317E0,-7.112275377E0,1.451861848E1
1.573783046E1,-1.375994854E1,-2.119673561E0,-7.863694044E0,1.598958673E1
1.574780846E1,-1.501035923E1,-2.611008953E0,-8.574583905E0,1.748289854E1
1.575778746E1,-1.572440718E1,-3.421139805E0,-8.984470798E0,1.843046104E1
1.576776546E1,-1.578239986E1,-4.309378640E0,-8.807015405E0,1.858005409E1
1.577774346E1,-1.567423573E1,-5.840072109E0,-7.903345767E0,1.850002655E1
1.578772246E1,-1.471702431E1,-7.417319355E0,-5.571073877E0,1.739667483E1
1.579770046E1,-1.307299426E1,-8.664146292E0,-1.468829781E0,1.575208147E1
1.580768246E1,-1.119048201E1,-9.707685421E0,3.310713383E0,1.517981775E1
1.581766046E1,-8.530879476E0,-1.043809153E1,7.414401594E0,1.538515552E1
1.582763946E1,-5.296879224E0,-1.070402992E1,9.665622890E0,1.536416128E1
1.583761746E1,-1.807281972E0,-1.141016307E1,9.718006926E0,1.509628259E1
1.584759646E1,1.691195446E0,-1.102610157E1,8.568126240E0,1.406583965E1
1.585757446E1,2.789077135E0,-9.570029685E0,8.568684064E0,1.314483800E1
1.586755346E1,3.644590566E0,-8.286707937E0,1.081217651E1,1.410162153E1
1.587753146E1,4.641484409E0,-7.200316903E0,1.420604432E1,1.658914212E1
1.588751046E1,5.061697193E0,-5.914972603E0,1.628376820E1,1.804906607E1
1.589748846E1,5.303846766E0,-4.732134086E0,1.603962823E1,1.754404621E1
1.590746746E1,6.430368410E0,-4.169295725E0,1.442591132E1,1.633522519E1
1.591744546E1,7.662733428E0,-3.756522061E0,1.280490410E1,1.538812888E1
1.592742446E1,9.275180912E0,-3.171219867E0,1.174168382E1,1.529551423E1
1.593740246E1,1.093891257E1,-2.749335072E0,1.156605335E1,1.615525430E1
1.594738146E1,1.186935778E1,-2.264733626E0,1.140324347E1,1.661459100E1
1.595735946E1,1.163263910E1,-1.854639741E0,1.069621804E1,1.591122438E1
1.596733746E1,1.047268015E1,-1.700950356E0,9.335118381E0,1.413204504E1
1.597731646E1,8.937508301E0,-1.832466515E0,7.450933828E0,1.177936344E1
1.598729446E1,7.093292391E0,-1.973004928E0,5.537275801E0,9.212435546E0
1.599727346E1,5.484077833E0,-1.935847042E0,3.828182613E0,6.962585408E0
1.600725146E1,4.281516073E0,-1.840696471E0,2.434241631E0,5.257858470E0
1.601723046E1,3.385590780E0,-1.591868209E0,1.361841230E0,3.981316473E0
1.602720846E1,2.826425348E0,-1.153709443E0,6.780350871E-1,3.127212386E0
1.603718746E1,2.627147561E0,-6.829226285E-1,4.983169672E-1,2.759820179E0
1.604716546E1,2.701694883E0,-3.128482568E-1,6.651435846E-1,2.799900937E0
1.605714446E1,2.928755130E0,-1.610866982E-1,9.020762712E-1,3.068761499E0
1.606712246E1,3.015015302E0,-3.871628594E-1,9.982015729E-1,3.199471633E0
1.607710146E1,2.550900161E0,-9.334606165E-1,4.572195196E-1,2.754539897E0
1.608707946E1,2.050318275E0,-1.052993492E0,-9.743537039E-2,2.306966401E0
1.609705846E1,1.599668979E0,-9.273508608E-1,5.307649210E-2,1.849793928E0
1.610703646E1,1.318701204E0,-6.368611872E-1,8.075893593E-1,1.672353315E0
1.611701546E1,1.135214700E0,-2.788613158E-1,1.861368571E0,2.197992039E0
1.612699346E1,1.364361818E0,-1.099498737E-1,2.715289074E0,3.040783929E0
1.613697246E1,1.968570984E0,-4.282091439E-2,3.056025041E0,3.635435930E0
