"Time (s)","Linear Acceleration x (m/s^2)","Linear Acceleration y (m/s^2)","Linear Acceleration z (m/s^2)","Absolute acceleration (m/s^2)"
-6.303750270E-4,-3.353477762E-2,-1.501186372E-1,-7.897717237E-2,1.729091678E-1
9.315624979E-3,-4.754010164E-2,-1.394232393E-1,9.929156899E-3,1.476397273E-1
1.926162498E-2,-2.319584054E-2,-1.457839501E-1,-3.702456951E-3,1.476641978E-1
2.920762499E-2,-2.353081747E-2,-1.527006763E-1,-1.927710056E-2,1.557010036E-1
3.915362500E-2,-2.664113421E-2,-1.598305883E-1,-4.727532327E-2,1.687913599E-1
4.909862499E-2,-2.578221477E-2,-1.649782577E-1,-3.635506332E-2,1.708924772E-1
5.904462500E-2,-2.483789401E-2,-1.642760620E-1,-2.034831047E-2,1.673845849E-1
6.899062498E-2,-2.427684453E-2,-1.684734309E-1,-2.559501708E-2,1.721271826E-1
7.893662498E-2,-2.703414932E-2,-1.698462475E-1,-4.581118047E-2,1.779810587E-1
8.888262499E-2,-1.161361982E-2,-1.577241837E-1,-3.713742077E-2,1.624530157E-1
9.882862499E-2,2.723154539E-3,-1.549847266E-1,-7.807202339E-3,1.552051335E-1
1.087746250E-1,-3.336201981E-4,-1.476990777E-1,-1.230838895E-3,1.477045829E-1
1.187196250E-1,-1.863993107E-2,-1.452800297E-1,-3.432081699E-2,1.504382018E-1
1.286656250E-1,-2.906939150E-2,-1.476803118E-1,-3.822090983E-2,1.552911522E-1
1.386116250E-1,-3.160694148E-2,-1.478368710E-1,-4.107259691E-2,1.566578992E-1
1.485576250E-1,-2.939901915E-2,-1.516674916E-1,-2.775965631E-2,1.569647376E-1
1.585036250E-1,-2.324070878E-2,-1.489752508E-1,-2.761756897E-2,1.532856353E-1
1.684496250E-1,-3.039793829E-2,-1.500850523E-1,-3.720466375E-2,1.575872602E-1
1.783946250E-1,-2.123482145E-2,-1.530207565E-1,-3.571420848E-2,1.585615788E-1
1.883406250E-1,-3.745473272E-2,-1.494102471E-1,-3.078266680E-2,1.570791250E-1
1.982866250E-1,-4.872556066E-2,-1.511048981E-1,-2.001794279E-2,1.600237123E-1
2.082326250E-1,-4.072069046E-2,-1.446072528E-1,-3.768998265E-2,1.548869490E-1
2.181786250E-1,-3.807437770E-2,-1.471923068E-1,-4.637894511E-2,1.589535780E-1
2.281246250E-1,-3.222153867E-2,-1.402297713E-1,-3.321276963E-2,1.476675468E-1
2.380696250E-1,-2.360494692E-2,-1.409576400E-1,-1.615644157E-2,1.438307353E-1
2.480156250E-1,-3.188183371E-2,-1.354098566E-1,-3.218132079E-2,1.427862668E-1
2.579580000E-1,-3.157302992E-2,-1.335023670E-1,-3.308646977E-2,1.411185767E-1
2.679040000E-1,-4.165742354E-2,-1.352699072E-1,-3.114636362E-2,1.449254453E-1
2.778500000E-1,-3.710150151E-2,-1.460276328E-1,-3.175038099E-2,1.539762243E-1
2.877960000E-1,-3.685502767E-2,-1.470654039E-1,-4.882015765E-2,1.592794208E-1
2.977420000E-1,-3.227695017E-2,-1.428748141E-1,-5.062110007E-2,1.549758362E-1
3.076870000E-1,-2.792033368E-2,-1.366757240E-1,-3.745726347E-2,1.444397630E-1
3.176330000E-1,-2.252269354E-2,-1.367273988E-1,-1.560972691E-2,1.394464660E-1
3.275790000E-1,-3.233174041E-2,-1.425190111E-1,-1.935779214E-2,1.474168717E-1
3.375250000E-1,-3.216675300E-2,-1.445028982E-1,-2.954364181E-2,1.509589824E-1
3.474710000E-1,-3.400359641E-2,-1.352065928E-1,-3.374018848E-2,1.434415129E-1
3.574170000E-1,-2.499198185E-2,-1.394986684E-1,-1.877716362E-2,1.429582439E-1
3.673620000E-1,-1.180663618E-2,-1.466767286E-1,-3.016110778E-2,1.502103584E-1
3.773080000E-1,-1.325792766E-2,-1.398168848E-1,-3.885065496E-2,1.457185894E-1
3.872540000E-1,-1.864420456E-2,-1.386554999E-1,-3.481607616E-2,1.441704310E-1
3.972000000E-1,-2.428376069E-2,-1.382736767E-1,-2.359585404E-2,1.423589654E-1
4.071460000E-1,-2.861307114E-2,-1.444181684E-1,-1.836435020E-2,1.483663188E-1
4.170920000E-1,-2.670076210E-2,-1.485024303E-1,-2.824789882E-2,1.535051995E-1
4.270380000E-1,-2.276887959E-2,-1.431402960E-1,-2.376133025E-2,1.468746644E-1
4.369830000E-1,-1.314128599E-2,-1.454118479E-1,-2.556461155E-2,1.482256667E-1
4.469290000E-1,-1.391900793E-2,-1.429865325E-1,-2.123182476E-2,1.452228551E-1
4.568750000E-1,-1.959922504E-2,-1.457993721E-1,-2.692525864E-2,1.495545255E-1
4.668210000E-1,-2.327037427E-2,-1.453990023E-1,-3.905413806E-2,1.523404276E-1
4.767670000E-1,-3.425864008E-2,-1.355415103E-1,-4.310275018E-2,1.462976504E-1
4.867130000E-1,-3.148657564E-2,-1.373192284E-1,-2.649314940E-2,1.433522301E-1
4.966580000E-1,-2.672141693E-2,-1.349685563E-1,-2.769709110E-2,1.403484028E-1
5.066040000E-1,-2.906125108E-2,-1.384862778E-1,-3.219126105E-2,1.451181682E-1
5.165500000E-1,-2.897640707E-2,-1.276839489E-1,-2.112248182E-2,1.326234602E-1
5.264960000E-1,-3.589156413E-2,-1.278559484E-1,-8.854438663E-3,1.330930088E-1
5.364420000E-1,-4.935234563E-2,-1.347666812E-1,-1.829476833E-2,1.446803750E-1
5.463880000E-1,-4.321049427E-2,-1.367692612E-1,-3.087505281E-2,1.467182555E-1
5.563330000E-1,-4.016451975E-2,-1.319100057E-1,-4.719697058E-2,1.457428979E-1
5.662790000E-1,-3.967214765E-2,-1.243363083E-1,-5.603503704E-2,1.420328209E-1
5.762250000E-1,-3.661415893E-2,-1.223958732E-1,-3.164045334E-2,1.316148346E-1
5.861710000E-1,-3.249691968E-2,-1.158795351E-1,-4.436984181E-2,1.282684657E-1
5.961170000E-1,-3.210057896E-2,-1.162637520E-1,-2.072487116E-2,1.223814834E-1
6.060630000E-1,-3.353332724E-2,-1.200654106E-1,-2.312339902E-2,1.267867439E-1
6.160090000E-1,-2.873289338E-2,-1.251125079E-1,-6.064732075E-3,1.285126444E-1
6.259540000E-1,-2.530972777E-2,-1.314817337E-1,-3.271517158E-2,1.378343610E-1
6.359000000E-1,-2.566385890E-2,-1.303164567E-1,-3.811039746E-2,1.381789236E-1
6.458460000E-1,-1.733394061E-2,-1.327700946E-1,-4.664850175E-2,1.417901486E-1
6.557920000E-1,-1.658906244E-2,-1.445449434E-1,-2.659547567E-2,1.479045536E-1
6.657380000E-1,-2.196042894E-2,-1.420214678E-1,-2.300996304E-2,1.455397408E-1
6.756840000E-1,-2.292088893E-2,-1.444206169E-1,-2.391277313E-2,1.481705182E-1
6.856290000E-1,-2.646599182E-2,-1.324881309E-1,-2.212060153E-2,1.369046185E-1
6.955750000E-1,-2.891066701E-2,-1.381316076E-1,-1.703410864E-2,1.421489660E-1
7.055210000E-1,-1.179539513E-2,-1.282859197E-1,-2.856423318E-2,1.319557652E-1
7.154670000E-1,-2.313283222E-2,-1.249884738E-1,-2.946704328E-2,1.304820032E-1
7.254130000E-1,-2.140539798E-2,-1.272952369E-1,-4.758756459E-2,1.375748695E-1
7.353590000E-1,-2.372475774E-2,-1.297106669E-1,-3.621765375E-2,1.367458946E-1
7.453050000E-1,-2.227737544E-2,-1.392598096E-1,-1.900871336E-2,1.423056823E-1
7.552500000E-1,-3.627830948E-2,-1.337464974E-1,-1.542086184E-2,1.394347312E-1
7.651960000E-1,-3.686990381E-2,-1.322765073E-1,-3.039148808E-2,1.406417674E-1
7.751420000E-1,-3.497911298E-2,-1.327434441E-1,-2.291172981E-2,1.391736600E-1
7.850880000E-1,-2.239241940E-2,-1.283983598E-1,-1.992263317E-2,1.318501823E-1
7.950340000E-1,-3.785488099E-2,-1.205354902E-1,-4.283026993E-2,1.334025053E-1
8.049800000E-1,-2.790135993E-2,-1.144009387E-1,-4.058961689E-2,1.245535132E-1
8.149250000E-1,-3.068157849E-2,-1.212499651E-1,-3.505405784E-2,1.298911093E-1
8.248710000E-1,-2.648227495E-2,-1.210344404E-1,-2.892208278E-2,1.272286663E-1
8.348170000E-1,-3.027365298E-2,-1.212410938E-1,-3.551423371E-2,1.299121152E-1
8.447630000E-1,-4.254143575E-2,-1.239476786E-1,-3.357529700E-2,1.352778672E-1
8.547090000E-1,-3.244358668E-2,-1.283520024E-1,-2.145635784E-2,1.341163604E-1
8.646550000E-1,-3.895164734E-2,-1.203365113E-1,-2.565056562E-2,1.290583523E-1
8.746000000E-1,-3.841680983E-2,-1.289591261E-1,-2.849757493E-2,1.375442447E-1
8.845460000E-1,-3.488168375E-2,-1.282819180E-1,-4.526621997E-2,1.404350847E-1
8.944920000E-1,-3.122630145E-2,-1.181693687E-1,-4.137782156E-2,1.290395510E-1
9.044380000E-1,-2.611285198E-2,-1.145285268E-1,-3.030611873E-2,1.213141596E-1
9.143840000E-1,-1.731753186E-2,-1.127693371E-1,-2.881566346E-2,1.176739681E-1
9.243300000E-1,-1.784944462E-2,-1.148909354E-1,-2.088625431E-2,1.181302896E-1
9.342760000E-1,-2.906533500E-2,-1.188630220E-1,-2.208902657E-2,1.243428197E-1
9.442210000E-1,-3.104062951E-2,-1.158176642E-1,-2.897997022E-2,1.233575725E-1
9.541670000E-1,-2.891412509E-2,-1.232179095E-1,-2.509157181E-2,1.290281629E-1
9.641130000E-1,-3.753622144E-2,-1.310665540E-1,-5.099064410E-2,1.455591127E-1
9.740590000E-1,-2.883042768E-2,-1.269016645E-1,-4.949784994E-2,1.392309705E-1
9.840050000E-1,-2.053564064E-2,-1.266059507E-1,-3.273972988E-2,1.323732193E-1
9.939510000E-1,-2.013119833E-2,-1.175096018E-1,-1.552903533E-2,1.202286263E-1
1.003896000E0,-2.508039358E-2,-1.187355802E-1,-2.137098849E-2,1.232229008E-1
1.013842000E0,-3.239805606E-2,-1.207857236E-1,-2.886068702E-2,1.283423715E-1
1.023788000E0,-3.271129780E-2,-1.217766713E-1,-3.185738504E-2,1.300556791E-1
1.033734000E0,-2.349884508E-2,-1.211162101E-1,-1.764221907E-2,1.246297715E-1
1.043680000E0,-1.679063492E-2,-1.168593274E-1,-2.348534167E-2,1.203727091E-1
1.053626000E0,-1.743940177E-2,-1.153469816E-1,-4.504753411E-2,1.250533456E-1
1.063571000E0,-2.198267348E-2,-1.172879740E-1,-4.534866571E-2,1.276566029E-1
1.073517000E0,-2.200558726E-2,-1.272249424E-1,-2.259948850E-2,1.310769573E-1
1.083463000E0,-2.871236874E-2,-1.199759299E-1,-1.512089968E-2,1.242870286E-1
1.093409000E0,-3.252570808E-2,-1.178206005E-1,-3.158958256E-2,1.262438803E-1
1.103355000E0,-3.031913335E-2,-1.254065406E-1,-3.638488412E-2,1.340518932E-1
1.113301000E0,-1.799571066E-2,-1.230609666E-1,-3.144632578E-2,1.282837422E-1
1.123246000E0,-1.471720996E-2,-1.203514947E-1,-2.740765393E-2,1.243071118E-1
1.133192000E0,-1.462824892E-2,-1.101686418E-1,-4.761972427E-2,1.209080371E-1
1.143138000E0,-1.903435203E-2,-1.148250994E-1,-4.268408954E-2,1.239719384E-1
1.153084000E0,-2.971253041E-2,-1.159668230E-1,-3.116332054E-2,1.237024295E-1
1.163030000E0,-2.790417162E-2,-1.075953827E-1,-2.368531644E-2,1.136503558E-1
1.172976000E0,-3.475707867E-2,-1.229691287E-1,-1.814917266E-2,1.290691815E-1
1.182922000E0,-3.027545967E-2,-1.153482699E-1,-2.683521152E-2,1.222372913E-1
1.192867000E0,-2.618744509E-2,-1.108691930E-1,-3.342619300E-2,1.187226626E-1
1.202813000E0,-3.261257121E-2,-1.177888977E-1,-2.579616129E-2,1.249129543E-1
1.212759000E0,-3.812683133E-2,-1.097297900E-1,-3.268535078E-2,1.206756572E-1
1.222705000E0,-4.893038680E-2,-1.085173698E-1,-4.960485399E-2,1.289606290E-1
1.232651000E0,-3.877953820E-2,-1.102450576E-1,-3.793030322E-2,1.228679503E-1
1.242597000E0,-3.677387928E-2,-1.011010630E-1,-3.463890553E-2,1.130203385E-1
1.252542000E0,-2.539917646E-2,-9.182994624E-2,-2.281758964E-2,9.797193265E-2
1.262491375E0,-2.708717398E-2,-1.004554664E-1,-1.414032161E-2,1.049998306E-1
1.272437375E0,-2.119666380E-2,-1.040077778E-1,-1.594126403E-2,1.073361090E-1
1.282383375E0,-3.385173325E-2,-1.117763429E-1,-4.019492984E-2,1.235132505E-1
1.292329375E0,-3.657808663E-2,-1.146524877E-1,-3.944999456E-2,1.266469559E-1
1.302275375E0,-3.777569918E-2,-1.211642577E-1,-2.912439644E-2,1.302152497E-1
1.312221375E0,-3.067025408E-2,-1.181606984E-1,-3.496634960E-2,1.269852776E-1
1.322166375E0,-1.910534774E-2,-1.176454673E-1,-2.419168532E-2,1.216170544E-1
1.332112375E0,-2.293782530E-2,-1.150141837E-1,-3.392437577E-2,1.220871392E-1
1.342058375E0,-1.357048761E-2,-1.111596352E-1,-2.794092000E-2,1.154180126E-1
1.352004375E0,-1.801681546E-2,-1.064413890E-1,-1.522030234E-2,1.090230826E-1
1.361950375E0,-1.526568679E-2,-1.101582447E-1,-2.779883265E-2,1.146326968E-1
1.371896375E0,-2.069896754E-2,-1.188777497E-1,-5.429665983E-2,1.323196656E-1
1.381841375E0,-1.695080180E-2,-1.090538244E-1,-4.382137299E-2,1.187450169E-1
1.391787375E0,-7.372715387E-3,-1.154326799E-1,-1.628332615E-2,1.168084211E-1
1.401733375E0,-1.280306339E-2,-1.180323246E-1,-2.601894021E-2,1.215423108E-1
1.411679375E0,-2.375248862E-2,-1.212548896E-1,-4.233968854E-2,1.306123202E-1
1.421625375E0,-2.719541599E-2,-1.168659421E-1,-3.156502426E-2,1.240709064E-1
1.431571375E0,-2.321930249E-2,-1.106266158E-1,-1.719841540E-2,1.143379623E-1
1.441516375E0,-2.624616849E-2,-1.055523472E-1,-2.648320913E-2,1.119442707E-1
1.451462375E0,-2.562451125E-2,-1.026910123E-1,-3.472018182E-2,1.113891853E-1
1.461408375E0,-2.491797803E-2,-1.000631091E-1,-3.697077513E-2,1.095461987E-1
1.471354375E0,-2.425140001E-2,-9.989887543E-2,-3.802268922E-2,1.096067544E-1
1.481300375E0,-2.489642555E-2,-9.984881778E-2,-2.919397831E-2,1.069668490E-1
1.491246375E0,-3.049708514E-2,-9.745350589E-2,-3.443717659E-2,1.077644521E-1
1.501192375E0,-4.519243085E-2,-9.519867335E-2,-4.581761241E-2,1.149103860E-1
1.511137375E0,-4.317986034E-2,-9.922709431E-2,-4.073053479E-2,1.156265240E-1
1.521083375E0,-3.425414503E-2,-1.020554565E-1,-2.561606705E-2,1.106564302E-1
1.531029375E0,-3.263975620E-2,-9.788344069E-2,-3.055696428E-2,1.076115687E-1
1.540975375E0,-3.720061638E-2,-9.486957561E-2,-4.492942035E-2,1.113677469E-1
1.550921375E0,-4.168754127E-2,-9.662421539E-2,-2.622066915E-2,1.084509732E-1
1.560867375E0,-3.169609782E-2,-9.470485772E-2,-3.385888696E-2,1.054517753E-1
1.570812375E0,-2.386371362E-2,-9.571943186E-2,-2.937231839E-2,1.029291968E-1
1.580758375E0,-2.410295839E-2,-9.716061520E-2,-4.449321806E-2,1.095480908E-1
1.590704375E0,-2.050057105E-2,-9.517016818E-2,-3.117384553E-2,1.022225169E-1
1.600650375E0,-1.540940038E-2,-1.068836395E-1,-2.474015415E-2,1.107864488E-1
1.610596375E0,-1.565482356E-2,-1.026220608E-1,-1.456482947E-2,1.048260231E-1
1.620542375E0,-2.361484836E-2,-1.134680611E-1,-3.343028605E-2,1.206244004E-1
1.630488375E0,-2.233373255E-2,-1.141965511E-1,-3.433075726E-2,1.213187899E-1
1.640433375E0,-2.941247003E-2,-1.163652925E-1,-1.936480880E-2,1.215770148E-1
1.650379375E0,-1.912729307E-2,-1.164970102E-1,-2.296026170E-2,1.202687837E-1
1.660325375E0,-2.373884131E-2,-1.064132949E-1,-3.508738697E-2,1.145357876E-1
1.670271375E0,-1.586475002E-2,-1.004702215E-1,-3.838404715E-2,1.087165616E-1
1.680217375E0,-9.801386101E-3,-9.881487474E-2,-2.955416679E-2,1.036045144E-1
1.690162375E0,-1.392628839E-2,-1.078872135E-1,-2.476880550E-2,1.115665097E-1
1.700108375E0,-1.765011052E-2,-1.060714338E-1,-2.731760681E-2,1.109456043E-1
1.710054375E0,-1.455246581E-2,-9.994959089E-2,-2.567453921E-2,1.042155312E-1
1.720000375E0,-1.314304244E-2,-9.726003614E-2,-2.777193546E-2,1.019977186E-1
1.729946375E0,-1.913878194E-2,-1.052283932E-1,-2.283571601E-2,1.093653402E-1
1.739892375E0,-1.926364740E-2,-1.063044088E-1,-2.568155587E-2,1.110461965E-1
1.749838375E0,-2.609513902E-2,-1.028429759E-1,-3.676086009E-2,1.122897805E-1
1.759783375E0,-3.221421137E-2,-1.022015364E-1,-4.290043652E-2,1.154268465E-1
1.769729375E0,-3.766498581E-2,-1.015933163E-1,-3.257600784E-2,1.131417225E-1
1.779675375E0,-3.657562440E-2,-9.442851283E-2,-3.183048785E-2,1.061494244E-1
1.789621375E0,-3.622539218E-2,-9.327346846E-2,-2.554531574E-2,1.032704319E-1
1.799567375E0,-3.401220506E-2,-9.222924711E-2,-2.195687950E-2,1.007232281E-1
1.809513375E0,-3.113510773E-2,-8.845885282E-2,-2.600081384E-2,9.731601048E-2
1.819458375E0,-3.513368504E-2,-8.737434964E-2,-3.079319179E-2,9.908013655E-2
1.829404375E0,-4.609929289E-2,-8.831446314E-2,-3.588553190E-2,1.058884347E-1
1.839350375E0,-4.852856888E-2,-9.279708484E-2,-2.600783050E-2,1.079014745E-1
1.849296375E0,-4.578404574E-2,-8.832232947E-2,-3.214857638E-2,1.045492405E-1
1.859242375E0,-3.260512058E-2,-8.429890607E-2,-3.738943577E-2,9.781293043E-2
1.869188375E0,-3.336591186E-2,-9.492858681E-2,-3.918745458E-2,1.079832268E-1
1.879134375E0,-2.787693638E-2,-9.207425022E-2,-3.170652688E-2,1.012921269E-1
1.889079375E0,-2.544797559E-2,-9.457345068E-2,-2.661944926E-2,1.014905519E-1
1.899025375E0,-2.722655013E-2,-9.391091547E-2,-1.360120833E-2,9.871949121E-2
1.908971375E0,-2.765316161E-2,-9.739084932E-2,-2.258545518E-2,1.037293481E-1
1.918917375E0,-2.764445246E-2,-1.006628872E-1,-3.456230700E-2,1.099626559E-1
1.928863375E0,-2.045393037E-2,-1.025141979E-1,-2.708079457E-2,1.079856170E-1
1.938809375E0,-2.355065918E-2,-1.009979418E-1,-2.648613274E-2,1.070361296E-1
1.948754375E0,-1.931553687E-2,-9.667669415E-2,-3.651820064E-2,1.051334967E-1
1.958700375E0,-2.022210654E-2,-1.081813559E-1,-2.933548093E-2,1.138978042E-1
1.968646375E0,-1.624060036E-2,-1.009598984E-1,-1.826085448E-2,1.038754879E-1
1.978592375E0,-1.829440745E-2,-1.010469123E-1,-1.482035279E-2,1.037535863E-1
1.988538375E0,-2.522121326E-2,-9.944330424E-2,-1.706743777E-2,1.040018163E-1
1.998484375E0,-2.115685020E-2,-1.028534826E-1,-4.251685917E-2,1.132878392E-1
2.008429375E0,-1.861840487E-2,-1.014172512E-1,-3.697954595E-2,1.095426431E-1
2.018375375E0,-1.813269768E-2,-9.512127997E-2,-3.249063849E-2,1.021395820E-1
2.028321375E0,-1.754237101E-2,-8.937929593E-2,-3.578671396E-2,9.786256801E-2
2.038267375E0,-2.467937280E-2,-8.953699716E-2,-3.563877940E-2,9.947898220E-2
2.048213375E0,-2.670337051E-2,-9.795158817E-2,-3.593932629E-2,1.076996694E-1
2.058159375E0,-2.696919270E-2,-8.574799228E-2,-2.261995375E-2,9.269151980E-2
2.068105375E0,-3.397171766E-2,-9.820000347E-2,-2.651536882E-2,1.072398390E-1
2.078050375E0,-2.409350691E-2,-9.478128266E-2,-3.160829365E-2,1.027768108E-1
2.087996375E0,-3.696310523E-2,-8.836114037E-2,-4.104160666E-2,1.042035304E-1
2.097942375E0,-3.225075419E-2,-9.064395731E-2,-4.283962548E-2,1.053170055E-1
2.107888375E0,-3.478562496E-2,-8.746224060E-2,-3.460733056E-2,1.002863429E-1
2.117834375E0,-3.472257324E-2,-8.794585101E-2,-3.565632105E-2,1.010519818E-1
2.127780375E0,-3.753683128E-2,-8.054146701E-2,-3.026986599E-2,9.387335297E-2
2.137725375E0,-3.088986043E-2,-8.330672493E-2,-3.566333771E-2,9.573958195E-2
2.147671375E0,-3.511133086E-2,-8.833838191E-2,-2.533715487E-2,9.837909681E-2
2.157617375E0,-3.550748885E-2,-8.483178841E-2,-3.207607090E-2,9.739655237E-2
2.167563375E0,-3.308604493E-2,-8.667092046E-2,-3.103117347E-2,9.782366048E-2
2.177509375E0,-3.823440183E-2,-9.067794425E-2,-2.729070961E-2,1.021231702E-1
2.187455375E0,-3.523679018E-2,-8.598116828E-2,-2.594760418E-2,9.647627088E-2
2.197400375E0,-3.099437027E-2,-8.533636658E-2,-2.505181074E-2,9.418354246E-2
2.207346375E0,-2.927072073E-2,-9.098993889E-2,-2.505356491E-2,9.881105801E-2
2.217292375E0,-1.601643273E-2,-9.155749340E-2,-3.433485031E-2,9.908674311E-2
2.227238375E0,-1.355607742E-2,-9.668649738E-2,-4.002594531E-2,1.055183506E-1
2.237184375E0,-1.416478170E-2,-9.045624342E-2,-3.898104787E-2,9.951128131E-2
2.247130375E0,-1.714925311E-2,-9.910550877E-2,-3.434128225E-2,1.062794543E-1
2.257075792E0,-2.007723949E-2,-9.758360644E-2,-2.581136405E-2,1.029168708E-1
2.267021792E0,-2.071354675E-2,-9.826069574E-2,-1.847720146E-2,1.021059368E-1
2.276967792E0,-1.635789414E-2,-1.024206060E-1,-1.802988946E-2,1.052741095E-1
2.286913792E0,-6.336008620E-3,-9.540138901E-2,-1.967997372E-2,9.761593823E-2
2.296859792E0,-1.419498623E-2,-9.941039538E-2,-2.087923765E-2,1.025664024E-1
2.306805792E0,-1.761646162E-2,-1.040953216E-1,-2.821690857E-2,1.092811495E-1
2.316751792E0,-2.648761967E-2,-9.610998019E-2,-3.705146670E-2,1.063556932E-1
2.326696792E0,-2.863182791E-2,-8.940456687E-2,-3.825014591E-2,1.013707641E-1
2.336642792E0,-2.823822579E-2,-8.157404875E-2,-3.226318181E-2,9.215549753E-2
2.346588792E0,-2.428169818E-2,-8.160541358E-2,-2.672762275E-2,8.923794154E-2
2.356534792E0,-3.096146826E-2,-7.969544800E-2,-3.226902902E-2,9.138526787E-2
2.366480792E0,-2.950351757E-2,-8.494272105E-2,-2.972782910E-2,9.470727127E-2
2.376426792E0,-4.032828290E-2,-7.979712560E-2,-1.161783278E-2,9.016055509E-2
2.386371792E0,-4.287246125E-2,-7.063538834E-2,-2.823561966E-2,8.731927758E-2
2.396317792E0,-3.883987416E-2,-7.397693505E-2,-3.602235675E-2,9.098754271E-2
2.406263792E0,-4.051101753E-2,-7.861825383E-2,-3.422960043E-2,9.483479278E-2
2.416209792E0,-4.140705307E-2,-8.410057582E-2,-2.944190025E-2,9.825617735E-2
2.426155792E0,-3.596956735E-2,-8.134938776E-2,-3.228832483E-2,9.462594034E-2
2.436101792E0,-4.218903137E-2,-7.195482169E-2,-3.243918300E-2,8.949699060E-2
2.446046792E0,-4.688120266E-2,-7.289006556E-2,-2.016587734E-2,8.898017437E-2
2.455992792E0,-3.461579532E-2,-8.253639995E-2,-1.582548916E-2,9.088980531E-2
2.465938792E0,-2.224465159E-2,-8.577028479E-2,-2.510911345E-2,9.209687213E-2
2.475884792E0,-2.018242770E-2,-8.611249309E-2,-2.930156708E-2,9.317335288E-2
2.485830792E0,-1.546835676E-2,-8.944668509E-2,-3.095048189E-2,9.590574469E-2
2.495776792E0,-1.431770467E-2,-8.905290253E-2,-4.412425876E-2,1.004109871E-1
2.505721792E0,-1.827809463E-2,-9.067723162E-2,-3.963418186E-2,1.006345738E-1
2.515667792E0,-2.150367003E-2,-9.840958047E-2,-4.008324802E-2,1.084136529E-1
2.525613792E0,-2.087391577E-2,-9.222777617E-2,-3.095282078E-2,9.949753852E-2
2.535559792E0,-2.212338581E-2,-9.380402106E-2,-1.448823094E-2,9.746049150E-2
2.545505792E0,-1.244927715E-2,-9.101613259E-2,-1.074835181E-2,9.249025873E-2
2.555451792E0,-1.385374638E-2,-8.660157613E-2,-3.080956399E-2,9.295691750E-2
2.565397792E0,-1.668607140E-2,-8.506646276E-2,-4.084104717E-2,9.582650572E-2
2.575342792E0,-2.355567271E-2,-8.571189486E-2,-2.886887312E-2,9.346020797E-2
2.585288792E0,-2.581072452E-2,-8.379862195E-2,-3.650416732E-2,9.497871747E-2
2.595234792E0,-3.255645393E-2,-8.154690488E-2,-4.997966051E-2,1.010335927E-1
2.605180792E0,-3.590785182E-2,-8.067380595E-2,-3.171939075E-2,9.382833548E-2
2.615126792E0,-3.915201497E-2,-8.088054157E-2,-3.905472279E-2,9.797863876E-2
2.625072792E0,-3.069304909E-2,-8.824809724E-2,-1.301005483E-2,9.433478391E-2
2.635017792E0,-3.819857850E-2,-8.322964218E-2,-2.064651847E-2,9.387536132E-2
2.644963792E0,-3.679974407E-2,-7.330550110E-2,-2.513951898E-2,8.578993571E-2
2.654909792E0,-2.939238621E-2,-7.094178244E-2,-2.723633051E-2,8.147678543E-2
2.664855792E0,-3.797669037E-2,-7.799655776E-2,-3.337532222E-2,9.294947105E-2
2.674801792E0,-3.236852990E-2,-7.276473415E-2,-3.397700071E-2,8.658443764E-2
2.684747792E0,-3.690455769E-2,-7.214749658E-2,-4.176432252E-2,9.116724345E-2
2.694692792E0,-3.167232523E-2,-8.189337068E-2,-3.952250004E-2,9.628960669E-2
2.704638792E0,-2.510073778E-2,-8.154490404E-2,-2.740005255E-2,8.961239474E-2
2.714584792E0,-2.868684656E-2,-8.561643907E-2,-1.991678596E-2,9.246506458E-2
2.724530792E0,-3.692209249E-2,-9.109012728E-2,-2.036643684E-2,1.003765109E-1
2.734476792E0,-1.885189835E-2,-8.844040669E-2,-2.904955208E-2,9.497881912E-2
2.744422792E0,-1.904638451E-2,-8.659154451E-2,-4.072761118E-2,9.756843063E-2
2.754367792E0,-2.599217093E-2,-8.529539038E-2,-2.995119274E-2,9.406365141E-2
2.764313792E0,-1.714232096E-2,-7.993366722E-2,-2.875485241E-2,8.666078617E-2
2.774259792E0,-1.435691641E-2,-7.766157626E-2,-3.594049573E-2,8.677073648E-2
2.784205792E0,-1.638001877E-2,-8.457367038E-2,-3.953419447E-2,9.478377113E-2
2.794151792E0,-2.076608489E-2,-8.665037298E-2,-2.995587051E-2,9.400463604E-2
2.804097792E0,-1.956565152E-2,-9.176489596E-2,-2.876011491E-2,9.813641047E-2
2.814043792E0,-6.439303339E-3,-8.977766491E-2,-2.442089617E-2,9.326239281E-2
2.823988792E0,-1.955472910E-2,-8.635991254E-2,-3.235439837E-2,9.427210095E-2
2.833934792E0,-1.869634414E-2,-9.245005259E-2,-3.220646381E-2,9.966855984E-2
2.843880792E0,-2.515740552E-2,-8.707624214E-2,-2.726965964E-2,9.465094471E-2
2.853826792E0,-2.461255237E-2,-8.943574897E-2,-3.804958642E-2,1.002611687E-1
2.863772792E0,-3.058019782E-2,-7.976056223E-2,-3.700293481E-2,9.309195975E-2
2.873718792E0,-3.344842155E-2,-7.975767517E-2,-2.323332667E-2,8.955373315E-2
2.883663792E0,-3.037687004E-2,-6.708930787E-2,-2.607858181E-2,7.812696009E-2
2.893609792E0,-2.428881534E-2,-6.587505131E-2,-3.880387723E-2,8.021975956E-2
2.903555792E0,-2.963812459E-2,-6.795751889E-2,-4.284722686E-2,8.563017957E-2
2.913501792E0,-4.096966764E-2,-7.272254284E-2,-3.237077057E-2,8.952624582E-2
2.923447792E0,-5.483846374E-2,-6.922953498E-2,-3.955816805E-2,9.677207386E-2
2.933393792E0,-4.579050508E-2,-8.110631718E-2,-3.551774204E-2,9.968206981E-2
2.943338792E0,-3.460914640E-2,-7.269587405E-2,-3.566918492E-2,8.806119390E-2
2.953284792E0,-3.738580181E-2,-7.405991983E-2,-3.671700597E-2,9.072325187E-2
2.963230792E0,-2.776696305E-2,-7.298805211E-2,-2.459397376E-2,8.187260551E-2
2.973176792E0,-2.495628186E-2,-7.470987439E-2,-2.264860511E-2,8.195938414E-2
2.983122792E0,-3.545710687E-2,-7.829641029E-2,-3.312681556E-2,9.211362658E-2
2.993068792E0,-3.174658259E-2,-7.990711721E-2,-2.968572915E-2,9.096282428E-2
3.003013792E0,-2.898353336E-2,-6.731150206E-2,-3.971662760E-2,8.335642761E-2
3.012959792E0,-2.281648872E-2,-7.398953397E-2,-3.867056072E-2,8.654741799E-2
3.022905792E0,-1.239796441E-2,-7.375491444E-2,-3.552826703E-2,8.279948480E-2
3.032851792E0,-1.735600700E-2,-8.284678660E-2,-2.714569867E-2,8.889156307E-2
3.042797792E0,-2.011169010E-2,-8.749218930E-2,-2.235565960E-2,9.251561373E-2
3.052743792E0,-1.214821864E-2,-8.521371209E-2,-1.696745038E-2,8.773169505E-2
3.062688792E0,-1.492983391E-2,-8.251100111E-2,-2.385488570E-2,8.717809826E-2
3.072634792E0,-2.236384342E-2,-8.743273957E-2,-3.762741745E-2,9.777754335E-2
3.082580792E0,-2.240981259E-2,-8.453626648E-2,-4.286710739E-2,9.739696579E-2
3.092526792E0,-1.717392561E-2,-7.897288746E-2,-3.089259446E-2,8.652174910E-2
3.102472792E0,-2.371887170E-2,-7.010468043E-2,-3.269061327E-2,8.090690508E-2
3.112418792E0,-1.748671739E-2,-7.434563854E-2,-3.942894459E-2,8.595173603E-2
3.122364792E0,-2.246612173E-2,-7.209895556E-2,-3.029968679E-2,8.136987795E-2
3.132309792E0,-2.881234699E-2,-7.172450535E-2,-2.536054373E-2,8.134932812E-2
3.142255792E0,-2.935590507E-2,-6.956258873E-2,-3.060081840E-2,8.146860131E-2
3.152201792E0,-3.230025224E-2,-7.678127795E-2,-3.269762993E-2,8.948634500E-2
3.162147792E0,-3.657647179E-2,-6.999134495E-2,-3.389572442E-2,8.593920404E-2
3.172093792E0,-3.863840560E-2,-6.902638991E-2,-2.880689263E-2,8.418673265E-2
3.182038792E0,-4.214140854E-2,-7.413362215E-2,-2.910802424E-2,9.010532350E-2
3.191984792E0,-4.023004054E-2,-6.957138696E-2,-2.371981502E-2,8.379298103E-2
3.201930792E0,-4.050855073E-2,-7.255754172E-2,-2.327367246E-2,8.629718056E-2
3.211876792E0,-4.081874552E-2,-6.763763965E-2,-3.075986266E-2,8.477729315E-2
3.221822792E0,-3.564581662E-2,-6.499805119E-2,-3.510200500E-2,8.202147070E-2
3.231768792E0,-2.970424837E-2,-6.372396117E-2,-2.687146425E-2,7.526726506E-2
3.241714792E0,-3.041686179E-2,-6.737499003E-2,-2.328010440E-2,7.750185820E-2
3.251659792E0,-2.810580691E-2,-6.804264156E-2,-2.597391665E-2,7.806652163E-2
3.261602125E0,-2.571680133E-2,-7.314210797E-2,-2.387827456E-2,8.112517380E-2
3.271548125E0,-2.115474658E-2,-7.886676963E-2,-2.418057561E-2,8.515979622E-2
3.281494125E0,-2.137694762E-2,-7.514165472E-2,-2.672645330E-2,8.256842902E-2
3.291440125E0,-1.390858001E-2,-7.518600220E-2,-2.942201972E-2,8.192703320E-2
3.301386125E0,-1.334208189E-2,-7.648539056E-2,-3.541190743E-2,8.533480712E-2
3.311331125E0,-1.286430041E-2,-7.949337188E-2,-2.688081980E-2,8.489561161E-2
3.321277125E0,-1.159741092E-2,-8.168262424E-2,-4.469377756E-2,9.383008470E-2
3.331223125E0,-2.052760300E-2,-7.352310888E-2,-4.574101388E-2,8.899028248E-2
3.341169125E0,-1.852401116E-2,-7.904668115E-2,-4.663914621E-2,9.363080022E-2
3.351115125E0,-2.020240417E-2,-8.171842930E-2,-3.301922679E-2,9.042294045E-2
3.361061125E0,-1.526007940E-2,-7.356550120E-2,-1.700311840E-2,7.703154565E-2
3.371006125E0,-1.856956920E-2,-8.587129544E-2,-1.939755321E-2,8.997206984E-2
3.380952125E0,-3.093482689E-2,-7.069765205E-2,-2.284156322E-2,8.047893222E-2
3.390898125E0,-4.095922031E-2,-6.547182184E-2,-2.658495069E-2,8.167604781E-2
3.400844125E0,-3.882354307E-2,-6.845939272E-2,-3.916055739E-2,8.790622960E-2
3.410790125E0,-3.889400658E-2,-7.123132012E-2,-3.362441361E-2,8.784785657E-2
3.420736125E0,-4.123496678E-2,-6.659353707E-2,-3.916465044E-2,8.757220740E-2
3.430681125E0,-3.575822705E-2,-6.733240586E-2,-2.404725909E-2,7.994106798E-2
3.440627125E0,-4.383058235E-2,-5.335013266E-2,-1.761122882E-2,7.125666274E-2
3.450573125E0,-3.465269902E-2,-6.594559249E-2,-2.180543661E-2,7.762156777E-2
3.460519125E0,-3.516371140E-2,-6.522848630E-2,-1.507236779E-2,7.562022412E-2
3.470465125E0,-3.809618598E-2,-6.814314972E-2,-3.722688317E-2,8.649074558E-2
3.480411125E0,-2.617998075E-2,-7.190842769E-2,-3.917517543E-2,8.597038871E-2
3.490356125E0,-3.221372258E-2,-7.691804797E-2,-2.944774747E-2,8.843800008E-2
3.500302125E0,-2.904207404E-2,-6.910572018E-2,-3.408809781E-2,8.234707669E-2
3.510248125E0,-2.128288739E-2,-6.815013897E-2,-4.426751554E-2,8.400604543E-2
3.520194125E0,-1.709201206E-2,-8.006500117E-2,-2.361105680E-2,8.520577029E-2
3.530140125E0,-2.316439348E-2,-7.971184761E-2,-2.032024384E-2,8.546040068E-2
3.540086125E0,-1.010077610E-2,-6.806931035E-2,-6.400362253E-3,6.911165839E-2
3.550031125E0,-1.267538396E-2,-7.555605786E-2,-1.268845797E-2,7.765552268E-2
3.559977125E0,-1.854197765E-2,-8.035385362E-2,-3.379456758E-2,8.912137524E-2
3.569923125E0,-1.324519626E-2,-7.797946380E-2,-4.457215548E-2,9.079046779E-2
3.579869125E0,-3.264902495E-3,-8.273385311E-2,-3.454476535E-2,8.971561098E-2
3.589815125E0,-1.230753128E-2,-7.822687411E-2,-2.751114964E-2,8.383187051E-2
3.599761125E0,-1.538200526E-2,-7.991624434E-2,-3.424655735E-2,8.829518043E-2
3.609706125E0,-2.191290661E-2,-7.842567944E-2,-2.481792212E-2,8.512750396E-2
3.619652125E0,-2.432131078E-2,-7.563391719E-2,-1.823278785E-2,8.151349668E-2
3.629598125E0,-3.287072350E-2,-7.391575855E-2,-1.943088233E-2,8.319605167E-2
3.639544125E0,-3.277593465E-2,-6.832907290E-2,-1.389239967E-2,7.704623848E-2
3.649490125E0,-3.841920353E-2,-6.192351211E-2,-4.038847268E-2,8.331737680E-2
3.659436125E0,-3.036591107E-2,-6.549156533E-2,-5.715419412E-2,9.207516272E-2
3.669381125E0,-4.025421969E-2,-7.098129683E-2,-3.470147073E-2,8.867321340E-2
3.679327125E0,-4.480275504E-2,-6.425875300E-2,-2.407474101E-2,8.195161591E-2
3.689273125E0,-5.394615579E-2,-6.441878398E-2,-1.958407938E-2,8.627574178E-2
3.699219125E0,-3.644357555E-2,-6.563324153E-2,-3.215793192E-2,8.167000171E-2
3.709165125E0,-3.289259803E-2,-6.150812225E-2,-1.808777690E-2,7.205789187E-2
3.719111125E0,-3.000086666E-2,-6.874092702E-2,-1.374680400E-2,7.625183059E-2
3.729056125E0,-2.987891110E-2,-6.821972997E-2,-3.867933154E-3,7.457641579E-2
3.739002125E0,-1.699520638E-2,-6.104071045E-2,-3.126096904E-2,7.065446595E-2
3.748948125E0,-2.336093759E-2,-6.276905604E-2,-5.461182475E-2,8.641839621E-2
3.758894125E0,-2.732889924E-2,-7.193585479E-2,-3.874423563E-2,8.615539294E-2
3.768840125E0,-2.458057541E-2,-7.829791778E-2,-1.958466411E-2,8.437018243E-2
3.778786125E0,-2.307433037E-2,-7.755580561E-2,-4.278758526E-2,9.153198981E-2
3.788731125E0,-2.713017842E-2,-8.240872052E-2,-7.916252911E-2,1.174476471E-1
3.798677125E0,-3.157733767E-2,-6.696676302E-2,-5.566198468E-2,9.262792312E-2
3.808623125E0,-4.023529390E-2,-6.648791260E-2,-1.210315168E-2,7.865117722E-2
3.818569125E0,-4.946294024E-2,-5.707042362E-2,1.124711931E-2,7.635517927E-2
3.828515125E0,-3.835482021E-2,-5.133323612E-2,4.959608316E-3,6.427123056E-2
3.838461125E0,-2.768886389E-2,-5.299994839E-2,-2.228490829E-2,6.381445644E-2
3.848406125E0,-1.741712867E-2,-5.721412808E-2,-4.923004746E-2,7.746231597E-2
3.858352125E0,-2.100974476E-2,-7.380849869E-2,-6.494911730E-2,1.005360219E-1
3.868298125E0,-2.993237886E-2,-8.033698806E-2,-6.285405993E-2,1.063043358E-1
3.878244125E0,-3.495521477E-2,-7.715441253E-2,-6.090869129E-2,1.043289945E-1
3.888190125E0,-3.836585683E-2,-8.901568134E-2,-2.812803090E-2,1.009302562E-1
3.898136125E0,-4.299078514E-2,-8.438812179E-2,4.802318215E-3,9.482945199E-2
3.908081125E0,-2.504755781E-2,-8.074682306E-2,2.107336521E-3,8.456873212E-2
3.918027125E0,-1.340975541E-2,-7.619239024E-2,-1.435842276E-2,7.868459935E-2
3.927973125E0,-6.230966588E-3,-6.655168380E-2,2.107921243E-3,6.687596648E-2
3.937919125E0,-1.286979474E-2,-5.533787535E-2,-2.979741096E-3,5.689280202E-2
3.947865125E0,-2.684242232E-2,-5.543972653E-2,-3.156970203E-2,6.921506339E-2
3.957811125E0,-3.637224180E-2,-6.088815294E-2,-7.004028797E-2,9.967923094E-2
3.967756125E0,-3.980746957E-2,-6.525061436E-2,-6.495087147E-2,1.003040030E-1
3.977702125E0,-2.903042529E-2,-5.841529235E-2,-2.902616322E-2,7.139768991E-2
3.987648125E0,-9.309756320E-3,-6.310579170E-2,4.802318215E-3,6.396932679E-2
3.997594125E0,-1.951401786E-2,-7.180080238E-2,-9.120486975E-3,7.496222647E-2
4.007540125E0,-2.808330655E-2,-7.068011041E-2,-2.738309562E-2,8.083429990E-2
4.017486125E0,-2.846903777E-2,-7.746877346E-2,-3.726313591E-2,9.055627130E-2
4.027431125E0,-3.208063219E-2,-6.934804159E-2,2.395896614E-2,8.007714963E-2
4.037377125E0,-1.174605697E-2,-6.820116506E-2,-1.181780756E-2,7.020704626E-2
4.047323125E0,-2.113951184E-4,-6.024552567E-2,-3.022893548E-2,6.740442561E-2
4.057269125E0,-7.397221159E-3,-6.043235335E-2,-9.833730340E-2,1.156590396E-1
4.067215125E0,-7.198681921E-3,-6.373042052E-2,-8.681127191E-2,1.079332407E-1
4.077161125E0,-2.129315657E-2,-7.582072659E-2,-1.720777094E-2,8.061196238E-2
4.087106125E0,-3.682170767E-2,-7.272759520E-2,7.937595248E-3,8.190327635E-2
4.097052125E0,-5.209906605E-2,-8.286367044E-2,-1.287030637E-2,9.872358051E-2
4.106998125E0,-3.940449592E-2,-7.659946608E-2,-2.724100828E-2,9.034525463E-2
4.116944125E0,-3.228548574E-2,-6.815235908E-2,-7.482681870E-3,7.578315885E-2
4.126890125E0,-3.451130832E-2,-6.051415955E-2,-1.077583373E-2,7.049193216E-2
4.136836125E0,-3.314492365E-2,-5.974610036E-2,-5.733078003E-2,8.919081125E-2
4.146781125E0,-4.658348802E-2,-4.998367134E-2,-7.858833253E-2,1.041370000E-1
4.156727125E0,-4.954057116E-2,-5.530442744E-2,-6.811070681E-2,1.007567182E-1
4.166673125E0,-4.826450771E-2,-5.507676062E-2,-3.024062991E-2,7.923009505E-2
4.176619125E0,-3.818448808E-2,-5.560308312E-2,-9.584171176E-3,6.812939394E-2
4.186565125E0,-2.317556258E-2,-6.038721101E-2,-1.497413456E-2,6.639236900E-2
4.196511125E0,-1.627484312E-2,-6.064408651E-2,-4.805768073E-2,7.907032581E-2
4.206456125E0,-1.212455797E-2,-6.773985629E-2,-3.847701788E-2,7.884271647E-2
4.216402125E0,-2.025635158E-2,-6.834995843E-2,7.468531609E-2,1.032469517E-1
4.226348125E0,-8.386043570E-3,-7.367114394E-2,-1.040453553E-1,1.277622759E-1
4.236294125E0,-2.044045665E-2,-7.593598070E-2,-5.120640635E-2,9.384125683E-2
4.246240125E0,-2.087879911E-2,-6.893562103E-2,8.518223763E-3,7.253002299E-2
4.256185125E0,2.289906694E-3,-6.327014415E-2,-3.519146740E-2,7.243475817E-2
4.266130792E0,-9.436845324E-3,-6.769225630E-2,-3.308939338E-3,6.842692958E-2
4.276076792E0,-2.996121523E-2,-6.798276242E-2,-4.626960218E-2,8.752260559E-2
4.286022792E0,-5.217436266E-2,-7.800508191E-2,-6.722660780E-2,1.154399139E-1
4.295968792E0,-4.856287102E-2,-5.866871433E-2,-7.650496960E-3,7.654345555E-2
4.305914792E0,-4.582782220E-2,-6.178657763E-2,2.975648046E-3,7.698457601E-2
4.315860792E0,-4.803273870E-2,-5.378099022E-2,-4.372898698E-2,8.433127058E-2
4.325805792E0,-2.294949460E-2,-4.939122048E-2,-5.899782121E-2,8.029268255E-2
4.335751792E0,-2.126553532E-2,-4.066151937E-2,4.099365950E-2,6.153098625E-2
4.345697792E0,-2.600943848E-2,-4.730866154E-2,-4.724550247E-4,5.398910594E-2
4.355643792E0,-4.137086886E-2,-4.984432488E-2,-5.391249776E-2,8.427670454E-2
4.365589792E0,-4.867854539E-2,-6.156413675E-2,-6.109872580E-2,9.946254576E-2
4.375534792E0,-3.761078257E-2,-6.315610517E-2,-4.837576926E-2,8.799704334E-2
4.385480792E0,-3.233024663E-2,-6.563274818E-2,-3.280872703E-2,8.018300973E-2
4.395426792E0,-1.347337586E-2,-7.954687390E-2,3.115396500E-3,8.073996966E-2
4.405372792E0,-1.537554820E-2,-7.335735859E-2,-3.610363305E-2,8.319364075E-2
4.415318792E0,-2.136696853E-2,-9.086564901E-2,-5.795877099E-2,1.098741673E-1
4.425264792E0,-2.716647227E-2,-8.403691426E-2,-4.388861597E-2,9.862266872E-2
4.435209792E0,-1.735550679E-2,-8.292831872E-2,-3.206379175E-2,9.058921792E-2
4.445155792E0,-2.624394838E-5,-5.465148532E-2,3.649247289E-2,6.571518937E-2
4.455101792E0,9.247789539E-3,-5.113433029E-2,-4.059780300E-2,6.594257315E-2
4.465047792E0,1.100208443E-3,-3.069122183E-2,5.220978856E-2,6.057246551E-2
4.474993792E0,-1.130591352E-2,-3.824065332E-2,-2.457994044E-2,4.684383331E-2
4.484939792E0,-3.857642968E-2,-5.102767342E-2,-9.014476955E-2,1.105352607E-1
4.494884792E0,-7.461924255E-2,-7.000268307E-2,-9.269123197E-2,1.380582177E-1
4.504830792E0,-9.117940695E-2,-8.096778385E-2,-1.118537271E-1,1.654712136E-1
4.514776792E0,-8.290176870E-2,-8.189362650E-2,-5.736820221E-2,1.298860267E-1
4.524722792E0,-6.431273011E-2,-7.100299548E-2,-4.680111408E-3,9.591379496E-2
4.534668792E0,-4.886503046E-2,-5.908711002E-2,2.480622768E-2,8.058800596E-2
4.544614792E0,-4.124425837E-2,-3.686353354E-2,-1.830353916E-2,5.826687308E-2
4.554559792E0,-4.248686022E-2,-2.545798209E-2,5.070296109E-2,7.088040919E-2
4.564505792E0,-4.764085648E-2,-1.362309884E-2,6.746809781E-2,8.370892575E-2
4.574451792E0,-3.699871385E-2,-2.311054428E-2,-6.665533483E-2,7.966138177E-2
4.584397792E0,-3.734796165E-2,-3.611744709E-2,-1.826664323E-1,1.899114681E-1
4.594343792E0,-3.546539119E-2,-6.255100057E-2,-1.834166300E-1,1.970078217E-1
4.604289792E0,-2.016456629E-2,-7.371846984E-2,-5.558421671E-2,9.450199827E-2
4.614234792E0,-1.984301054E-2,-9.254861472E-2,1.147457600E-2,9.534493719E-2
4.624180792E0,-2.712056934E-2,-1.082661405E-1,8.511967242E-2,1.403653843E-1
4.634126792E0,-2.502558735E-2,-9.949231122E-2,8.077928424E-2,1.305767697E-1
4.644072792E0,-1.174314021E-2,-9.736485662E-2,7.449469686E-2,1.231554973E-1
4.654018792E0,6.386165625E-3,-7.657760298E-2,4.156376302E-2,8.736394443E-2
4.663964792E0,3.229059977E-2,-7.365864552E-2,-1.042324662E-1,1.316536589E-1
4.673909792E0,3.546478819E-2,-5.680859626E-2,-2.006331718E-1,2.115150998E-1
4.683855792E0,3.073181430E-2,-4.900708582E-2,-1.373160124E-1,1.490027722E-1
4.693801792E0,1.221699765E-2,-5.210279365E-2,-2.849465132E-2,6.062921154E-2
4.703747792E0,-7.425890788E-3,-7.644269675E-2,-9.637965560E-3,7.740491018E-2
4.713693792E0,-2.669841408E-2,-8.572094891E-2,-7.834801197E-2,1.191608047E-1
4.723638792E0,-2.576323416E-2,-9.050230851E-2,1.820121288E-2,9.584203791E-2
4.733584792E0,-3.455822080E-2,-7.127999819E-2,1.644459236E-1,1.825310126E-1
4.743530792E0,-2.641815886E-2,-7.662160328E-2,1.056591868E-2,8.173388431E-2
4.753476792E0,-5.053912941E-2,-5.784961078E-2,2.014541209E-2,7.941422226E-2
4.763422792E0,-6.238647454E-2,-4.491380646E-2,-1.165198052E-1,1.395929340E-1
4.773368792E0,-5.821513485E-2,-2.780566659E-2,-9.706085622E-2,1.165459859E-1
4.783313792E0,-7.114689181E-2,-4.299475942E-3,-3.224680960E-2,7.823185052E-2
4.793259792E0,-7.389364420E-2,-5.733295446E-3,-1.002060735E-1,1.246370671E-1
4.803205792E0,-7.459907422E-2,-2.166394313E-2,-1.424194622E-1,1.622271602E-1
4.813151792E0,-6.245743142E-2,-3.398975495E-2,2.030737996E-3,7.113619387E-2
4.823097792E0,-6.956591433E-2,-3.656662289E-2,1.527661103E-1,1.717964458E-1
4.833043792E0,-8.048304968E-2,-6.155014912E-2,4.334365547E-2,1.102026071E-1
4.842988792E0,-8.189588316E-2,-7.499226750E-2,-4.901311576E-2,1.213798228E-1
4.852934792E0,-6.146215766E-2,-7.459599073E-2,-7.655525565E-2,1.232999020E-1
4.862880792E0,-3.744040248E-2,-7.129734797E-2,-8.014661551E-2,1.136159124E-1
4.872826792E0,-2.775854854E-3,-5.879093941E-2,-7.221194386E-2,9.315924411E-2
4.882772792E0,1.769376935E-2,-6.025110793E-2,-9.137326956E-2,1.108708252E-1
4.892718792E0,2.488470828E-2,-6.429024573E-2,-9.406883597E-2,1.166251701E-1
4.902663792E0,1.854771637E-2,-7.695549756E-2,2.628206491E-2,8.340811306E-2
4.912609792E0,1.445573093E-2,-7.250264185E-2,1.134003156E-1,1.353707236E-1
4.922555792E0,1.036154251E-2,-9.298305371E-2,1.265922189E-2,9.441115262E-2
4.932501792E0,6.123629068E-3,-1.031409646E-1,-8.478813529E-2,1.336584652E-1
4.942447792E0,1.764718235E-3,-1.014550022E-1,-6.353233695E-2,1.197187936E-1
4.952393792E0,1.096342885E-2,-9.637066551E-2,-4.272735894E-2,1.059864574E-1
4.962338792E0,-1.549516602E-2,-8.718303605E-2,-8.179786921E-2,1.205482200E-1
4.972284792E0,-2.524399684E-2,-7.733694616E-2,-9.227724910E-2,1.230176951E-1
4.982230792E0,-3.515432845E-2,-5.471911202E-2,-3.360102475E-2,7.320544306E-2
4.992176792E0,-3.820446911E-2,-4.653849187E-2,4.004348695E-2,7.231108859E-2
5.002122792E0,-3.832751188E-2,-1.983750137E-2,5.995091736E-2,7.386905387E-2
5.012067792E0,-3.218968961E-2,-1.307198050E-2,-6.812006235E-3,3.540418366E-2
5.022013792E0,-4.774117277E-2,-1.802640854E-2,-8.644757509E-2,1.003860260E-1
5.031959792E0,-6.530773435E-2,-2.165379273E-2,-6.758796573E-2,9.644749876E-2
5.041905792E0,-9.055523495E-2,-2.562759703E-2,-3.316131413E-2,9.978325041E-2
5.051851792E0,-9.386861452E-2,-3.703837442E-2,-9.199015081E-2,1.365479616E-1
5.061797792E0,-9.306813983E-2,-4.899776682E-2,-8.480392277E-2,1.351079758E-1
5.071742792E0,-7.033247516E-2,-4.452713192E-2,1.878067195E-2,8.533484739E-2
5.081688792E0,-4.949929804E-2,-4.000615614E-2,6.697985530E-2,9.239574693E-2
5.091634792E0,-3.208266501E-2,-3.489177933E-2,1.368950129E-2,4.933696489E-2
5.101580792E0,-3.886872194E-2,-3.083423194E-2,-5.576606512E-2,7.464168690E-2
5.111526792E0,-1.495459093E-2,-4.142689249E-2,-8.959571600E-2,9.983596315E-2
5.121472792E0,-2.002056033E-2,-4.392292268E-2,-4.379155219E-2,6.517473448E-2
5.131417792E0,-2.214728859E-3,-5.549931332E-2,-1.280715644E-2,5.700089524E-2
5.141363792E0,1.383073667E-2,-7.867257812E-2,-4.154856026E-2,9.003858442E-2
5.151309792E0,7.401477521E-3,-9.886128701E-2,-5.651743233E-2,1.141164147E-1
5.161255792E0,4.841420328E-3,-8.509695050E-2,-5.621805489E-2,1.021048482E-1
5.171201792E0,1.370651303E-3,-1.031590727E-1,1.173887014E-2,1.038338772E-1
5.181147792E0,-1.071628120E-2,-1.180390945E-1,3.044937551E-2,1.223733263E-1
5.191092792E0,-4.760532322E-3,-1.140572138E-1,2.505882740E-2,1.168745289E-1
5.201038792E0,4.232101628E-3,-1.252074338E-1,-1.219366658E-1,1.748238045E-1
5.210984792E0,2.389463534E-2,-1.007874329E-1,-1.656457722E-1,1.953652530E-1
5.220930792E0,2.835565661E-2,-5.800029536E-2,8.493314624E-2,1.066851295E-1
5.230876792E0,3.105517446E-2,-2.268271082E-2,1.401671147E-1,1.453469961E-1
5.240821792E0,5.410896877E-3,-1.111998805E-2,-1.715748489E-2,2.114973350E-2
5.250767792E0,-3.459196335E-2,-4.400833771E-3,-9.394779861E-2,1.002105789E-1
5.260713667E0,-6.410983172E-2,-2.531024854E-2,-1.439450008E-1,1.595958723E-1
5.270659667E0,-8.697775310E-2,-4.024183547E-2,-6.296515703E-2,1.146697251E-1
5.280605667E0,-1.023502292E-1,-5.631490854E-2,-3.826827228E-2,1.229284304E-1
5.290551667E0,-1.116485355E-1,-6.834182714E-2,-7.718850911E-2,1.519673213E-1
5.300496667E0,-1.037710295E-1,-5.582252730E-2,-6.102388144E-2,1.326970054E-1
5.310442667E0,-9.458958535E-2,-4.004653847E-2,9.569962442E-2,1.403899320E-1
5.320388667E0,-7.687415731E-2,-2.478707805E-2,7.893448770E-2,1.129366577E-1
5.330334667E0,-5.460373001E-2,-1.529545734E-2,-5.803010702E-2,8.113576072E-2
5.340280667E0,-5.430967902E-2,-1.068972434E-2,-1.586209273E-1,1.680012203E-1
5.350226667E0,-3.730445243E-2,-1.130694363E-2,-7.329777181E-2,8.301826605E-2
5.360171667E0,-1.658207890E-2,-1.761195973E-2,1.022736490E-2,2.626300552E-2
5.370117667E0,-1.553114467E-2,-2.095767257E-2,4.809685707E-2,5.471515470E-2
5.380063667E0,-2.029949992E-2,-4.246359469E-2,1.486479163E-2,4.935776131E-2
5.390009667E0,-1.305635176E-2,-6.480636301E-2,-5.713548303E-2,8.737732217E-2
5.399955667E0,-2.135956129E-2,-9.897971140E-2,-1.075805819E-1,1.477389445E-1
5.409900667E0,-2.714765840E-2,-1.137060793E-1,-3.827470422E-2,1.230082144E-1
5.419846667E0,-5.455254632E-3,-1.157036892E-1,-5.099824548E-2,1.265619395E-1
5.429792667E0,1.816045710E-2,-1.036402712E-1,-7.674470544E-2,1.302338582E-1
5.439738667E0,3.217563117E-2,-8.644370131E-2,-3.034178674E-2,9.709999362E-2
5.449684667E0,5.187667086E-2,-7.857048939E-2,8.926008582E-2,1.297377112E-1
5.459630667E0,2.880613432E-2,-6.063554409E-2,9.944008827E-2,1.199783053E-1
5.469575667E0,9.122613443E-3,-5.973181123E-2,4.195961952E-2,7.356440049E-2
5.479521667E0,-9.287515202E-3,-7.022601929E-2,-5.922937095E-2,9.233672134E-2
5.489467667E0,-3.568675855E-2,-8.333124669E-2,-1.517381698E-1,1.767543877E-1
5.499413667E0,-5.308851087E-2,-7.136674711E-2,-1.119227242E-1,1.429625783E-1
5.509359667E0,-5.313954153E-2,-6.547106353E-2,-6.597004116E-2,1.070622126E-1
5.519305667E0,-7.939040607E-2,-5.798198626E-2,-4.875817716E-2,1.097365352E-1
5.529250667E0,-6.279001922E-2,-3.949458872E-2,3.632875085E-3,7.426713158E-2
5.539196667E0,-9.689399131E-2,-2.702256910E-2,1.494308585E-1,1.801339675E-1
5.549142667E0,-1.910856005E-1,-8.595251692E-3,3.007755107E-1,3.564456381E-1
5.559088667E0,-1.627342060E-1,-2.074349089E-2,4.043963581E-1,4.364047762E-1
5.569034667E0,-6.000288449E-1,-3.329902702E-1,5.744018143E-1,8.949047877E-1
5.578979667E0,-1.900116169E0,-1.133108386E0,3.963581908E-1,2.247548861E0
5.588925667E0,-7.549724583E-1,-1.090026467E0,1.230745339E-1,1.331648772E0
5.598871667E0,4.337832946E-1,-4.541138076E-1,-1.209286058E-1,6.395396974E-1
5.608817667E0,4.395594665E-1,7.564727808E-1,1.249655235E-1,8.837872904E-1
5.618763667E0,9.083775597E-2,1.505589033E0,4.822438484E-1,1.583543168E0
5.628709667E0,-4.044520894E-1,1.194960307E0,5.109618634E-1,1.361100163E0
5.638654667E0,5.714509439E-2,9.253284551E-1,5.111565757E-1,1.058668672E0
5.648600667E0,6.236231641E-1,3.495999441E-1,3.277387762E-1,7.864722990E-1
5.658546667E0,6.070647630E-1,-2.080047200E-1,6.319378316E-2,6.448155118E-1
5.668492667E0,7.252009944E-1,-6.158405931E-1,9.158388627E-1,1.320582046E0
5.678438667E0,3.272635438E-1,-1.075869042E0,1.737870260E0,2.069973107E0
5.688384667E0,-5.096974761E-1,-7.570042927E-1,1.618322182E0,1.857905730E0
5.698329667E0,-5.013181968E-1,-6.512842217E-1,1.007956483E0,1.300564240E0
5.708275667E0,-6.382100668E-1,-9.861192519E-1,7.578330624E-1,1.397874894E0
5.718221667E0,-7.850405954E-1,-1.136674969E0,1.760204870E-1,1.392588213E0
5.728167667E0,-6.660288531E-1,-5.878452209E-1,-6.261093271E-1,1.086816142E0
5.738113667E0,-5.644542387E-1,1.426073771E-2,-5.191888958E-1,7.670521923E-1
5.748058667E0,2.477202147E-2,6.276374969E-1,-3.044177413E-1,6.980061903E-1
5.758004667E0,1.747295679E0,1.067241622E0,1.270531549E0,2.409625964E0
5.767950667E0,4.538401213E0,2.237768314E0,3.169221289E0,5.970649561E0
5.777896667E0,7.313745285E0,3.398585047E0,1.895993589E0,8.284687207E0
5.787842667E0,-1.938887009E0,5.970418679E-1,-9.587649100E0,9.799936586E0
5.797788667E0,-1.283713863E1,-3.313312470E0,-6.780453490E0,1.489109523E1
5.807733667E0,9.322350401E-1,-2.714822466E0,5.302235858E0,6.029347252E0
5.817679667E0,1.906978753E0,-2.213782158E-1,-6.851486635E-1,2.038382930E0
5.827625667E0,-2.696877069E0,1.197998300E0,-6.040319949E-1,3.012175378E0
5.837571667E0,-1.303369512E0,3.444686104E-1,-1.052199440E0,1.710132851E0
5.847517667E0,-6.114784241E-2,-8.336661138E-1,-8.021093488E-2,8.397452245E-1
5.857463667E0,4.511226279E-1,-1.281276392E0,-5.735066056E-2,1.359584465E0
5.867408667E0,4.797084957E-1,-5.413487468E-1,3.268061453E-1,7.937134011E-1
5.877354667E0,5.579755238E-1,1.090037028E-1,1.055942827E0,1.199263836E0
5.887300667E0,1.840884751E-1,2.214331797E-1,9.116306216E-1,9.560290842E-1
5.897246667E0,6.398567158E-1,2.649476469E-1,8.005458033E-1,1.058530800E0
5.907192667E0,-1.493247315E-1,-5.203678407E-2,2.221766531E-1,2.727052760E-1
5.917137667E0,-5.996857595E-1,-2.992982116E-1,7.709600616E-1,1.021558538E0
5.927083667E0,-6.028920802E-1,-4.907910159E-1,1.422974893E0,1.621484575E0
5.937029667E0,-2.289814965E-1,-9.025786932E-1,1.184380428E0,1.506598095E0
5.946975667E0,-3.722787720E-1,-1.196427007E0,1.020187104E0,1.615800357E0
5.956921667E0,-5.137666266E-1,-1.542169214E0,1.496286698E0,2.209324765E0
5.966867667E0,9.233382091E-2,-9.660478802E-1,1.100025571E0,1.466911824E0
5.976812667E0,-4.910097018E-1,-3.221160205E-1,4.923256177E-1,7.663117980E-1
5.986758667E0,-3.487881678E-1,-5.556024313E-2,8.758936089E-1,9.444203200E-1
5.996704667E0,-1.607524567E-1,2.690741001E-1,9.121317279E-1,9.644825104E-1
6.006650667E0,-3.217148650E-1,-7.528385170E-2,1.154054428E0,1.200420650E0
6.016596667E0,-1.112310352E-2,-5.609536569E-1,6.149855840E-1,8.324662138E-1
6.026541667E0,-4.546990773E-1,-3.016144399E-1,3.983211011E-1,6.755606715E-1
6.036487667E0,-6.627712961E-1,1.255563846E-1,8.818349648E-1,1.110253620E0
6.046433667E0,-4.156287863E-1,4.462295316E-1,3.538922024E-1,7.050587024E-1
6.056379667E0,-3.403621839E-1,3.868007706E-1,4.309935880E-1,6.717266745E-1
6.066325667E0,4.008775038E-1,3.466067179E-1,6.404139555E-1,8.312454657E-1
6.076271667E0,4.177534452E-1,-2.620350757E-1,4.457028437E-1,6.647039542E-1
6.086216667E0,1.934548375E-1,-5.332078877E-1,4.441077232E-2,5.689531987E-1
6.096162667E0,-2.053585991E-1,-2.741035827E-1,4.930810779E-1,6.003614559E-1
6.106108667E0,-5.569025597E-1,1.796966314E-2,6.562844682E-1,8.609138592E-1
6.116054667E0,-1.125770277E-1,-5.252933890E-2,6.795750976E-1,6.908366173E-1
6.126000667E0,3.238664576E-1,1.283931613E-2,8.416949987E-1,9.019450101E-1
6.135945667E0,4.107522815E-1,1.306003390E-1,1.084284282E0,1.166810305E0
6.145891667E0,6.543771064E-1,4.561589809E-1,1.188734849E0,1.431565910E0
6.155837667E0,6.647179073E-1,6.687621340E-1,9.990716386E-1,1.373767385E0
6.165783667E0,2.106558841E-1,4.499572778E-1,1.373032655E0,1.460156198E0
6.175729667E0,4.648536444E-3,5.368493874E-1,1.420343061E0,1.518421313E0
6.185675667E0,-2.131602466E-1,8.694960241E-1,1.314614877E0,1.590494546E0
6.195620667E0,-4.265619832E-1,1.242352793E0,1.269425256E0,1.826700870E0
6.205566667E0,3.074296421E-1,2.113880725E0,5.335695380E-1,2.201749567E0
6.215512667E0,-1.375077426E0,1.196279658E0,4.377015138E-1,1.874434731E0
6.225458667E0,-2.221448443E0,-9.146565557E-2,6.245422733E-1,2.309383511E0
6.235404667E0,-6.580871648E-1,-7.343790033E-1,1.276565875E0,1.613075222E0
6.245349667E0,2.584258234E0,-1.420312802E0,3.283363616E-1,2.967066538E0
6.255295667E0,4.220065345E0,-9.577487808E-1,-3.622034347E-1,4.342513738E0
6.265241792E0,3.553011475E0,-7.196508904E-1,7.505836844E-2,3.625937355E0
6.275187792E0,1.007329077E0,-1.270509329E0,-1.883516216E0,2.485264404E0
6.285133792E0,6.148639619E-1,-6.869748951E-1,-2.100219290E0,2.293668081E0
6.295079792E0,5.726113969E-1,4.899837347E-1,-1.125945693E-1,7.620009247E-1
6.305024792E0,3.532308823E-1,1.290388986E0,-6.750025749E-2,1.339564136E0
6.314970792E0,8.659013021E-1,2.155367012E0,-8.049557734E-1,2.458321749E0
6.324916792E0,9.701887321E-1,2.647206726E0,-1.641508731E0,3.262440887E0
6.334862792E0,1.548237455E-1,2.032226843E0,-1.475171233E0,2.515958366E0
6.344808792E0,-4.238161308E-1,1.739042188E0,-1.115444094E0,2.109052719E0
6.354753792E0,-6.644582909E-1,1.921074051E0,-1.275178916E0,2.399606551E0
6.364699792E0,-5.350263718E-1,1.958430158E0,-1.521653089E0,2.537149981E0
6.374645792E0,-1.293687692E-1,1.942284972E0,-1.768134279E0,2.629734971E0
6.384591792E0,-7.350517255E-1,1.384532227E0,-1.789739156E0,2.379158837E0
6.394537792E0,-1.219058802E0,7.256255753E-1,-1.576366071E0,2.120746761E0
6.404483792E0,-2.344148755E-2,7.186423919E-1,-1.418010022E0,1.589889560E0
6.414428792E0,2.772849065E-1,3.247502643E-1,-7.712951070E-1,8.816154466E-1
6.424374792E0,-3.134914505E-1,-5.847576718E-1,-4.798827428E-1,8.188442288E-1
6.434320792E0,-6.290124696E-1,-1.592929186E0,-8.156000447E-1,1.896914208E0
6.444266792E0,-2.743718237E-1,-1.804834182E0,-1.246686603E0,2.210641040E0
6.454212792E0,5.664899468E-2,-1.950684644E0,-1.955805343E0,2.762888747E0
6.464157792E0,-2.671195221E-1,-2.166884858E0,-2.036907978E0,2.985923130E0
6.474103792E0,-9.283384556E-1,-2.387909317E0,-1.321001206E0,2.882527950E0
6.484049792E0,-1.182810743E0,-2.328873343E0,-7.179784405E-1,2.708908515E0
6.493995792E0,-9.725627017E-1,-1.366667083E0,2.689350826E-1,1.698818179E0
6.503941792E0,-8.282934728E-1,-2.922720877E-1,6.990317076E-1,1.122558853E0
6.513887792E0,-6.762892547E-1,-1.947338885E-2,5.124540728E-1,8.487376189E-1
6.523832792E0,-8.599152151E-1,-6.811611548E-2,1.166683245E-1,8.704627966E-1
6.533778792E0,9.825877529E-1,-6.673577790E-1,-2.003905123E-1,1.204575218E0
6.543724792E0,1.894565114E0,-7.511833164E-1,-4.019335109E-1,2.077306885E0
6.553670792E0,1.712181980E0,-5.685288709E-1,1.815922987E-1,1.813220332E0
6.563616792E0,1.787734146E0,-3.670031217E-1,2.066973191E-1,1.836684090E0
6.573562792E0,1.128011807E0,-2.885293946E-1,1.626343977E0,2.000163638E0
6.583507792E0,-6.191982105E-1,5.757285476E-2,1.067712454E1,1.069521900E1
6.593453792E0,-6.291785306E-1,1.401786337E0,8.540397574E0,8.677514695E0
6.603399792E0,-3.749452485E-1,1.544176856E0,-2.363762071E0,2.848234054E0
6.613345792E0,-1.130475385E0,9.231689322E-1,5.495862311E-1,1.559570614E0
6.623291792E0,-7.270120963E-1,5.667100945E-1,1.784667281E0,2.008667275E0
6.633236792E0,-2.113112108E-1,3.817588627E-2,2.757424110E-1,3.494906341E-1
6.643182792E0,4.385018514E-1,-7.922164446E-1,-4.966800392E-2,9.068393901E-1
6.653128792E0,5.076017609E-1,-6.563002557E-1,-4.005927444E-3,8.297021277E-1
6.663074792E0,5.966683039E-1,-5.895037106E-1,-7.139450312E-3,8.387959593E-1
6.673020792E0,3.080281046E-1,-7.290907815E-1,-3.085470450E-1,8.495033607E-1
6.682966792E0,1.566498309E-1,-7.710404608E-1,-1.234526734E0,1.463932655E0
6.692911792E0,9.587099169E-1,-3.017750922E-1,-1.233422195E0,1.591076121E0
6.702857792E0,1.125940577E0,4.169596857E-1,4.139255655E-1,1.270012573E0
6.712803792E0,1.660342466E-1,7.519142184E-1,1.941366228E0,2.088503099E0
6.722749792E0,-7.832145830E-1,1.558154333E-1,1.257004600E0,1.489215934E0
6.732695792E0,1.314874347E-1,-4.578176898E-1,-3.133341604E-1,5.701440859E-1
6.742640792E0,1.803045957E0,-6.143996930E-1,-8.620088106E-1,2.090818236E0
6.752586792E0,1.929738163E0,-4.645858419E-1,-5.271890563E-1,2.053693668E0
6.762532792E0,8.082623738E-1,-4.247674727E-1,-1.928826874E-1,9.332305192E-1
6.772478792E0,-4.646553507E-1,-5.321580201E-1,-5.348033005E-1,8.860650786E-1
6.782424792E0,-1.210788646E0,-6.010867524E-1,-1.059339475E0,1.717415079E0
6.792370792E0,-1.641532120E0,-4.454210079E-1,-1.748184164E0,2.439093160E0
6.802315792E0,-2.231245745E0,1.125997733E0,-2.686430726E0,3.669228600E0
6.812261792E0,-2.237311208E0,3.789946500E0,-2.575580381E0,5.099300954E0
6.822207792E0,-1.473488843E0,4.627204047E0,-1.295787427E0,5.026057274E0
6.832153792E0,-1.128033369E0,3.224053554E0,6.414541751E-1,3.475405596E0
6.842099792E0,-8.390967885E-1,2.961059242E-1,3.968861943E-1,9.743104177E-1
6.852044792E0,-3.193231711E-1,-1.011330326E0,-1.651743112E0,1.962908970E0
6.861990792E0,-3.627279299E-1,-5.524560446E-1,-1.399329337E0,1.547547035E0
6.871936792E0,-7.586962576E-1,-2.507777238E-1,-7.080083531E-1,1.067607281E0
6.881882792E0,-1.388276638E0,-2.747156399E-1,-1.041058740E0,1.756867669E0
6.891828792E0,-2.307760655E0,-3.821593970E-1,-1.287766217E0,2.670233487E0
6.901774792E0,-2.672011785E0,-6.815403467E-1,-1.060405422E0,2.954421074E0
6.911719792E0,-2.282443673E0,-5.063852477E-1,-9.257381988E-1,2.514550925E0
6.921665792E0,-1.801978548E0,8.093715906E-2,-1.124538853E0,2.125621119E0
6.931611792E0,-1.107054217E0,-3.227019846E-1,-1.392694502E0,1.808121563E0
6.941557792E0,-1.342873301E0,-7.119926459E-1,-1.016905062E0,1.828753164E0
6.951503792E0,-1.834894571E0,-8.496817106E-1,-6.973956567E-1,2.138961851E0
6.961448792E0,-1.490442406E0,-1.264081485E0,-5.491681552E-1,2.030001534E0
6.971394792E0,-2.234776586E-1,-1.696231652E0,-2.206052139E-1,1.725053838E0
6.981340792E0,9.400469202E-1,-1.901356071E0,5.945156515E-1,2.202791860E0
6.991286792E0,1.171352246E0,-2.125276948E0,1.171111049E0,2.694507243E0
7.001232792E0,-9.894541383E-2,-2.623854994E0,1.486374206E0,3.017236070E0
7.011178792E0,-8.207508570E-1,-2.581258612E0,1.873316625E0,3.293302775E0
7.021123792E0,-4.610342431E-1,-2.184236763E0,1.715715744E0,2.815514753E0
7.031069792E0,1.796837676E-1,-2.014357606E0,1.580974846E0,2.566983499E0
7.041015792E0,1.780412847E-1,-1.716126804E0,1.129451391E0,2.062147025E0
7.050961792E0,-4.859474748E-1,-1.534420484E-1,3.779087636E-1,6.344323795E-1
7.060907792E0,-1.577091710E0,4.888026702E-1,1.315997744E-1,1.656340790E0
7.070852792E0,-1.279341549E0,3.925838131E-1,6.707140808E-1,1.496894862E0
7.080798792E0,3.500494123E-2,5.012233257E-3,8.811533256E-1,8.818626036E-1
7.090744792E0,2.480915129E-2,-9.678527695E-1,1.294456016E0,1.616468637E0
7.100690792E0,-3.916950363E-1,-1.338051687E0,2.076560286E0,2.501181709E0
7.110636792E0,-8.832406354E-1,-1.771386792E0,2.000932399E0,2.814543596E0
7.120581792E0,-1.906012208E0,-2.189698354E0,1.944840059E0,3.494290239E0
7.130527792E0,-2.027865844E0,-1.783523566E0,1.852381546E0,3.274830314E0
7.140473792E0,-8.897971183E-1,-1.024871308E0,1.733041044E0,2.201256771E0
7.150419792E0,-9.012062055E-1,-1.119750568E-1,1.564205031E0,1.808714576E0
7.160365792E0,-1.138740571E0,3.779189962E-1,1.073665738E0,1.610065518E0
7.170311792E0,-5.860903984E-1,7.163109608E-1,9.675478372E-1,1.338936953E0
7.180256792E0,-4.464623970E-1,8.846948379E-1,9.817919469E-1,1.394965611E0
7.190202792E0,-5.374520892E-1,6.731924231E-1,8.097288555E-1,1.182245155E0
7.200148792E0,-1.002325614E0,3.352737907E-1,5.994287744E-1,1.215063787E0
7.210094792E0,-1.097568571E0,8.628036300E-2,5.235424402E-1,1.219097107E0
7.220040792E0,-7.620611840E-1,-3.246730080E-1,7.715520921E-1,1.132008145E0
7.229985792E0,-8.558973008E-1,-8.028555266E-1,8.242200100E-1,1.434041775E0
7.239931792E0,-7.076937729E-1,-6.740256514E-1,7.697140199E-1,1.244026016E0
7.249877792E0,-1.591857684E-1,8.349180758E-2,1.613638562E-1,2.415559663E-1
7.259823792E0,3.850976229E-3,5.431879154E-1,-3.029793262E-1,6.219842551E-1
7.269770000E0,4.971764678E-1,2.186443502E-1,-3.180704051E-1,6.294112921E-1
7.279716000E0,5.911698747E-1,-2.643280613E-1,-9.831508398E-1,1.177258136E0
7.289661000E0,3.165021819E-1,-4.706418031E-1,-1.360472251E0,1.473961357E0
7.299607000E0,6.147394162E-1,-3.727275458E-1,-1.119348280E0,1.330327383E0
7.309553000E0,3.282147396E-1,-3.399430847E-1,-1.397058864E0,1.474808355E0
7.319499000E0,3.520257711E-2,-3.327708900E-1,-1.628486397E0,1.662511242E0
7.329445000E0,1.561949176E-1,-3.856764972E-1,-1.565757467E0,1.620104830E0
7.339390000E0,2.738870895E-1,-7.654364893E-1,-1.424524405E0,1.640175886E0
7.349336000E0,2.384909695E-1,-8.986372313E-1,-1.258730698E0,1.564873729E0
7.359282000E0,4.074503589E-1,-9.538580436E-1,-1.170524865E0,1.563965928E0
7.369228000E0,4.203960943E-1,-1.081501007E0,-1.472383280E0,1.874643921E0
7.379174000E0,2.765066421E-1,-9.087064290E-1,-1.897629640E0,2.122074822E0
7.389120000E0,1.393251157E-1,-4.271472895E-1,-2.164445107E0,2.210585650E0
7.399065000E0,6.651149333E-2,-2.888629782E-1,-2.415250313E0,2.433372078E0
7.409011000E0,-2.179461926E-1,-4.167719901E-1,-2.309886410E0,2.357281201E0
7.418957000E0,-1.491420060E-1,-7.995582086E-1,-2.346111665E0,2.483098188E0
7.428903000E0,4.857866764E-2,-1.273307807E0,-2.721485953E0,3.005022205E0
7.438849000E0,-4.955105960E-2,-1.480317367E0,-3.684668552E0,3.971218598E0
7.448794000E0,2.000537127E-1,-2.008909755E0,-4.748182354E0,5.159551876E0
7.458740000E0,1.026009176E0,-2.555178276E0,-5.742356365E0,6.368381857E0
7.468686000E0,1.187575346E0,-2.299005327E0,-6.758230562E0,7.236673340E0
7.478632000E0,7.305242264E-1,-1.624186939E0,-7.730969850E0,7.933444629E0
7.488578000E0,5.703438467E-1,-9.369864875E-1,-8.847801488E0,8.915538512E0
7.498524000E0,3.970794448E-1,-3.870722276E-1,-9.761544709E0,9.777282449E0
7.508469000E0,-4.329573753E-1,-1.965483069E-1,-9.807091010E0,9.818610768E0
7.518415000E0,-6.307391524E-2,-6.647483128E-1,-9.611260157E0,9.634427354E0
7.528361000E0,1.156576332E-1,-2.222072926E0,-9.298846933E0,9.561356549E0
7.538307000E0,1.937606469E-1,-3.935889787E0,-7.563038401E0,8.528090141E0
7.548253000E0,1.402406142E0,-4.995245926E0,-6.028745971E0,7.953930024E0
7.558198000E0,2.793461377E0,-5.787423779E0,-5.320265747E0,8.342836933E0
7.568144000E0,4.109248621E0,-7.108075322E0,-3.831466409E0,9.060397003E0
7.578090000E0,5.502174965E0,-8.073113827E0,-2.444784014E0,1.007105084E1
7.588036000E0,7.026259911E0,-8.048204103E0,-1.463823541E0,1.078353824E1
7.597982000E0,7.584492420E0,-8.319175771E0,-5.962113440E-2,1.125774247E1
7.607927000E0,6.958266149E0,-8.444883891E0,1.942977721E0,1.111344655E1
7.617873000E0,6.500652527E0,-7.035293275E0,3.609532415E0,1.023633523E1
7.627819000E0,5.910619351E0,-5.108419955E0,4.784783000E0,9.161087485E0
7.637765000E0,5.251233519E0,-3.503642263E0,5.646725153E0,8.469738339E0
7.647711000E0,5.325458075E0,-2.793721871E0,6.267034042E0,8.685683697E0
7.657657000E0,5.548875507E0,-2.507442485E0,6.344840602E0,8.793991669E0
7.667602000E0,4.972770984E0,-1.924400386E0,5.947109485E0,7.987482665E0
7.677548000E0,4.412064225E0,-1.355043842E0,5.595752635E0,7.253613037E0
7.687494000E0,3.704813964E0,-1.132238028E0,4.965657846E0,6.298044720E0
7.697440000E0,2.962840597E0,-1.042169711E0,4.691072014E0,5.645413957E0
7.707386000E0,2.372519153E0,-1.033191896E0,4.444500192E0,5.142948044E0
7.717331000E0,2.083283122E0,-1.274975433E0,3.944736332E0,4.639674089E0
7.727277000E0,1.583548498E0,-1.410862678E0,3.593670089E0,4.172843640E0
7.737223000E0,1.207630492E0,-1.433274617E0,3.565965396E0,4.028493110E0
7.747169000E0,1.125036451E0,-1.527081644E0,3.715627220E0,4.171758742E0
7.757115000E0,8.687701654E-1,-1.546062144E0,3.776134207E0,4.171841237E0
7.767060000E0,6.040192407E-1,-1.133077323E0,3.604585086E0,3.826452287E0
7.777006000E0,6.504982828E-1,-5.332324460E-1,3.495138073E0,3.594923505E0
7.786952000E0,4.873185738E-1,4.320851170E-2,3.267048715E0,3.303475999E0
7.796898000E0,4.724086124E-1,3.824893627E-1,3.073609958E0,3.133136796E0
7.806844000E0,4.269033144E-1,3.474467800E-1,2.882881384E0,2.934956692E0
7.816790000E0,2.340038162E-1,2.646722796E-1,2.417103295E0,2.442784792E0
7.826735000E0,7.084968880E-2,5.747962821E-2,2.083244823E0,2.085241612E0
7.836681000E0,1.210864806E-1,-2.947875233E-1,1.798933318E0,1.826943541E0
7.846627000E0,2.646289006E-2,-4.620466885E-1,1.616930544E0,1.681859629E0
7.856573000E0,-4.330681801E-2,-5.355630000E-1,1.593149918E0,1.681317897E0
7.866519000E0,-2.276280123E-1,-4.613940661E-1,1.429981027E0,1.519718636E0
7.876464000E0,-2.065034840E-1,-5.059123541E-1,1.372825078E0,1.477578998E0
7.886410000E0,-8.629350096E-2,-7.508459321E-1,1.489506851E0,1.670283462E0
7.896356000E0,-1.196637069E-1,-7.418959645E-1,1.357525254E0,1.551645526E0
7.906302000E0,-1.395221668E-1,-7.140982282E-1,1.027327724E0,1.258890371E0
7.916248000E0,-1.003817824E-1,-8.494074762E-1,1.089508184E0,1.385134523E0
7.926194000E0,-8.433439136E-3,-6.311149822E-1,8.807853895E-1,1.083586704E0
7.936139000E0,-1.072847128E-1,-1.067890151E-1,4.016604459E-1,4.292377164E-1
7.946085000E0,-1.098232815E-1,1.143689069E-1,3.226458514E-1,3.595020799E-1
7.956031000E0,-3.212723404E-2,1.406404468E-1,3.187019044E-1,3.498325290E-1
7.965977000E0,4.144740343E-2,-1.034430921E-2,3.755771863E-1,3.779988292E-1
7.975923000E0,5.782603920E-3,-2.323841375E-1,5.013964033E-1,5.526609984E-1
7.985868000E0,-1.400642037E-2,-5.406160176E-1,3.571648890E-1,6.480961473E-1
7.995814000E0,3.836027822E-1,-1.325053034E0,3.626659495E-1,1.426339100E0
8.005760000E0,6.408776397E-1,-1.969505661E0,8.237563258E-1,2.228957421E0
8.015706000E0,6.172630745E-1,-2.431961947E0,1.083539346E0,2.733040456E0
8.025652000E0,4.473693001E-1,-2.638418069E0,1.242875973E0,2.950615170E0
8.035597000E0,3.835726690E-1,-2.428498934E0,1.161859877E0,2.719311206E0
8.045543000E0,3.429462147E-1,-1.973036210E0,7.027552146E-1,2.122345138E0
8.055489000E0,2.245962310E-1,-2.144622754E0,-5.366632998E-2,2.157018845E0
8.065435000E0,5.861839539E-1,-2.289648027E0,2.415595883E-1,2.375805285E0
8.075381000E0,1.092255791E0,-1.763401542E0,1.271383488E-1,2.078165506E0
8.085327000E0,1.706847273E0,-1.242859601E0,-1.016543704E0,2.343371225E0
8.095272000E0,1.463095563E0,-1.023541067E0,-2.554761955E0,3.116904488E0
8.105218000E0,3.731985390E-1,-1.031555845E0,-3.685934766E0,3.845711860E0
8.115164000E0,-2.032199800E-2,-9.835782713E-1,-4.048213338E0,4.166037737E0
8.125110000E0,-1.680431306E-1,-1.031359963E0,-4.237240956E0,4.364189820E0
8.135056000E0,-2.152804470E-1,-1.144745661E0,-4.444726480E0,4.594821191E0
8.145001000E0,2.313649678E-1,-1.336596315E0,-4.453304930E0,4.655313551E0
8.154947000E0,5.134369898E-1,-1.825952716E0,-4.561061220E0,4.939736868E0
8.164893000E0,6.859590876E-1,-2.187084357E0,-5.006368500E0,5.506142335E0
8.174839000E0,8.706814009E-1,-2.485311066E0,-4.814081936E0,5.487280026E0
8.184785000E0,6.272805244E-1,-2.728235394E0,-4.490652558E0,5.291758651E0
8.194730000E0,7.262393868E-1,-2.638243237E0,-4.693560297E0,5.432978859E0
8.204676000E0,8.567392999E-1,-2.731515682E0,-4.975216874E0,5.740031628E0
8.214622000E0,8.277856421E-1,-2.733666873E0,-5.325600747E0,6.043193440E0
8.224568000E0,8.345210499E-1,-2.388657176E0,-6.022578328E0,6.532500149E0
8.234514000E0,1.024573100E0,-1.815514852E0,-6.998418978E0,7.302308704E0
8.244460000E0,9.521927565E-1,-3.342443883E-1,-8.443730235E0,8.503820944E0
8.254405000E0,1.080795833E0,-3.917470765E-1,-9.490787634E0,9.560158749E0
8.264351125E0,2.012841423E0,-9.722019285E-1,-9.041891041E0,9.314102253E0
8.274297125E0,2.443677721E0,-1.304916101E0,-8.713579237E0,9.143348947E0
8.284243125E0,2.737897918E0,-3.447011980E0,-6.792105821E0,8.093866696E0
8.294189125E0,2.083738328E0,-4.513696727E0,-4.275726745E0,6.557229808E0
8.304134125E0,9.930630398E-1,-4.729686441E0,-4.108762425E0,6.343345860E0
8.314080125E0,7.319579637E-1,-4.407401363E0,-2.662023278E0,5.200703527E0
8.324026125E0,6.154703182E-1,-3.250836725E0,-2.724936395E0,4.286259615E0
8.333972125E0,4.225294510E-1,-1.114422878E0,-3.941629121E0,4.117876834E0
8.343918125E0,6.930631623E-1,8.542635888E-1,-5.454935310E0,5.564748158E0
8.353863125E0,1.476889145E0,2.342891019E0,-6.959636151E0,7.490452271E0
8.363809125E0,3.473445488E0,-2.063604903E0,-7.871984811E0,8.848244663E0
8.373755125E0,6.786667911E0,-1.390540388E1,-5.833368861E0,1.653624234E1
8.383701125E0,7.806798297E0,-2.172160391E1,-9.875999862E-1,2.310301993E1
8.393647125E0,7.142818308E0,-1.705438444E1,2.462551364E0,1.865304376E1
8.403593125E0,8.216477029E0,-1.068075215E1,4.384735216E0,1.417091614E1
8.413538125E0,5.346408064E0,-7.962736521E0,8.266388862E0,1.266184966E1
8.423484125E0,3.606897952E0,-5.116839945E0,9.818971968E0,1.164491195E1
8.433430125E0,3.259148542E0,-4.539107557E0,9.826339459E0,1.130409191E1
8.443376125E0,2.885210038E0,-5.264168145E0,9.601675401E0,1.132378354E1
8.453322125E0,3.605459245E0,-3.386740927E0,9.310291688E0,1.054281185E1
8.463267125E0,3.682645123E0,-1.109650965E0,8.001622260E0,8.878015496E0
8.473213125E0,3.411311512E0,-7.187046647E-2,6.689907017E0,7.509798099E0
8.483159125E0,3.113497324E0,-1.646666560E-1,6.171603974E0,6.914454158E0
8.493105125E0,2.947996270E0,-1.129607804E0,5.643883406E0,6.466847431E0
8.503051125E0,2.397360756E0,-1.785276268E0,5.193937823E0,5.992623804E0
8.512996125E0,1.635807111E0,-1.919192417E0,4.802712318E0,5.424500903E0
8.522942125E0,1.013466460E0,-2.317448322E0,4.225961092E0,4.925081537E0
8.532888125E0,4.625067182E-1,-2.190523981E0,3.813951659E0,4.422503254E0
8.542834125E0,-5.528074622E-2,-1.903861018E0,3.290072712E0,3.801620863E0
8.552780125E0,-2.289550379E-1,-1.814670806E0,2.870906872E0,3.404050060E0
8.562726125E0,-2.137054995E-2,-9.274296521E-1,2.588819062E0,2.750012108E0
8.572671125E0,-2.454523721E-1,1.327005127E-1,2.042894357E0,2.061861695E0
8.582617125E0,-3.568513320E-1,6.150481492E-2,2.009354728E0,2.041722836E0
8.592563125E0,-2.728758135E-1,-1.256744984E-1,1.835514084E0,1.859937429E0
8.602509125E0,-2.120057139E-1,-1.379963359E-1,1.621642815E0,1.641254043E0
8.612455125E0,-1.347006990E-1,-5.063710682E-1,1.581258436E0,1.665813368E0
8.622400125E0,-5.632242769E-2,-7.853719863E-1,1.613430401E0,1.795310288E0
8.632346125E0,9.842223421E-2,-8.633032380E-1,1.697458398E0,1.906920143E0
8.642292125E0,4.530130327E-2,-8.585889204E-1,1.789204720E0,1.985064400E0
8.652238125E0,-5.176671579E-2,-8.009745504E-1,1.754802042E0,1.929655469E0
8.662184125E0,-3.900092840E-4,-8.253673799E-1,1.809313295E0,1.988679477E0
8.672129125E0,1.746279725E-1,-5.884985742E-1,1.539599948E0,1.657465988E0
8.682075125E0,5.582629144E-3,-3.236145888E-1,9.646888411E-1,1.017537286E0
8.692021125E0,-3.217956662E-2,-3.000209275E-1,4.838430619E-1,5.702211764E-1
8.701967125E0,-6.280962110E-2,-5.020577234E-1,1.380866754E-1,5.244758679E-1
8.711913125E0,-4.133104384E-3,-8.589277665E-1,6.548238337E-2,8.614301673E-1
8.721859125E0,1.029510489E-1,-1.255444417E0,2.099840391E-1,1.277040680E0
8.731804125E0,-6.129343808E-2,-1.407662643E0,3.904016322E-1,1.462082226E0
8.741750125E0,-8.179348379E-2,-1.513566974E0,5.283321869E-1,1.605213400E0
8.751696125E0,3.898104787E-2,-1.598734886E0,6.533374715E-1,1.727519207E0
8.761642125E0,4.803712776E-1,-1.220158078E0,3.185633254E-1,1.349453553E0
8.771588125E0,3.538843086E-1,-7.544253051E-1,-2.101009834E-1,8.593800487E-1
8.781533125E0,1.264217725E-1,-6.606032217E-1,-6.090904212E-1,9.073974996E-1
8.791479125E0,2.877809510E-1,-6.564587152E-1,-9.799699545E-1,1.214123977E0
8.801425125E0,2.228210163E-1,-5.314016828E-1,-1.247146779E0,1.373831155E0
8.811371125E0,2.757757401E-1,-6.102820837E-1,-1.380018323E0,1.533931893E0
8.821317125E0,1.113292319E-1,-1.000190211E0,-1.052501156E0,1.456205116E0
8.831262125E0,8.649610698E-2,-1.098756725E0,-5.649041820E-1,1.238492896E0
8.841208125E0,1.879838902E-1,-1.380803604E0,-1.580940932E-1,1.402480046E0
8.851154125E0,1.712865812E-1,-1.872733950E0,3.634073764E-1,1.915342388E0
8.861100125E0,1.129235337E0,-2.215517612E0,5.781738532E-1,2.553032655E0
8.871046125E0,1.476401487E0,-2.207396999E0,3.622695082E-1,2.680224255E0
8.880992125E0,1.153215938E0,-1.721673473E0,-9.672054827E-1,2.286821591E0
8.890937125E0,9.357123792E-1,-1.081929023E0,-2.667198649E0,3.026561862E0
8.900883125E0,3.748439455E-1,-5.710051668E-1,-3.719765294E0,3.781958319E0
8.910829125E0,-2.162382209E-1,-2.997972715E-1,-4.629099129E0,4.643834205E0
8.920775125E0,-3.471889544E-1,-2.730673099E-1,-5.361319048E0,5.379483978E0
8.930721125E0,-5.006508833E-1,-3.234931129E-1,-5.824163005E0,5.854585708E0
8.940666125E0,-5.447546768E-1,-3.406576145E-1,-6.175939100E0,6.209269605E0
8.950612125E0,-4.452666414E-1,-7.987887150E-1,-5.985022246E0,6.054487351E0
8.960558125E0,-3.649182969E-1,-1.527707881E0,-5.706869613E0,5.919072352E0
8.970504125E0,-3.319470173E-1,-1.987355749E0,-5.298851489E0,5.669003334E0
8.980450125E0,-2.800640881E-1,-2.282933670E0,-4.916682152E0,5.428073822E0
8.990395125E0,-1.101211971E-1,-2.566529476E0,-4.507768235E0,5.188369175E0
9.000341125E0,1.182125741E-1,-2.812069849E0,-4.127259507E0,4.995596269E0
9.010287125E0,1.422048694E-1,-2.890366405E0,-4.126683556E0,5.040233859E0
9.020233125E0,1.327516758E-1,-2.703482961E0,-4.302547046E0,5.083144126E0
9.030179125E0,3.195702159E-1,-2.494131591E0,-4.755542829E0,5.379405647E0
9.040125125E0,4.825841564E-1,-2.403645344E0,-4.984806308E0,5.555060065E0
9.050070125E0,6.196458149E-1,-2.370727859E0,-5.029517042E0,5.594671857E0
9.060016125E0,5.136942673E-1,-2.374935515E0,-4.920518510E0,5.487777593E0
9.069962125E0,6.806226262E-1,-2.323611580E0,-4.574067475E0,5.175375464E0
9.079908125E0,5.546262386E-1,-1.757134497E0,-4.612545077E0,4.966961243E0
9.089854125E0,2.521035799E-1,-5.428958470E-1,-4.911426675E0,4.947767587E0
9.099799125E0,1.204757389E-1,6.670114776E-1,-5.683894733E0,5.724166145E0
9.109745125E0,7.522501409E-2,5.411408052E-1,-6.063281381E0,6.087846358E0
9.119691125E0,6.097078872E-1,-1.920666208E0,-5.771507074E0,6.113182174E0
9.129637125E0,1.970968050E0,-5.088939956E0,-5.042903073E0,7.430538092E0
9.139583125E0,2.805256673E0,-7.908746256E0,-3.691373554E0,9.167549894E0
9.149528125E0,3.243825037E0,-1.161271062E1,-2.087956510E0,1.223670753E1
9.159474125E0,4.399807000E0,-1.221679816E1,4.662499595E-1,1.299330012E1
9.169420125E0,4.536109105E0,-9.732435515E0,2.075968548E0,1.093646343E1
9.179366125E0,4.299538653E0,-7.106446288E0,3.688311367E0,9.087972943E0
9.189312125E0,4.039085542E0,-5.227993761E0,5.115750024E0,8.355658507E0
9.199258125E0,4.326496656E0,-4.089905739E0,6.372674518E0,8.721059728E0
9.209203125E0,4.372059622E0,-3.130344614E0,6.959647261E0,8.794921986E0
9.219149125E0,4.415295981E0,-2.390039604E0,7.385971262E0,8.930828595E0
9.229095125E0,4.211377552E0,-1.986953753E0,7.583307774E0,8.898889981E0
9.239041125E0,3.695160211E0,-1.850307539E0,7.516394577E0,8.577530787E0
9.248987125E0,2.836544832E0,-1.936555724E0,7.223558416E0,7.998501787E0
9.258932125E0,2.136726381E0,-2.241335408E0,6.664378073E0,7.348681456E0
9.268878125E0,1.556564913E0,-2.455858056E0,5.964758136E0,6.635696854E0
9.278824125E0,9.856956942E-1,-2.315659366E0,5.201702925E0,5.778545459E0
9.288770125E0,5.683863451E-1,-1.980153295E0,4.427218162E0,4.883065713E0
9.298716125E0,2.079383907E-1,-1.463773548E0,3.910965153E0,4.181090743E0
9.308662125E0,-7.823282182E-3,-9.759590569E-1,3.352693468E0,3.491863510E0
9.318607125E0,-3.454535007E-2,-6.049168248E-1,3.059672534E0,3.119088611E0
9.328553125E0,-1.457019429E-1,-3.210089234E-1,2.590832843E0,2.614706600E0
9.338499125E0,-1.901232402E-1,-2.727065367E-1,2.330021882E0,2.353617996E0
9.348445125E0,-1.734193531E-1,-3.124983010E-1,2.094969660E0,2.125235831E0
9.358391125E0,-1.798740944E-1,-6.119816501E-1,2.019762772E0,2.118092983E0
9.368336125E0,-3.546709053E-1,-7.982669972E-1,2.396988873E0,2.551191351E0
9.378282125E0,-4.120784301E-1,-6.503187002E-1,2.294177865E0,2.419912214E0
9.388228125E0,-3.053837013E-1,-4.688407145E-1,2.116140674E0,2.188863214E0
9.398174125E0,-2.633398819E-1,-3.797845869E-1,1.962651848E0,2.016329958E0
9.408120125E0,-2.431506157E-1,-1.754912408E-1,1.763964629E0,1.789270972E0
9.418066125E0,-1.513700876E-1,-3.106903419E-2,1.709189082E0,1.716160105E0
9.428011125E0,8.624496907E-3,-5.821955681E-2,1.542825857E0,1.543948031E0
9.437957125E0,2.667720513E-1,-2.231921683E-1,1.327876947E0,1.372675948E0
9.447903125E0,2.675754587E-1,-6.499374618E-1,1.270348531E0,1.451826684E0
9.457849125E0,2.826470956E-1,-8.760362810E-1,1.023007801E0,1.376180913E0
9.467795125E0,2.587521565E-1,-8.348439623E-1,7.345213830E-1,1.141682435E0
9.477740125E0,3.218757731E-1,-8.201272514E-1,6.148037356E-1,1.074335309E0
9.487686125E0,3.337777805E-1,-6.917036846E-1,4.823847663E-1,9.069490928E-1
9.497632125E0,3.989555240E-1,-7.125837994E-1,4.525230360E-1,9.336585454E-1
9.507578125E0,3.441098106E-1,-7.645971215E-1,2.783800900E-1,8.834680495E-1
9.517524125E0,3.099492073E-1,-7.920734802E-1,1.615679240E-1,8.657673494E-1
9.527470125E0,3.371025074E-1,-9.523108703E-1,-5.544212937E-2,1.011735106E0
9.537415125E0,5.476414472E-1,-1.179884503E0,-4.403421164E-1,1.373295225E0
9.547361125E0,6.914466995E-1,-1.219968921E0,-9.527710462E-1,1.695345208E0
9.557307125E0,6.701850539E-1,-1.240301444E0,-1.176375589E0,1.836125052E0
9.567253125E0,7.464274836E-1,-1.253081118E0,-1.306767914E0,1.958317813E0
9.577199125E0,6.908947223E-1,-9.800442141E-1,-1.600903911E0,2.000178870E0
9.587144125E0,6.338185886E-1,-7.607976007E-1,-1.838625972E0,2.088320966E0
9.597090125E0,7.289013317E-1,-6.625515139E-1,-2.036339044E0,2.262067276E0
9.607036125E0,6.758293712E-1,-5.597790974E-1,-1.980450187E0,2.166167335E0
9.616982125E0,7.325286520E-1,-5.621711934E-1,-2.149410161E0,2.339358613E0
9.626928125E0,8.277219075E-1,-6.689740956E-1,-2.137714561E0,2.387985226E0
9.636874125E0,6.106276542E-1,-8.168776613E-1,-2.061238827E0,2.299752323E0
9.646819125E0,5.572630405E-1,-7.275941867E-1,-2.298658002E0,2.474624013E0
9.656765125E0,6.496689284E-1,-7.777100873E-1,-2.339237094E0,2.549300468E0
9.666711125E0,4.718217713E-1,-1.047210596E0,-2.278734199E0,2.551841564E0
9.676657125E0,2.952580780E-1,-9.923233670E-1,-2.552850500E0,2.754801022E0
9.686603125E0,1.246006572E-1,-1.133095084E0,-2.763494689E0,2.989369949E0
9.696548125E0,1.728144586E-2,-1.230195116E0,-2.886501396E0,3.137764966E0
9.706494125E0,-3.962716520E-2,-1.312420417E0,-3.046634998E0,3.317529574E0
9.716440125E0,-9.733626008E-2,-1.341392786E0,-3.296989383E0,3.560751037E0
9.726386125E0,-1.317061937E-1,-1.227200757E0,-3.781168075E0,3.977511814E0
9.736332125E0,-1.717713153E-1,-9.624879491E-1,-4.503861710E0,4.608758916E0
9.746277125E0,-1.998531532E-1,-7.762903833E-1,-5.312925738E0,5.373057596E0
9.756223125E0,9.018160701E-3,-8.571901202E-1,-5.959671058E0,6.021007835E0
9.766169125E0,2.288214290E-1,-1.031485679E0,-6.822349960E0,6.903678796E0
9.776115125E0,4.225496238E-1,-1.197177059E0,-7.791202603E0,7.893960926E0
9.786061125E0,7.327642947E-1,-1.295033137E0,-8.354757248E0,8.486225486E0
9.796007125E0,1.332132550E0,-1.300064666E0,-8.844561546E0,9.038308149E0
9.805952125E0,1.355527845E0,-1.102732247E0,-8.892191210E0,9.062259027E0
9.815898125E0,1.121491284E0,-1.071992850E0,-9.139927213E0,9.270662372E0
9.825844125E0,8.911481175E-1,-9.315585172E-1,-9.163309643E0,9.253550122E0
9.835790125E0,8.369575846E-1,-9.543135417E-1,-9.231237917E0,9.318098830E0
9.845736125E0,8.816367441E-1,-1.963616053E0,-9.149351170E0,9.399132842E0
9.855682125E0,1.919806083E0,-4.034464195E0,-8.435028409E0,9.545274275E0
9.865627125E0,3.676012041E0,-7.407816460E0,-7.479781651E0,1.115060280E1
9.875573125E0,5.116614243E0,-1.126370084E1,-5.531937293E0,1.355186438E1
9.885519125E0,6.559281389E0,-1.363617000E1,-3.575063664E0,1.554832418E1
9.895465125E0,7.874988526E0,-1.281657514E1,-8.227073354E-1,1.506508845E1
9.905411125E0,7.274253191E0,-1.022294908E1,2.518595756E0,1.279713921E1
9.915356125E0,6.311576961E0,-7.219064246E0,4.965564290E0,1.079850550E1
9.925302125E0,5.258948336E0,-5.316220644E0,6.807208010E0,1.011221145E1
9.935248125E0,4.472406321E0,-4.366428169E0,8.050646485E0,1.019220399E1
9.945194125E0,3.874176811E0,-3.468250821E0,7.985438336E0,9.529178094E0
9.955140125E0,3.635164855E0,-2.820579302E0,7.945520564E0,9.181578740E0
9.965085125E0,3.523597056E0,-2.167770126E0,7.908374957E0,8.925097086E0
9.975031125E0,3.134670384E0,-1.542266571E0,7.597005461E0,8.361772334E0
9.984977125E0,2.797712011E0,-1.454463611E0,7.261594554E0,7.916654113E0
9.994923125E0,2.430221524E0,-1.803247686E0,6.818290238E0,7.459675639E0
1.000486912E1,2.104382215E0,-1.999525559E0,6.297584574E0,6.934414066E0
1.001481512E1,1.605205854E0,-1.993060877E0,5.844004362E0,6.379762102E0
1.002476012E1,1.099260390E0,-1.928312904E0,5.420361893E0,5.857225206E0
1.003470612E1,7.685616068E-1,-1.924176292E0,5.089512398E0,5.495113993E0
1.004465212E1,3.049792933E-1,-1.783900419E0,4.827889259E0,5.155950714E0
1.005459812E1,1.326294690E-1,-1.508952206E0,4.414930238E0,4.667562141E0
1.006454412E1,2.152140811E-2,-1.160442073E0,4.133037141E0,4.292911015E0
1.007448912E1,7.050996557E-2,-7.384181137E-1,3.640310404E0,3.715116796E0
1.008443512E1,-2.658166163E-2,-3.251538683E-1,2.917340780E0,2.935525311E0
1.009438112E1,-7.653669074E-2,-3.336796935E-1,2.738272140E0,2.759589519E0
1.010432712E1,8.663527071E-3,-3.323812462E-1,2.442798885E0,2.465323253E0
1.011427312E1,4.825436644E-2,-3.057208664E-1,2.274401997E0,2.295364498E0
1.012421912E1,1.915153161E-2,-4.794987269E-1,2.513088849E0,2.558495920E0
1.013416412E1,2.184008136E-2,-7.057728164E-1,2.588406833E0,2.682991277E0
1.014411012E1,8.187315211E-2,-9.077913398E-1,2.643686995E0,2.796402914E0
1.015405612E1,5.845388398E-2,-1.046467926E0,2.549615820E0,2.756637954E0
1.016400212E1,7.155018523E-2,-1.046939577E0,2.069331958E0,2.320201858E0
1.017394812E1,3.217752010E-2,-1.051260962E0,1.770041056E0,2.058939130E0
1.018389312E1,-9.781134635E-2,-1.076510189E0,1.556060445E0,1.894667611E0
1.019383912E1,-1.174926357E-1,-9.710381864E-1,1.070122910E0,1.449787130E0
1.020378512E1,-6.934344605E-2,-1.161673789E0,7.304809570E-1,1.374007618E0
1.021373112E1,7.349950075E-4,-1.525188316E0,6.714837205E-1,1.666460418E0
1.022367712E1,-6.865917563E-2,-1.509570110E0,5.045410359E-1,1.593134538E0
1.023362312E1,-2.891828209E-2,-1.201966221E0,-1.344210559E-1,1.209804978E0
1.024356812E1,1.630466849E-2,-1.315835483E0,-4.952930796E-1,1.406059777E0
1.025351412E1,2.263024485E-1,-1.582732811E0,-4.176215905E-1,1.652472010E0
1.026346012E1,5.364858368E-1,-1.615283676E0,-6.645366436E-1,1.827174693E0
1.027340642E1,8.889603817E-1,-1.410125636E0,-1.054691523E0,1.972581831E0
1.028335242E1,9.779576352E-1,-1.550565816E0,-1.143158727E0,2.160432216E0
1.029329842E1,8.989316386E-1,-1.916450658E0,-1.491460991E0,2.589462705E0
1.030324342E1,7.913180199E-1,-2.081101819E0,-2.037652329E0,3.018144463E0
1.031318942E1,7.211183953E-1,-1.685778000E0,-2.252398340E0,2.904334259E0
1.032313542E1,7.657908306E-1,-1.800247772E0,-2.382710558E0,3.082959169E0
1.033308142E1,6.180863625E-1,-2.052274461E0,-2.274440004E0,3.125210160E0
1.034302742E1,3.809352824E-1,-1.930652375E0,-2.136042257E0,2.904342750E0
1.035297242E1,2.848091036E-1,-1.459173836E0,-2.602718478E0,2.997406877E0
1.036291842E1,2.525845134E-1,-1.081795707E0,-2.711489553E0,2.930231473E0
1.037286442E1,1.499500912E-1,-6.818636978E-1,-3.032515726E0,3.111844270E0
1.038281042E1,2.338836560E-1,-3.981527013E-1,-3.631188748E0,3.660431513E0
1.039275642E1,5.162459922E-1,-3.383006018E-1,-3.990436415E0,4.037888062E0
1.040270242E1,7.622576505E-1,-5.272486979E-1,-4.479817375E0,4.574690331E0
1.041264742E1,7.260686481E-1,-7.512251240E-1,-4.716277314E0,4.830609338E0
1.042259342E1,4.801178008E-1,-1.023044638E0,-4.824938169E0,4.955518315E0
1.043253942E1,1.834429425E-1,-1.205759602E0,-5.171420780E0,5.313294685E0
1.044248542E1,-3.158432007E-2,-1.436484885E0,-5.146768334E0,5.343567224E0
1.045243142E1,-2.764306283E-1,-1.654569656E0,-4.975128581E0,5.250325612E0
1.046237642E1,-3.512054068E-1,-1.767437875E0,-4.826599071E0,5.152013244E0
1.047232242E1,-3.592710561E-1,-1.889964525E0,-4.566363768E0,4.955070096E0
1.048226842E1,-2.618324697E-1,-2.009033716E0,-4.316182460E0,4.768039822E0
1.049221442E1,-1.763894463E-1,-1.793477281E0,-4.473770769E0,4.823100547E0
1.050216042E1,-1.676537061E-1,-1.568785740E0,-4.663838022E0,4.923472511E0
1.051210642E1,-1.236142319E-1,-9.763160294E-1,-5.044801664E0,5.139892732E0
1.052205142E1,-7.449615866E-2,-2.533692098E-1,-5.684288836E0,5.690420477E0
1.053199742E1,-8.144557446E-2,3.805619377E-1,-6.546822726E0,6.558380027E0
1.054194342E1,-1.135061502E-1,2.924385506E-1,-6.761452963E0,6.768725886E0
1.055188942E1,-1.181792450E-1,-3.994747567E-1,-6.573412939E0,6.586600344E0
1.056183542E1,-1.002721471E-1,-1.923968423E0,-6.403123308E0,6.686680574E0
1.057178042E1,1.603385469E-1,-4.030046916E0,-5.328901500E0,6.683126349E0
1.058172642E1,1.088534623E0,-5.595558507E0,-4.445350378E0,7.228853479E0
1.059167242E1,2.183883591E0,-6.498961512E0,-3.457121816E0,7.678381308E0
1.060161842E1,2.994433395E0,-7.108729625E0,-2.286698692E0,8.045474452E0
1.061156442E1,4.498771417E0,-8.433049711E0,-1.028700650E0,9.613193887E0
1.062151042E1,5.778051277E0,-8.113632107E0,1.015111721E-1,9.961285412E0
1.063145542E1,6.021457416E0,-7.378295622E0,1.079052193E0,9.584443090E0
1.064140142E1,5.553629293E0,-6.620327489E0,2.930987012E0,9.124813382E0
1.065134742E1,4.339209965E0,-5.561167524E0,4.164503932E0,8.191362545E0
1.066129342E1,3.175390394E0,-4.610484518E0,5.285161988E0,7.698870624E0
1.067123942E1,2.271211318E0,-3.768467338E0,6.188811160E0,7.593492642E0
1.068118442E1,1.897583301E0,-3.026681959E0,6.547202210E0,7.458383394E0
1.069113042E1,1.751725530E0,-2.435369120E0,6.599064090E0,7.248945574E0
1.070107642E1,1.882790430E0,-1.846730651E0,6.402110571E0,6.924040270E0
1.071102242E1,2.103731567E0,-1.191386708E0,6.091747380E0,6.553966352E0
1.072096842E1,1.943708915E0,-8.316208309E-1,5.571229413E0,5.958875290E0
1.073091442E1,2.091414553E0,-7.740609862E-1,4.940687896E0,5.420662517E0
1.074085942E1,2.028029858E0,-8.488809344E-1,4.376975377E0,4.898103449E0
1.075080542E1,1.779757666E0,-6.681149934E-1,4.129289660E0,4.545871544E0
1.076075142E1,1.506820749E0,-7.145964110E-1,3.895147265E0,4.237136889E0
1.077069742E1,1.151888035E0,-8.462811162E-1,3.562275218E0,3.838338508E0
1.078064342E1,7.866735765E-1,-8.649436744E-1,3.282653764E0,3.484651864E0
1.079058942E1,5.780115198E-1,-9.210442002E-1,3.027601726E0,3.216953830E0
1.080053442E1,4.095002830E-1,-9.309113766E-1,2.841378433E0,3.017899579E0
1.081048042E1,3.889566390E-1,-8.194581838E-1,2.693600582E0,2.842232059E0
1.082042642E1,4.272455958E-1,-6.818415514E-1,2.574910875E0,2.697705083E0
1.083037242E1,4.477022260E-1,-4.341063532E-1,2.344038827E0,2.425572846E0
1.084031842E1,5.087245360E-1,-2.475674562E-1,2.254875805E0,2.324769923E0
1.085026342E1,7.652407537E-1,-1.278807259E-1,2.152965268E0,2.288494339E0
1.086020942E1,7.924855627E-1,-1.508161370E-2,1.757342073E0,1.927825714E0
1.087015542E1,8.396744934E-1,-1.425973455E-1,1.623252554E0,1.833121958E0
1.088010142E1,8.225461715E-1,-4.398881532E-1,1.457252440E0,1.730222086E0
1.089004742E1,7.205167899E-1,-5.817596947E-1,1.025626768E0,1.381846249E0
1.089999342E1,5.568839948E-1,-6.664815737E-1,8.083658695E-1,1.186496039E0
1.090993842E1,3.295476124E-1,-6.764060529E-1,5.331619871E-1,9.221651054E-1
1.091988442E1,1.445633438E-1,-6.027046039E-1,2.767615807E-1,6.787844816E-1
1.092983042E1,6.851416469E-2,-5.382524268E-1,2.034994769E-1,5.795014261E-1
1.093977642E1,8.611925393E-2,-5.900362457E-1,7.235344648E-2,6.006615673E-1
1.094972242E1,-5.706093103E-2,-5.476679058E-1,7.052911520E-2,5.551310125E-1
1.095966742E1,-5.468871564E-2,-5.384402686E-1,-1.432977140E-1,5.598598158E-1
1.096961342E1,-7.983495891E-2,-7.401618996E-1,-4.110516590E-1,8.503979802E-1
1.097955942E1,1.447422686E-1,-1.084383977E0,-4.503303301E-1,1.183062272E0
1.098950542E1,4.268502510E-1,-1.543335734E0,-4.638268733E-1,1.667099785E0
1.099945142E1,5.134676877E-1,-1.584469727E0,-6.399034935E-1,1.784284132E0
1.100939742E1,3.214319694E-1,-1.232646854E0,-7.016933602E-1,1.454341896E0
1.101934242E1,5.437676668E-2,-1.040936241E0,-8.518457651E-1,1.346159834E0
1.102928842E1,-6.189131588E-2,-8.151638424E-1,-9.739134085E-1,1.271546284E0
1.103923442E1,-1.024768397E-1,-6.780121368E-1,-1.119997321E0,1.313238729E0
1.104918042E1,-3.617087603E-3,-8.721753645E-1,-1.140363758E0,1.435664463E0
1.105912642E1,1.861911339E-1,-1.087835881E0,-1.136720942E0,1.584357454E0
1.106907142E1,7.064313591E-1,-1.390947354E0,-1.097339360E0,1.907336750E0
1.107901742E1,9.049332207E-1,-1.726595074E0,-9.761476296E-1,2.180114419E0
1.108896342E1,7.170288527E-1,-1.201867695E0,-1.363957776E0,1.954225460E0
1.109890942E1,6.568080863E-1,-8.510885507E-1,-1.970187154E0,2.244412174E0
1.110885542E1,4.346296790E-1,-1.037029424E0,-1.892734351E0,2.201539531E0
1.111880142E1,2.892939180E-1,-1.010630414E0,-1.970162596E0,2.233070859E0
1.112874642E1,3.417992833E-1,-9.135695583E-1,-2.259140764E0,2.460722065E0
1.113869242E1,4.089519238E-1,-1.005776056E0,-2.246847578E0,2.495426054E0
1.114863842E1,4.886295927E-1,-1.138792026E0,-2.209610755E0,2.533374399E0
1.115858442E1,3.851426464E-1,-1.157437627E0,-2.214903654E0,2.528595444E0
1.116853042E1,4.062569422E-1,-1.122060218E0,-2.245451848E0,2.542856236E0
1.117847542E1,2.790782475E-1,-9.908621478E-1,-2.660538086E0,2.852745234E0
1.118842142E1,1.107380784E-1,-8.011088902E-1,-3.232734330E0,3.332357968E0
1.119836742E1,-4.412659764E-2,-5.931433100E-1,-3.705060132E0,3.752497398E0
1.120831342E1,-4.989902741E-1,-4.912374508E-1,-4.033193887E0,4.093526409E0
1.121825942E1,-6.854410243E-1,-5.232439399E-1,-3.976732880E0,4.069154460E0
1.122820542E1,-7.431559664E-1,-6.850592011E-1,-4.160592145E0,4.281601791E0
1.123815042E1,-8.871196783E-1,-7.723312336E-1,-4.330335061E0,4.487235073E0
1.124809642E1,-8.526322156E-1,-7.353090030E-1,-4.458836396E0,4.598791475E0
1.125804242E1,-9.627557516E-1,-7.027569687E-1,-4.816068528E0,4.961379048E0
1.126798779E1,-1.201594046E0,-4.531785089E-1,-5.272866463E0,5.426999148E0
1.127793379E1,-1.239280520E0,-5.741000980E-1,-5.406652511E0,5.576495181E0
1.128787879E1,-1.079740995E0,-5.934157902E-1,-5.797170503E0,5.926649033E0
1.129782479E1,-1.233106153E0,-1.468411267E-1,-6.144205676E0,6.268442908E0
1.130777079E1,-1.170145381E0,2.569985765E-1,-6.457534574E0,6.567727252E0
1.131771679E1,-9.254546088E-1,1.156520784E-1,-6.894389995E0,6.957187294E0
1.132766279E1,-1.960375527E-1,-9.959387004E-1,-6.582533426E0,6.660335647E0
1.133760879E1,7.537379649E-1,-3.520108607E0,-5.529503682E0,6.598082789E0
1.134755379E1,1.616191749E0,-4.864928154E0,-4.374334774E0,6.739021177E0
1.135749979E1,2.525149023E0,-5.390893096E0,-3.632756971E0,6.973881930E0
1.136744579E1,3.251356835E0,-6.750906925E0,-3.116319190E0,8.115264067E0
1.137739179E1,4.261086194E0,-8.506441623E0,-2.283287426E0,9.784160981E0
1.138733779E1,5.130597859E0,-8.842508588E0,-1.672524117E0,1.035906991E1
1.139728379E1,5.079252874E0,-8.352845208E0,-3.514732093E-1,9.782247505E0
1.140722879E1,4.364964026E0,-7.106210645E0,1.425576904E0,8.460697973E0
1.141717479E1,3.803884216E0,-5.370454153E0,2.887141666E0,7.186577763E0
1.142712079E1,3.715924258E0,-3.933174047E0,4.275105186E0,6.895975314E0
1.143706679E1,3.552031481E0,-2.831484944E0,5.470500598E0,7.110598528E0
1.144701279E1,3.510877608E0,-2.185298178E0,6.261707228E0,7.504050048E0
1.145695779E1,3.627453547E0,-1.957894845E0,6.768823378E0,7.925196615E0
1.146690379E1,3.629064454E0,-1.821790522E0,7.077721256E0,8.159850961E0
1.147684979E1,3.263607044E0,-1.719893726E0,7.135841410E0,8.033019233E0
1.148679579E1,2.879469242E0,-1.646322305E0,6.906752179E0,7.661915289E0
1.149674179E1,2.367732038E0,-1.702817810E0,6.782816350E0,7.383247330E0
1.150668779E1,1.911413720E0,-1.638243353E0,6.194834962E0,6.686802218E0
1.151663279E1,1.614363909E0,-1.216853524E0,5.401833236E0,5.767729678E0
1.152657879E1,1.288521823E0,-9.804757386E-1,4.678634402E0,4.950882853E0
1.153652479E1,1.089042307E0,-9.877198541E-1,4.048326189E0,4.307034779E0
1.154647079E1,7.924028246E-1,-7.606280315E-1,3.594015659E0,3.758111999E0
1.155641679E1,6.476189677E-1,-5.967178591E-1,3.087249173E0,3.210387825E0
1.156636179E1,4.713712433E-1,-7.272532940E-1,2.618613549E0,2.758301130E0
1.157630779E1,4.313144539E-1,-9.251878296E-1,2.328385831E0,2.542318874E0
1.158625379E1,4.480351518E-1,-1.116455808E0,2.127298331E0,2.443891826E0
1.159619979E1,4.630449544E-1,-1.285332898E0,2.017149067E0,2.436263871E0
1.160614579E1,4.360664861E-1,-1.143058447E0,1.992059834E0,2.337742282E0
1.161609179E1,5.480643471E-1,-6.241161574E-1,1.735636624E0,1.924143964E0
1.162603679E1,5.635518672E-1,-2.300110450E-1,1.526350157E0,1.643240880E0
1.163598279E1,7.680572113E-1,5.083934739E-3,1.456190586E0,1.646337981E0
1.164592879E1,8.615502428E-1,2.143498626E-1,1.049748872E0,1.374840856E0
1.165587479E1,9.616705084E-1,1.016019501E-1,6.808100295E-1,1.182639175E0
1.166582079E1,8.148489699E-1,-2.261650389E-1,8.002955425E-1,1.164303407E0
1.167576579E1,7.660925469E-1,-6.699733847E-1,6.554155719E-1,1.210508859E0
1.168571179E1,7.658250368E-1,-9.993914813E-1,1.635279107E-1,1.269650620E0
1.169565779E1,6.534424290E-1,-1.186256214E0,-2.625025606E-1,1.379528328E0
1.170560379E1,3.600186226E-1,-1.294558927E0,-2.936553562E-1,1.375401648E0
1.171554979E1,2.030121115E-1,-1.322416525E0,-4.011646020E-1,1.396757824E0
1.172549579E1,8.856631368E-2,-1.339645346E0,-4.450918096E-1,1.414425807E0
1.173544079E1,-2.512665510E-2,-1.395579518E0,-3.714408660E-1,1.444382864E0
1.174538679E1,1.889045343E-1,-1.801026621E0,-8.039693481E-1,1.981350177E0
1.175533279E1,8.151843077E-1,-2.237319540E0,-8.881733465E-1,2.541451568E0
1.176527879E1,1.070877493E0,-2.323507207E0,-6.375382948E-1,2.636649279E0
1.177522479E1,7.229412648E-1,-2.196448088E0,-4.592444104E-1,2.357527031E0
1.178516979E1,6.423628324E-1,-2.080821737E0,-8.945298547E-1,2.354279671E0
1.179511579E1,5.110349536E-1,-1.604935566E0,-1.341274672E0,2.153135537E0
1.180506179E1,5.370626646E-1,-1.085444954E0,-1.879674595E0,2.236024069E0
1.181500779E1,5.508199936E-1,-1.101958076E0,-2.084042968E0,2.420939768E0
1.182495379E1,2.893114597E-1,-1.285573511E0,-1.717648834E0,2.164882881E0
1.183489979E1,1.841042626E-1,-1.253545972E0,-1.696418763E0,2.117335237E0
1.184484479E1,3.969008124E-1,-1.055027738E0,-1.799017518E0,2.122987944E0
1.185479079E1,5.732598531E-1,-9.767498928E-1,-1.807676075E0,2.133157285E0
1.186473679E1,5.190602571E-1,-9.125913191E-1,-2.398805603E0,2.618494756E0
1.187468279E1,2.359053308E-1,-6.255222666E-1,-3.061392785E0,3.133537173E0
1.188462879E1,2.550111079E-1,-4.726152384E-1,-3.555080804E0,3.595413099E0
1.189457379E1,1.754574001E-1,-5.557182062E-1,-3.925169209E0,3.968193713E0
1.190451979E1,-8.525240421E-4,-6.373997158E-1,-4.278493062E0,4.325711734E0
1.191446579E1,-1.359220362E-1,-6.559903532E-1,-4.335551947E0,4.387004539E0
1.192441179E1,-2.300347263E-1,-8.463441199E-1,-4.516403403E0,4.600773201E0
1.193435779E1,-2.405690700E-1,-1.133765759E0,-4.530538170E0,4.676438216E0
1.194430379E1,-3.698685497E-1,-1.195698883E0,-4.535694830E0,4.705212657E0
1.195424879E1,-5.742240590E-1,-1.297457392E0,-4.432492643E0,4.654043401E0
1.196419479E1,-4.865497380E-1,-1.533773198E0,-4.309093881E0,4.599726181E0
1.197414079E1,-3.778576005E-1,-1.697858348E0,-4.183920196E0,4.531080174E0
1.198408679E1,-2.033714229E-1,-1.898954034E0,-4.060411214E0,4.487128880E0
1.199403279E1,-9.180128574E-4,-2.158051177E0,-3.945279830E0,4.496934363E0
1.200397779E1,1.806123054E-1,-2.136166803E0,-4.050601341E0,4.582924899E0
1.201392379E1,2.461461443E-1,-1.711230930E0,-4.615817764E0,4.928962654E0
1.202386979E1,1.990526694E-1,-1.073044179E0,-5.054008690E0,5.170498004E0
1.203381579E1,-8.298836231E-2,-4.700535733E-1,-5.384407364E0,5.405523110E0
1.204376179E1,-2.044157356E-1,6.591800094E-2,-5.951787842E0,5.955661969E0
1.205370779E1,-3.416484252E-1,4.004319459E-1,-6.174828714E0,6.197223494E0
1.206365279E1,-3.285553399E-1,1.158485448E-1,-6.070831890E0,6.080819791E0
1.207359879E1,-3.961386278E-1,-7.518589622E-1,-5.833039078E0,5.894621497E0
1.208354479E1,2.301288664E-2,-2.235476498E0,-5.350136833E0,5.798435039E0
1.209349079E1,9.989067471E-1,-4.902560249E0,-4.701163139E0,6.865409423E0
1.210343679E1,2.288355500E0,-6.772411230E0,-3.479716042E0,7.950506178E0
1.211338179E1,3.776070473E0,-8.638125597E0,-3.044272138E0,9.906740882E0
1.212332779E1,4.513433602E0,-1.034143121E1,-2.272808046E0,1.151007988E1
1.213327379E1,4.990691530E0,-9.726787689E0,-9.106213921E-1,1.097026126E1
1.214321979E1,5.140484331E0,-8.043299459E0,-3.612596941E-1,9.552473706E0
1.215316579E1,4.477286992E0,-6.705270576E0,6.169935179E-1,8.086249644E0
1.216311179E1,3.879915853E0,-5.362560412E0,1.988766682E0,6.911294677E0
1.217305679E1,3.753343515E0,-3.990070672E0,3.238482728E0,6.363648473E0
1.218300279E1,3.845280456E0,-3.180911335E0,4.469157901E0,6.699085837E0
1.219294879E1,3.891450071E0,-2.685051368E0,5.495881022E0,7.249661558E0
1.220289479E1,3.966285076E0,-2.266005396E0,6.158639528E0,7.667792289E0
1.221284079E1,3.882833029E0,-2.018966382E0,6.444015811E0,7.789605725E0
1.222278579E1,3.826034346E0,-2.147811240E0,6.392348059E0,7.753305466E0
1.223273179E1,3.655403822E0,-2.471384460E0,6.279196250E0,7.674504792E0
1.224267779E1,2.848712303E0,-2.385973889E0,6.374783024E0,7.378745949E0
1.225262379E1,2.017006980E0,-2.058228680E0,6.282925605E0,6.912291705E0
1.226256979E1,1.546800209E0,-1.858873710E0,5.857155334E0,6.336739774E0
1.227251562E1,1.339807606E0,-1.871055799E0,5.298339858E0,5.776533517E0
1.228246062E1,1.076646429E0,-1.549087640E0,4.646859462E0,5.015191214E0
1.229240662E1,4.594611228E-1,-1.054401794E0,4.097921687E0,4.256269472E0
1.230235262E1,1.618847700E-1,-7.917665014E-1,3.691042601E0,3.778478048E0
1.231229862E1,1.543834502E-1,-7.968396918E-1,3.057820137E0,3.163708541E0
1.232224462E1,-5.182913482E-2,-9.714115311E-1,2.665998800E0,2.837935205E0
1.233218962E1,-4.311970711E-1,-1.110877126E0,2.643325052E0,2.899507930E0
1.234213562E1,-4.607611781E-1,-1.292424840E0,2.667582226E0,2.999776286E0
1.235208162E1,-3.065730250E-1,-1.676884532E0,2.558212981E0,3.074147428E0
1.236202762E1,-1.371929285E-1,-1.955551427E0,2.523376440E0,3.195376651E0
1.237197362E1,9.102945328E-3,-1.729290640E0,2.202998139E0,2.800665953E0
1.238191962E1,-3.102532625E-2,-1.466868040E0,1.902432543E0,2.402480801E0
1.239186462E1,9.053331703E-2,-1.150998089E0,1.739196993E0,2.087534206E0
1.240181062E1,1.461078858E-1,-2.513709969E-1,9.733661091E-1,1.015862429E0
1.241175662E1,4.095351836E-1,2.354882050E-1,4.682660794E-1,6.651668080E-1
1.242170262E1,7.072116700E-1,1.452362122E-1,8.759245992E-2,7.272649741E-1
1.243164862E1,8.320061624E-1,1.631957889E-3,-2.450158775E-2,8.323684553E-1
1.244159362E1,1.144899443E0,-2.206114997E-1,-9.712926865E-2,1.169999258E0
1.245153962E1,1.236507186E0,-6.448376665E-1,-1.632595235E-1,1.404072401E0
1.246148562E1,1.334403317E0,-1.421021046E0,-1.039284110E-2,1.949369394E0
1.247143162E1,1.124396766E0,-2.052938704E0,4.944095653E-1,2.392334891E0
1.248137762E1,9.727699855E-1,-2.257735094E0,6.399853545E-1,2.540320935E0
1.249132362E1,9.654507333E-1,-2.315105927E0,5.346325618E-1,2.564691511E0
1.250126862E1,7.669240209E-1,-1.983283748E0,2.308720475E-1,2.138898965E0
1.251121462E1,7.205061918E-1,-1.522333120E0,-1.559312081E-1,1.691431891E0
1.252116062E1,9.397212303E-1,-1.600867658E0,-4.140290612E-1,1.901913067E0
1.253110662E1,7.684393269E-1,-1.686235837E0,-4.779169089E-1,1.913712327E0
1.254105262E1,6.869086754E-1,-1.381888263E0,-8.106538850E-1,1.743163337E0
1.255099862E1,1.165961114E0,-1.486411335E0,-8.861437780E-1,2.086656362E0
1.256094362E1,9.150623524E-1,-1.755865651E0,-5.715518814E-1,2.060843237E0
1.257088962E1,1.014579039E0,-1.816152783E0,-7.958300239E-1,2.227358746E0
1.258083562E1,1.202969311E0,-1.610726064E0,-8.988603026E-1,2.202163359E0
1.259078162E1,1.180952790E0,-1.066615165E0,-1.297763202E0,2.053413434E0
1.260072762E1,1.176764429E0,-4.225572252E-1,-2.214523585E0,2.543116954E0
1.261067262E1,9.779292762E-1,7.546650410E-2,-3.503887554E0,3.638580610E0
1.262061862E1,8.874436140E-1,4.001302296E-1,-4.404371921E0,4.510670946E0
1.263056462E1,7.674797988E-1,7.945594239E-1,-5.381089654E0,5.493311914E0
1.264051062E1,6.041407531E-1,1.612469119E-1,-5.912658859E0,5.945630446E0
1.265045662E1,2.971619314E-1,-5.891888380E-2,-5.733341128E0,5.741339315E0
1.266040162E1,3.319616354E-1,-1.444659877E-1,-5.666202228E0,5.677756303E0
1.267034762E1,4.842798489E-1,-7.186771828E-1,-5.085923377E0,5.159228670E0
1.268029362E1,4.373155975E-1,-1.402270487E0,-4.154804571E0,4.406813868E0
1.269023962E1,1.515112978E-1,-1.904856799E0,-3.366446704E0,3.870968678E0
1.270018562E1,5.479367316E-2,-2.237728845E0,-2.745606595E0,3.542426895E0
1.271013162E1,-6.440181792E-2,-2.413840549E0,-2.220310575E0,3.280328160E0
1.272007662E1,-1.643137765E-1,-2.402816793E0,-1.893927476E0,3.063900919E0
1.273002262E1,-1.212624818E-1,-2.307145236E0,-1.842906134E0,2.955321767E0
1.273996862E1,1.542846322E-2,-2.041189309E0,-2.032642727E0,2.880681914E0
1.274991462E1,7.838777304E-2,-1.637902168E0,-2.547053863E0,3.029249335E0
1.275986062E1,1.051346916E-1,-9.815919721E-1,-3.353076460E0,3.495382361E0
1.276980562E1,-1.498524427E-2,-2.798109037E-1,-4.406150644E0,4.415051777E0
1.277975162E1,-2.632223529E-1,5.594615936E-2,-5.300863516E0,5.307689704E0
1.278969762E1,-2.347177613E-1,3.025817156E-1,-5.584320159E0,5.597435105E0
1.279964362E1,-6.158696830E-2,1.168881798E-1,-5.152510884E0,5.154204518E0
1.280958962E1,2.758628637E-1,-1.849199492E-1,-4.455595284E0,4.467955354E0
1.281953562E1,5.503715122E-1,-3.769904584E-1,-3.843039803E0,3.900510932E0
1.282948062E1,8.568907428E-1,-4.680187422E-1,-3.286345696E0,3.428319023E0
1.283942662E1,1.412929084E0,-1.250304276E0,-3.140573441E0,3.663718182E0
1.284937262E1,1.363187698E0,-2.373324022E0,-2.688104199E0,3.836254918E0
1.285931862E1,1.099479441E0,-2.821130987E0,-2.573518653E0,3.973742989E0
1.286926462E1,1.009409808E0,-5.121261610E0,-2.096146120E0,5.624949528E0
1.287921062E1,9.259872901E-1,-7.065302939E0,-9.951598513E-1,7.194880209E0
1.288915562E1,1.421722419E0,-6.937657052E0,-1.589939797E-1,7.083619068E0
1.289910162E1,1.085894313E0,-6.111703928E0,8.155029809E-1,6.260761652E0
1.290904762E1,1.116675810E0,-6.555454971E0,1.132547200E0,6.745636953E0
1.291899362E1,1.568654470E0,-6.476713441E0,2.071175001E0,6.978413840E0
1.292893962E1,1.501038145E0,-5.225234460E0,3.926497697E0,6.706234028E0
1.293888462E1,1.809576127E0,-4.087611877E0,3.999327106E0,5.998145873E0
1.294883062E1,1.871259575E0,-3.749492539E0,4.983601781E0,6.511266651E0
1.295877662E1,1.756192510E0,-3.441575823E0,6.207449160E0,7.311708512E0
1.296872262E1,1.796406443E0,-2.641394886E0,6.272412311E0,7.038977145E0
1.297866862E1,1.449322447E0,-1.972986801E0,6.350754476E0,6.806268793E0
1.298861462E1,1.296037981E0,-1.507282095E0,6.306009243E0,6.611910944E0
1.299855962E1,1.186080213E0,-1.068043202E0,6.045515785E0,6.252660527E0
1.300850562E1,1.086120161E0,-7.182211000E-1,5.614533307E0,5.763547762E0
1.301845162E1,8.209062468E-1,-6.714553615E-1,4.671105527E0,4.789986034E0
1.302839762E1,5.392843142E-1,-7.351074202E-1,3.885043277E0,3.990585390E0
1.303834362E1,4.606842873E-1,-7.612079291E-1,3.529065957E0,3.639501896E0
1.304828862E1,2.567076775E-1,-8.325183785E-1,3.130580549E0,3.249541546E0
1.305823462E1,1.900701767E-1,-8.476606936E-1,2.713718512E0,2.849372472E0
1.306818062E1,4.024372485E-1,-9.726249745E-1,2.535547419E0,2.745351671E0
1.307812662E1,4.171859729E-1,-1.187222174E0,2.368890663E0,2.682383940E0
1.308807262E1,2.878900015E-1,-9.603494762E-1,2.084179208E0,2.312780738E0
1.309801862E1,3.519485879E-1,-6.044051935E-1,1.867461516E0,1.994137899E0
1.310796362E1,3.863965818E-1,-2.328392702E-1,1.781714437E0,1.837939819E0
1.311790962E1,5.025635076E-1,2.348629915E-1,1.360510257E0,1.469257930E0
1.312785562E1,4.524821055E-1,3.905187227E-1,1.004661577E0,1.169012323E0
1.313780162E1,4.088191921E-1,2.905313350E-1,7.430624110E-1,8.964838732E-1
1.314774762E1,4.242771837E-1,1.117740588E-1,5.742375076E-1,7.226709375E-1
1.315769262E1,4.289821458E-1,-1.009409223E-1,4.564137733E-1,6.344511673E-1
1.316763862E1,1.426299620E-1,-4.816866088E-1,2.817890167E-1,5.759950912E-1
1.317758462E1,1.022809580E-1,-8.918127997E-1,2.290985870E-1,9.264327427E-1
1.318753062E1,-1.058199853E-2,-1.149913430E0,1.564960492E-1,1.160561885E0
1.319747662E1,-6.488275141E-2,-1.283134345E0,2.676972270E-1,1.312366307E0
1.320742262E1,-3.151479667E-1,-1.348793607E0,2.669616473E-1,1.410613681E0
1.321736762E1,-4.550338304E-1,-1.185664476E0,4.633450627E-2,1.270827653E0
1.322731362E1,-3.885088885E-1,-1.055823544E0,-2.387441540E-1,1.150087512E0
1.323725962E1,-3.575537288E-1,-1.005231680E0,-3.158233202E-1,1.112690330E0
1.324720562E1,-3.102327973E-1,-1.132378800E0,-3.265862900E-1,1.218681558E0
1.325715162E1,-3.392753327E-1,-1.237398886E0,-3.146702492E-1,1.321090883E0
1.326709754E1,-3.322499031E-1,-1.232637498E0,-2.916351432E-1,1.309517567E0
1.327704354E1,-1.862689018E-1,-1.141403685E0,-2.506976169E-1,1.183362908E0
1.328698954E1,-2.073598087E-2,-1.064655179E0,-2.636293191E-1,1.097005492E0
1.329693554E1,-1.681425333E-2,-1.092649893E0,-2.265889621E-1,1.116023775E0
1.330688154E1,8.747668505E-2,-1.031072280E0,1.872278452E-2,1.034945777E0
1.331682754E1,3.652562660E-1,-9.726837391E-1,4.943820834E-3,1.039014070E0
1.332677254E1,2.624955440E-1,-7.538879460E-1,-4.739478189E-1,9.283735675E-1
1.333671854E1,2.268474090E-1,-5.308757257E-1,-9.521775538E-1,1.113521835E0
1.334666454E1,4.265502888E-1,-4.453689677E-1,-1.187337365E0,1.337934484E0
1.335661054E1,6.930570227E-1,-5.979766184E-1,-1.382768269E0,1.658297970E0
1.336655654E1,7.476817113E-1,-4.538608789E-1,-1.546852834E0,1.777011910E0
1.337650154E1,9.922742504E-1,-1.901046753E-1,-1.671363444E0,1.952998653E0
1.338644754E1,1.051867318E0,-3.588728607E-2,-2.064503035E0,2.317301347E0
1.339639354E1,6.889955467E-1,1.341123229E-1,-2.485111676E0,2.582340222E0
1.340633954E1,6.120841956E-1,2.550467759E-1,-2.670774221E0,2.751859528E0
1.341628554E1,5.591522759E-1,2.895517802E-1,-2.931058933E0,2.997932283E0
1.342623154E1,6.266958028E-1,3.213746667E-2,-3.232551020E0,3.292896376E0
1.343617654E1,4.951977700E-1,-3.138317585E-1,-3.059506474E0,3.115171113E0
1.344612254E1,2.323291737E-1,-7.351499587E-1,-2.869835662E0,2.971595368E0
1.345606854E1,1.872342771E-1,-1.108675357E0,-2.715808599E0,2.939359466E0
1.346601454E1,9.680182457E-2,-1.390742701E0,-2.680175375E0,3.021071978E0
1.347596054E1,-1.461149025E-1,-1.552515863E0,-2.624887612E0,3.053144288E0
1.348590554E1,-3.886731952E-1,-1.625243531E0,-2.594371870E0,3.085976149E0
1.349585154E1,-3.743884474E-1,-1.677835143E0,-2.528999999E0,3.057963125E0
1.350579754E1,-3.466732299E-1,-1.731858153E0,-2.668727696E0,3.200253506E0
1.351574354E1,-1.767361861E-1,-1.767688136E0,-2.920276960E0,3.418182931E0
1.352568954E1,-1.017538315E-1,-1.424740752E0,-3.631787503E0,3.902578701E0
1.353563554E1,3.349226654E-2,-1.015204691E0,-4.742428401E0,4.849988602E0
1.354558054E1,1.326388246E-1,-6.772098988E-1,-5.645860934E0,5.687877635E0
1.355552654E1,1.005253315E-1,-2.503678340E-1,-6.427047191E0,6.432707439E0
1.356547254E1,-1.832967621E-1,-1.179365855E-1,-6.692937629E0,6.696485708E0
1.357541854E1,-1.962085837E-1,4.921425998E-2,-6.974362949E0,6.977295922E0
1.358536454E1,-2.367128313E-2,4.382751256E-1,-6.859202036E0,6.873230535E0
1.359530954E1,1.090178275E-1,9.282998639E-1,-6.957372109E0,7.019875511E0
1.360525554E1,1.595444950E-1,6.146306580E-1,-7.206752933E0,7.234674363E0
1.361520154E1,2.964129031E-1,-5.176402608E-1,-7.147362179E0,7.172210131E0
1.362514754E1,1.191879774E0,-3.760141488E0,-6.263212886E0,7.401829305E0
1.363509354E1,3.194309353E0,-8.325239918E0,-4.323897277E0,9.910061533E0
1.364503954E1,5.061659771E0,-1.233140359E1,-2.345187221E0,1.353454163E1
1.365498454E1,5.046482738E0,-1.400093919E1,-1.061295369E0,1.492044350E1
1.366493054E1,6.083990464E0,-1.321004247E1,3.618309671E-1,1.454823301E1
1.367487654E1,6.367123171E0,-9.517034615E0,2.364152080E0,1.169202379E1
1.368482254E1,5.826045223E0,-7.008348720E0,2.109476602E0,9.354659067E0
1.369476854E1,3.281492507E0,-4.391578798E0,2.007677162E0,5.838229612E0
1.370471354E1,1.954174262E0,-3.341522947E0,6.188498919E0,7.299458303E0
1.371465954E1,2.286810958E0,-3.659887175E0,6.747696803E0,8.009724754E0
1.372460554E1,2.032461755E0,-2.953810449E0,6.249055023E0,7.204622519E0
1.373455154E1,1.788767349E0,-2.442896825E0,6.770568772E0,7.416740188E0
1.374449754E1,1.890658443E0,-2.421219150E0,6.745503513E0,7.412065108E0
1.375444354E1,1.722732111E0,-2.444821729E0,6.306610336E0,6.979849078E0
1.376438854E1,1.261082448E0,-2.202255835E0,5.943026959E0,6.462184548E0
1.377433454E1,1.102089053E0,-1.828591857E0,5.482711923E0,5.883746977E0
1.378428054E1,8.805204376E-1,-1.809775810E0,4.860169398E0,5.260404100E0
1.379422654E1,5.143430158E-1,-1.733985955E0,4.382227346E0,4.740798724E0
1.380417254E1,3.721935488E-1,-1.549271535E0,3.950633833E0,4.259844834E0
1.381411754E1,5.488898277E-2,-1.544201122E0,3.452014858E0,3.782059820E0
1.382406354E1,-1.890944226E-1,-1.598418698E0,3.170759692E0,3.555898769E0
1.383400954E1,-2.574550979E-1,-1.670466920E0,2.917766458E0,3.371958475E0
1.384395554E1,-4.001363692E-1,-1.499442440E0,2.684107043E0,3.100462443E0
1.385390154E1,-4.540400961E-1,-1.215447269E0,2.517308784E0,2.832014828E0
1.386384754E1,-1.286875686E-1,-7.967401430E-1,2.314281178E0,2.450969750E0
1.387379254E1,2.458900362E-2,-1.126138651E-1,1.877746768E0,1.881281326E0
1.388373854E1,6.764760733E-2,8.612159282E-2,1.642544857E0,1.646191585E0
1.389368454E1,1.675554729E-1,2.190454692E-2,1.649403641E0,1.658037098E0
1.390363054E1,3.149743044E-1,-7.365510978E-2,1.443326712E0,1.479130111E0
1.391357654E1,3.307457069E-1,-1.890339405E-1,1.209295998E0,1.267881447E0
1.392352154E1,3.081149358E-1,-4.592014334E-1,1.119704375E0,1.248814901E0
1.393346754E1,2.631106710E-1,-7.609092826E-1,1.159860713E0,1.411909004E0
1.394341354E1,3.321624872E-1,-9.092301933E-1,1.166363987E0,1.515729663E0
1.395335954E1,2.726229215E-1,-9.110694350E-1,9.842278969E-1,1.368603422E0
1.396330554E1,1.262431401E-1,-9.138382378E-1,9.257615876E-1,1.306932352E0
1.397325154E1,1.725440249E-1,-9.914807832E-1,1.009798940E0,1.425657562E0
1.398319654E1,1.783239976E-1,-9.539451671E-1,8.727062917E-1,1.305154053E0
1.399314254E1,8.016737312E-2,-8.058916202E-1,4.650629747E-1,9.339013233E-1
1.400308854E1,1.555385676E-1,-1.060541370E0,1.389883161E-2,1.071976409E0
1.401303454E1,1.266103452E-1,-1.337730967E0,-1.062316293E-1,1.347901880E0
1.402298054E1,7.821644962E-2,-1.280173900E0,-2.131351036E-1,1.300149837E0
1.403292654E1,1.700534034E-1,-1.169058676E0,-4.897639525E-1,1.278860851E0
1.404287154E1,3.362847742E-1,-1.279935626E0,-6.065030283E-1,1.455736439E0
1.405281754E1,2.875564179E-1,-1.398586741E0,-6.518528634E-1,1.569600497E0
1.406276354E1,3.074539080E-1,-1.433481170E0,-7.303043711E-1,1.637907398E0
1.407270954E1,4.382093444E-1,-1.377069572E0,-8.076121634E-1,1.655471366E0
1.408265554E1,7.131483480E-1,-1.343519418E0,-1.005455044E0,1.823338926E0
1.409260054E1,7.286563334E-1,-1.212910747E0,-1.090343751E0,1.786320808E0
1.410254654E1,6.086977807E-1,-9.572576147E-1,-1.640453308E0,1.994477923E0
1.411249254E1,5.955681503E-1,-6.046173012E-1,-2.471192379E0,2.612863425E0
1.412243854E1,4.246745020E-1,-3.375884110E-1,-2.792940098E0,2.845141255E0
1.413238454E1,3.649738455E-1,-3.076734710E-1,-2.916736763E0,2.955540935E0
1.414233054E1,5.209568015E-1,-3.328106511E-1,-3.044344059E0,3.106475441E0
1.415227554E1,6.244677213E-1,-3.224780363E-1,-3.209590758E0,3.285639185E0
1.416222154E1,5.525738660E-1,-3.352582955E-1,-3.193029105E0,3.257786191E0
1.417216754E1,6.030353370E-1,-4.898826510E-1,-3.056223847E0,3.153433182E0
1.418211354E1,6.446602035E-1,-7.837116694E-1,-2.774925411E0,2.954657645E0
1.419205954E1,5.910412359E-1,-1.176418274E0,-2.348587376E0,2.692424997E0
1.420200454E1,1.921167022E-1,-1.370301420E0,-2.262191257E0,2.651819016E0
1.421195054E1,1.120841074E-1,-1.340837885E0,-2.494347353E0,2.834109701E0
1.422189654E1,-1.836347312E-1,-1.215047904E0,-2.710918280E0,2.976430924E0
1.423184254E1,-4.036698416E-1,-1.274049234E0,-2.885406505E0,3.179893314E0
1.424178854E1,-4.675383934E-1,-1.263589150E0,-3.060675040E0,3.344096498E0
1.425173454E1,-5.134890300E-1,-1.140554377E0,-3.321417881E0,3.549133980E0
1.426167954E1,-5.493722230E-1,-1.164682912E0,-3.552418275E0,3.778620347E0
1.427162954E1,-5.113240984E-1,-1.249454675E0,-3.687270270E0,3.926646325E0
1.428157554E1,-5.420611569E-1,-1.407242959E0,-3.700972928E0,3.996418854E0
1.429152154E1,-2.667163566E-1,-1.344533910E0,-3.979842137E0,4.209281707E0
1.430146754E1,-1.228114092E-1,-1.358350296E0,-4.321363970E0,4.531488137E0
1.431141254E1,-2.569406891E-1,-1.449889627E0,-4.733632143E0,4.957365400E0
1.432135854E1,-2.066446942E-1,-1.351060572E0,-5.014128925E0,5.197071827E0
1.433130454E1,-3.387414819E-1,-1.222412472E0,-5.008943029E0,5.167063800E0
1.434125054E1,-6.332405913E-1,-8.090166646E-1,-5.064788616E0,5.167938210E0
1.435119654E1,-8.456421617E-1,9.581832290E-3,-5.438384766E0,5.503747027E0
1.436114254E1,-7.035992602E-1,9.543492097E-1,-5.845216489E0,5.964259396E0
1.437108754E1,-5.639364678E-1,1.518658730E0,-6.680246832E0,6.873866918E0
1.438103354E1,-3.070235530E-1,7.042433310E-1,-6.925507123E0,6.967989024E0
1.439097954E1,7.990325439E-1,-1.580938301E0,-5.915499437E0,6.175026519E0
1.440092554E1,2.876659362E0,-5.523274058E0,-4.724781797E0,7.816987171E0
1.441087154E1,4.020558054E0,-9.686760575E0,-3.320648972E0,1.100113299E1
1.442081654E1,3.949115896E0,-1.208919554E1,-1.619909701E0,1.282061905E1
1.443076254E1,5.250021392E0,-1.318150455E1,-6.771333003E-1,1.420469275E1
1.444070854E1,4.896494348E0,-1.110798247E1,1.019179044E0,1.218202189E1
1.445065454E1,3.798900049E0,-7.567548358E0,2.375296288E0,8.794399479E0
1.446060054E1,2.925315213E0,-5.132437978E0,3.485263295E0,6.859041400E0
1.447054654E1,2.582235097E0,-3.832076274E0,4.798497060E0,6.661705540E0
1.448049154E1,2.576397237E0,-3.269578806E0,5.752516487E0,7.100662942E0
1.449043754E1,2.481934007E0,-2.534289683E0,5.867666874E0,6.856539590E0
1.450038354E1,2.519336014E0,-2.101411538E0,5.792577515E0,6.657096865E0
1.451032954E1,2.934452072E0,-2.213428694E0,6.075016158E0,7.100429344E0
1.452027554E1,2.838166557E0,-2.471654894E0,6.207393612E0,7.259201249E0
1.453022054E1,2.231199114E0,-2.504965312E0,6.140949361E0,6.997453805E0
1.454016654E1,1.860292537E0,-2.373183689E0,5.943403519E0,6.664588100E0
1.455011254E1,1.500187376E0,-2.254064212E0,5.936166421E0,6.524525991E0
1.456005854E1,1.258141884E0,-1.947393538E0,5.456706432E0,5.928820091E0
1.457000454E1,1.160034522E0,-1.702918821E0,4.833462825E0,5.254329213E0
1.457995054E1,7.647089495E-1,-1.426906561E0,4.315329351E0,4.609003094E0
1.458989554E1,5.379609431E-1,-1.112093347E0,3.793410391E0,3.989500718E0
1.459984154E1,4.191421589E-1,-9.352906488E-1,3.019375863E0,3.188585791E0
1.460978754E1,3.751194955E-1,-7.632126470E-1,2.324886857E0,2.475541775E0
1.461973354E1,3.281974903E-1,-6.839353663E-1,1.961034508E0,2.102650118E0
1.462967954E1,3.895863841E-1,-6.824956356E-1,1.691995345E0,1.865590011E0
1.463962554E1,3.294811003E-1,-6.893588050E-1,1.388879778E0,1.585168886E0
1.464957054E1,2.280930121E-1,-5.754684927E-1,1.150525049E0,1.306483179E0
1.465951654E1,3.852666074E-1,-6.766710048E-1,1.148683176E0,1.387727295E0
1.466946254E1,4.171662386E-1,-7.543606934E-1,1.039346675E0,1.350307090E0
1.467940854E1,3.871290918E-1,-6.798060626E-1,9.182332975E-1,1.206299136E0
1.468935454E1,3.722650310E-1,-6.436489275E-1,9.358562207E-1,1.195279072E0
1.469929954E1,4.563626102E-1,-4.586181736E-1,9.052419537E-1,1.112681651E0
1.470924554E1,2.137113467E-1,-4.779671218E-2,6.916191924E-1,7.254613516E-1
1.471919154E1,1.645137513E-1,1.284729758E-1,7.104647684E-1,7.404932593E-1
1.472913754E1,5.086595222E-2,-1.054231786E-1,5.961826926E-1,6.075649716E-1
1.473908354E1,-9.155599505E-2,-4.786581896E-1,4.979675961E-1,6.967552579E-1
1.474902954E1,-1.932598329E-1,-8.283507755E-1,5.126020074E-1,9.931138849E-1
1.475897454E1,-7.149946064E-2,-9.018999776E-1,3.918862402E-1,9.859566764E-1
1.476892054E1,-1.579066899E-1,-6.483692385E-1,4.728409410E-2,6.689940043E-1
1.477886654E1,-3.759970164E-1,-4.685631180E-1,-1.936106658E-1,6.311974666E-1
1.478881254E1,-3.621739063E-1,-3.421243885E-1,-4.418354952E-1,6.659111355E-1
1.479875854E1,-3.041227493E-1,-4.038192379E-1,-7.148846787E-1,8.755688022E-1
1.480870354E1,-2.476155496E-1,-5.435557052E-1,-7.896922016E-1,9.901414234E-1
1.481864954E1,-1.125188479E-1,-6.819826886E-1,-7.536651671E-1,1.022629974E0
1.482859554E1,-9.861416906E-2,-9.070437732E-1,-7.254318863E-1,1.165634841E0
1.483854154E1,-1.533052236E-2,-1.037909137E0,-6.350871420E-1,1.216891976E0
1.484848754E1,1.933042717E-1,-1.182267536E0,-4.613687038E-1,1.283738349E0
1.485843354E1,3.903700572E-1,-1.207182230E0,-3.126915514E-1,1.306695727E0
1.486837854E1,4.505586639E-1,-1.188966399E0,-4.339592957E-1,1.343489813E0
1.487832454E1,4.879267573E-1,-8.774036524E-1,-6.125560659E-1,1.176067440E0
1.488827054E1,6.265759349E-1,-7.425981420E-1,-8.497507077E-1,1.290784904E0
1.489821654E1,6.125972888E-1,-7.272784370E-1,-9.956562799E-1,1.376786400E0
1.490816254E1,5.231226102E-1,-5.883731514E-1,-1.227887805E0,1.458611906E0
1.491810754E1,4.650819781E-1,-5.609888864E-1,-1.396625000E0,1.575300342E0
1.492805354E1,5.543938118E-1,-4.710546166E-1,-1.520052121E0,1.685171624E0
1.493799954E1,7.731381494E-1,-6.098909050E-1,-1.507121004E0,1.800311983E0
1.494794554E1,7.656034273E-1,-8.471872884E-1,-1.257097571E0,1.698284197E0
1.495789154E1,6.712790680E-1,-8.007954794E-1,-1.595945472E0,1.907598212E0
1.496783754E1,5.788094455E-1,-5.728944021E-1,-2.087360094E0,2.240602716E0
1.497778254E1,4.447865850E-1,-5.999927384E-1,-2.253113455E0,2.373677870E0
1.498772854E1,4.278925171E-1,-7.889063358E-1,-2.275832226E0,2.446400935E0
1.499767454E1,4.159551340E-1,-8.281516778E-1,-2.442479042E0,2.612385451E0
1.500762054E1,2.493638670E-1,-8.502371961E-1,-2.380863422E0,2.540392935E0
1.501756654E1,1.210806334E-1,-1.021095176E0,-2.368871952E0,2.582411703E0
1.502751154E1,-8.122951984E-3,-1.087627720E0,-2.277778180E0,2.524138165E0
1.503745754E1,-1.675841242E-1,-1.063939480E0,-2.345500631E0,2.580973628E0
1.504740354E1,-1.987070990E-1,-1.157136496E0,-2.405228770E0,2.676485534E0
1.505734954E1,-3.047773451E-1,-1.165498014E0,-2.536458415E0,2.808005724E0
1.506729554E1,-3.123670310E-1,-9.474518341E-1,-3.002380346E0,3.163783476E0
1.507724154E1,-3.381205076E-1,-7.711582822E-1,-3.529713244E0,3.628758212E0
1.508718654E1,-3.014315683E-1,-5.201548558E-1,-4.206279364E0,4.249024377E0
1.509713254E1,-2.854482043E-1,-2.292207938E-1,-5.020126414E0,5.033457267E0
1.510707854E1,-2.801108658E-1,-1.660439676E-1,-5.952685390E0,5.961585028E0
1.511702454E1,-3.638546884E-2,-1.143382090E-1,-6.715171081E0,6.716242981E0
1.512697054E1,3.282392979E-1,-1.956039816E-1,-6.881064776E0,6.891665575E0
1.513691554E1,5.762220526E-1,-7.799747139E-1,-6.655093864E0,6.725374841E0
1.514686154E1,2.804701772E-1,-1.110703171E0,-6.478729561E0,6.579229573E0
1.515680754E1,3.180873621E-1,-1.316497681E0,-6.272730984E0,6.417281333E0
1.516675354E1,4.095989183E-1,-1.765449822E0,-5.628230994E0,5.912830834E0
1.517669954E1,6.126583922E-1,-1.544033599E0,-5.434862988E0,5.683056023E0
1.518664554E1,1.009371217E0,-1.251516988E0,-5.627179665E0,5.852373536E0
1.519659054E1,1.268325979E0,-1.998565154E0,-5.230896903E0,5.741532537E0
1.520653654E1,1.998415173E0,-3.527178476E0,-5.013845919E0,6.447736200E0
1.521648254E1,2.120255944E0,-6.185209275E0,-4.478939123E0,7.925477570E0
1.522642854E1,3.065140266E0,-9.815257816E0,-3.290271517E0,1.079630759E1
1.523637454E1,3.388923108E0,-1.226912022E1,-2.161436130E0,1.291076748E1
1.524632054E1,3.072590496E0,-1.167698087E1,-1.630227113E-1,1.207556504E1
1.525626554E1,2.671682294E0,-9.193542672E0,1.831699945E0,9.747524703E0
1.526621154E1,2.057465911E0,-6.962226468E0,3.321061785E0,7.983433769E0
1.527615312E1,1.786613234E0,-4.943624368E0,4.779025247E0,7.104258656E0
1.528609912E1,1.930150976E0,-3.294470403E0,5.714746982E0,6.872943408E0
1.529604512E1,2.092556807E0,-2.620887532E0,6.431560657E0,7.253469372E0
1.530599012E1,1.936709360E0,-2.231506531E0,6.647089026E0,7.274218656E0
1.531593613E1,1.532911903E0,-2.374326235E0,6.411754968E0,7.006985496E0
1.532588212E1,1.383652221E0,-3.063219163E0,6.585393299E0,7.393592498E0
1.533582812E1,7.408751138E-1,-3.487164517E0,6.790955089E0,7.669829420E0
1.534577412E1,4.854261956E-1,-3.165523802E0,6.549792527E0,7.290813513E0
1.535572012E1,2.846909899E-1,-2.587861581E0,6.235398266E0,6.757090207E0
1.536566512E1,1.799460152E-1,-2.144507563E0,5.854149281E0,6.237175407E0
1.537561112E1,1.328782681E-1,-1.808344411E0,5.314714401E0,5.615510244E0
1.538555712E1,2.848696223E-1,-1.509720384E0,4.777517835E0,5.018474171E0
1.539550312E1,3.046158157E-1,-1.244673992E0,4.021795617E0,4.221000371E0
1.540544912E1,2.467443144E-1,-1.106684088E0,3.403602836E0,3.587498389E0
1.541539412E1,1.000493681E-1,-1.009826130E0,2.880391640E0,3.053917924E0
1.542534012E1,1.106392604E-1,-8.085771002E-1,2.529699619E0,2.658085426E0
1.543528612E1,2.981422171E-1,-7.841586891E-1,2.260040066E0,2.410720791E0
1.544523212E1,4.474872677E-1,-9.030113871E-1,1.970839704E0,2.213568060E0
1.545517812E1,6.120276238E-1,-1.019144545E0,1.880318373E0,2.224596728E0
1.546512412E1,6.389384106E-1,-1.094306263E0,1.810045366E0,2.209527714E0
1.547506912E1,7.303439860E-1,-9.763276508E-1,1.716402208E0,2.105387033E0
1.548501512E1,6.590348522E-1,-7.072247531E-1,1.592237168E0,1.862716561E0
1.549496112E1,5.938506769E-1,-5.653644309E-1,1.417501314E0,1.637560851E0
1.550490712E1,5.401570112E-1,-2.908801580E-1,1.323292730E0,1.458589905E0
1.551485312E1,4.229460651E-1,-3.515260169E-2,1.152272782E0,1.227946107E0
1.552479812E1,3.369327919E-1,-6.915922221E-2,9.587387145E-1,1.018570875E0
1.553474412E1,1.315300463E-1,-2.600095637E-1,9.528423822E-1,9.964003872E-1
1.554469012E1,4.777262896E-2,-4.089454919E-1,9.003367245E-1,9.900125539E-1
1.555463612E1,3.497395098E-2,-6.413150114E-1,7.587007892E-1,9.940498019E-1
1.556458212E1,1.977411389E-2,-9.360117567E-1,8.603265667E-1,1.271483710E0
1.557452812E1,8.374499202E-2,-1.097877596E0,6.138301742E-1,1.260609346E0
1.558447312E1,2.264018512E-1,-1.101169140E0,4.074094284E-1,1.195748182E0
1.559441912E1,2.622321269E-1,-1.122271888E0,4.900949049E-1,1.252378894E0
1.560436512E1,3.122199735E-1,-1.114358266E0,3.228142512E-1,1.201451080E0
1.561431112E1,2.115943623E-1,-7.857938629E-1,-2.662681675E-1,8.562376459E-1
1.562425712E1,1.179126120E-1,-4.912900758E-1,-5.224984199E-1,7.268245465E-1
1.563420212E1,4.231513023E-2,-3.200602126E-1,-6.040015894E-1,6.848700825E-1
1.564414812E1,2.496176362E-1,-3.174596635E-1,-7.912621790E-1,8.883610967E-1
1.565409412E1,4.781048968E-1,-4.345083493E-1,-7.209517497E-1,9.680667453E-1
1.566404012E1,5.538845193E-1,-5.742334145E-1,-5.283602536E-1,9.569203899E-1
1.567398612E1,6.192473271E-1,-7.654882371E-1,-4.546876752E-1,1.084518499E0
1.568393212E1,8.129600269E-1,-1.040723110E0,-4.356181508E-1,1.390601226E0
1.569387712E1,9.991207552E-1,-1.544103473E0,-1.906127983E-1,1.849008128E0
1.570382312E1,1.030421485E0,-1.904116541E0,-5.460597754E-2,2.165735453E0
1.571376912E1,8.492519403E-1,-1.683415141E0,-4.247171867E-1,1.932744184E0
1.572371512E1,8.466803348E-1,-1.382282365E0,-9.741689318E-1,1.891184082E0
1.573366112E1,7.060963136E-1,-1.332192777E0,-1.154168449E0,1.898792882E0
1.574360612E1,5.832597613E-1,-1.119413769E0,-1.119348280E0,1.687074304E0
1.575355212E1,3.833867276E-1,-9.024130708E-1,-1.221717238E0,1.566501754E0
1.576349812E1,4.697939569E-1,-7.950336331E-1,-1.641341500E0,1.883291470E0
1.577344412E1,7.071616763E-1,-8.931645298E-1,-2.050244600E0,2.345490020E0
1.578339012E1,9.992920786E-1,-1.056483110E0,-2.122969345E0,2.573274190E0
1.579333612E1,1.113462473E0,-1.254890247E0,-2.370637227E0,2.904215741E0
1.580328112E1,9.027393454E-1,-1.231071029E0,-2.757213610E0,3.151618806E0
1.581322712E1,5.293513566E-1,-9.543772763E-1,-3.264021612E0,3.441640005E0
1.582317312E1,1.650926256E-1,-7.956873518E-1,-3.645550387E0,3.735024974E0
1.583311912E1,1.432567835E-2,-8.013433635E-1,-3.755212870E0,3.839789071E0
1.584306512E1,-1.111029446E-2,-8.502921599E-1,-3.897840200E0,3.989521077E0
1.585301012E1,-1.016748941E-1,-1.065165641E0,-3.996404376E0,4.137168544E0
1.586295612E1,-3.156519967E-1,-1.070232253E0,-4.136287608E0,4.284146173E0
1.587290212E1,-4.277080375E-1,-9.483289164E-1,-4.592122215E0,4.708486841E0
1.588284812E1,-6.212958992E-1,-1.033126407E0,-4.869680186E0,5.016686544E0
1.589279412E1,-5.162986171E-1,-1.072876364E0,-5.154841000E0,5.290558920E0
1.590274012E1,-3.530847019E-1,-1.400750796E0,-5.273793247E0,5.468058779E0
1.591268512E1,5.270504773E-2,-1.808119293E0,-5.620329652E0,5.904250892E0
1.592263112E1,1.329972589E-1,-1.823457710E0,-5.868799480E0,6.146990615E0
1.593257712E1,3.418808520E-2,-2.029790747E0,-5.889734851E0,6.229782975E0
1.594252312E1,-2.094759160E-1,-1.658407184E0,-6.221391846E0,6.442042459E0
1.595246912E1,-4.504022509E-1,-1.120724130E0,-6.480457413E0,6.592056815E0
1.596241512E1,-6.706744659E-1,-4.448912501E-1,-6.537388828E0,6.586743137E0
1.597236012E1,-4.520499963E-1,2.269649380E-1,-6.562404386E0,6.581870070E0
