"Time (s)","Linear Acceleration x (m/s^2)","Linear Acceleration y (m/s^2)","Linear Acceleration z (m/s^2)","Absolute acceleration (m/s^2)"
1.023879164E-2,-1.879321263E-2,-2.693156723E-2,3.828347504E-2,5.043925670E-2
2.021679166E-2,1.371666000E-3,-1.133644466E-2,-1.019766104E-1,1.026139636E-1
3.019479167E-2,-1.410181107E-2,-1.445638189E-2,-1.605762362E-2,2.580107225E-2
4.017379164E-2,-5.932505059E-3,-8.575078798E-3,-2.159552157E-2,2.398109974E-2
5.015179166E-2,-1.449741633E-2,7.129423250E-3,-5.587540805E-2,5.816412108E-2
6.013079168E-2,-3.922114003E-2,-2.690258240E-3,-3.336421251E-3,3.945461977E-2
7.010879164E-2,-2.358317290E-2,3.897612342E-3,-5.078891516E-2,5.613262268E-2
8.008779166E-2,-1.940274261E-2,4.511807528E-3,-1.321704626E-2,2.390634100E-2
9.006579168E-2,-2.204505597E-2,-1.391214773E-2,-1.576175451E-2,3.046252209E-2
1.000447916E-1,-2.220823440E-2,-2.163838440E-2,-3.671876013E-2,4.805926238E-2
1.100227917E-1,-1.887452776E-2,-1.395873359E-2,-1.246918738E-2,2.658147241E-2
1.200017917E-1,-3.527918135E-4,-3.654966597E-3,-1.321763098E-2,1.371820002E-2
1.299797916E-1,-2.163037646E-2,-2.336398910E-2,-3.222868323E-2,4.530383202E-2
1.399587917E-1,2.245573607E-2,-5.239388906E-2,-3.148023963E-2,6.511824000E-2
1.499367917E-1,2.997172651E-2,-2.179023385E-2,-4.794775307E-2,6.059790183E-2
1.599147916E-1,7.810683260E-3,7.865875494E-4,-5.423467934E-2,5.479987168E-2
1.698937917E-1,9.698703513E-3,-3.931095874E-2,-1.217448771E-2,4.228042665E-2
1.798723333E-1,2.051584690E-2,-3.072915564E-2,6.537187099E-3,3.752220404E-2
1.898513333E-1,-3.846964262E-3,4.232219257E-3,-6.890534341E-2,6.914229650E-2
1.998293333E-1,-6.892597769E-2,8.163772859E-3,-1.801117837E-2,7.170662545E-2
2.098083333E-1,-4.701449177E-2,1.020576218E-2,-7.681487203E-3,4.871883890E-2
2.197863333E-1,-2.494949817E-2,1.448068438E-2,-4.211047769E-2,5.104370686E-2
2.297653334E-1,-1.603380764E-2,-8.763528164E-3,-2.788946450E-2,3.334223513E-2
2.397433333E-1,-3.855169322E-2,-9.937904882E-3,-2.819059610E-2,4.878221717E-2
2.497223333E-1,-2.130033311E-2,-1.062803165E-2,-3.088499308E-2,3.899412833E-2
2.597003334E-1,3.466608594E-2,-1.153837003E-2,-5.154203653E-2,6.317794732E-2
2.696793333E-1,1.699774056E-2,-3.850190966E-2,5.496382713E-4,4.209064425E-2
2.796573333E-1,-9.586269093E-3,-1.391924204E-2,-3.627320230E-2,4.001733448E-2
2.896353333E-1,-8.988582583E-3,5.644422336E-3,-3.133405924E-2,3.308288664E-2
2.996143333E-1,-1.697156856E-2,-4.531637812E-4,-7.233590484E-3,1.845438506E-2
3.095923333E-1,-2.265274384E-2,-6.923153582E-3,-2.609378457E-2,3.524148766E-2
3.195713333E-1,-2.008166145E-2,-1.416453274E-2,-4.749810219E-2,5.347875116E-2
3.295493333E-1,-2.481387475E-2,-5.310628549E-3,-9.923894405E-3,2.724729043E-2
3.395283333E-1,3.979358301E-3,-2.125448272E-2,-2.025124669E-2,2.962602438E-2
3.495063333E-1,9.825074177E-3,-1.268933505E-2,-2.039918125E-2,2.595530586E-2
3.594853333E-1,4.202726792E-3,-5.820007827E-3,-2.683404207E-2,2.777771080E-2
3.694633333E-1,-1.187180294E-2,-2.405998135E-2,-6.590221345E-2,7.115422789E-2
3.794423333E-1,-6.520403192E-3,-1.514533921E-2,-1.425902009E-2,2.179946356E-2
3.894203333E-1,-5.442189531E-2,2.018872716E-2,-5.826750398E-2,8.224615136E-2
3.993983333E-1,-1.113126769E-1,5.364619363E-3,-2.099501252E-2,1.134023004E-1
4.093773333E-1,-1.071244283E-2,-2.196920433E-2,-1.800123811E-2,3.035534457E-2
4.193553333E-1,3.588369780E-2,-2.525677849E-2,-1.994719148E-2,4.820202356E-2
4.293343333E-1,7.862175874E-3,-1.029584584E-2,-5.317808747E-2,5.473323705E-2
4.393123333E-1,1.838392809E-2,-4.022328427E-2,-1.635466218E-2,4.715248015E-2
4.492913333E-1,6.570151235E-2,-5.850853260E-2,-2.653349519E-2,9.189104134E-2
4.592693333E-1,9.180112129E-2,-4.534799877E-2,-6.425505280E-2,1.208825822E-1
4.692483333E-1,-7.323343531E-4,-1.238846839E-2,-1.695341706E-2,2.101020735E-2
4.792263333E-1,-8.108695742E-2,1.343223750E-2,-2.009629548E-2,8.461312404E-2
4.892053333E-1,-8.143821063E-2,2.116639076E-2,-4.689057648E-2,9.632717379E-2
4.991833333E-1,-6.085611660E-2,1.701940837E-2,-2.862855256E-2,6.937377898E-2
5.091623333E-1,-9.087309508E-2,3.037538996E-2,-3.985520661E-2,1.037738947E-1
5.191403333E-1,-7.599116379E-2,3.788474975E-2,-3.266956329E-2,9.097918226E-2
5.291183333E-1,-2.116313368E-2,-1.841471848E-2,-1.934668243E-2,3.407747357E-2
5.390973333E-1,6.073482342E-2,-4.897922019E-2,-2.578271270E-2,8.217317725E-2
5.490753333E-1,8.198596682E-2,-5.393205852E-2,-2.847710967E-2,1.021827357E-1
5.590543333E-1,2.893708454E-2,-4.020350880E-2,-1.156228423E-2,5.086613214E-2
5.690323333E-1,4.916839588E-2,-4.612832340E-2,-2.683111846E-2,7.256212712E-2
5.790113333E-1,3.452388897E-2,-2.772940611E-2,-4.000489533E-2,5.967587890E-2
5.889893333E-1,-2.301176288E-2,4.279522318E-4,-2.458754182E-2,3.367894872E-2
5.989683333E-1,-9.386309621E-2,3.544734247E-2,-2.713225007E-2,1.039372595E-1
6.089463333E-1,-9.589792726E-2,3.532000108E-2,-3.177260041E-2,1.070206198E-1
6.189253333E-1,-5.010791553E-2,9.190228726E-3,-5.871540070E-2,7.773520298E-2
6.289033333E-1,-5.149897727E-2,-5.205392372E-5,-3.371679962E-2,6.155460946E-2
6.388813333E-1,-2.292366407E-2,-4.423692729E-4,-3.479678035E-3,2.319047702E-2
6.488603333E-1,3.517020729E-2,-2.125615922E-2,-3.970434844E-2,5.714195544E-2
6.588383333E-1,4.745084024E-2,-5.435044964E-2,-3.611298859E-2,8.068272158E-2
6.688173334E-1,8.861187628E-2,-6.249748485E-2,-1.845088899E-2,1.099928886E-1
6.787953333E-1,5.543470158E-2,-4.953649181E-2,-3.566684604E-2,8.245601292E-2
6.887743333E-1,2.314861514E-2,-1.447835006E-2,-1.845322788E-2,3.295455389E-2
6.987523334E-1,-2.673430822E-2,-7.645485713E-3,-2.773509800E-2,3.927355788E-2
7.087313333E-1,-7.284677790E-2,6.285185809E-3,-7.676809430E-3,7.351931728E-2
7.187093333E-1,-9.181583069E-2,4.468729537E-2,-5.662560582E-2,1.167628381E-1
7.286883333E-1,-8.975962990E-2,2.922407777E-2,-5.732025504E-3,9.457110551E-2
7.386663333E-1,-6.786318686E-2,1.933681525E-2,-4.419968784E-2,8.326425980E-2
7.486443333E-1,7.342125998E-3,-2.666820955E-2,-2.818241000E-2,3.948858631E-2
7.586233333E-1,2.591693827E-2,-2.768299383E-2,-1.965015292E-2,4.271023703E-2
7.686013333E-1,6.004572905E-2,-4.761978823E-2,-3.761279941E-2,8.536894334E-2
7.785803333E-1,5.771158452E-2,-5.465979933E-2,-3.282276034E-2,8.599798978E-2
7.885583333E-1,4.327061095E-2,-4.425125754E-2,-2.683462679E-2,6.745825940E-2
7.985373333E-1,3.357566930E-2,-9.487829162E-3,-2.563770175E-2,4.329706944E-2
8.085153333E-1,-3.333325882E-2,9.434094164E-3,-3.237427890E-2,4.741521075E-2
8.184943333E-1,-6.770620739E-2,2.702609570E-2,-2.788420200E-2,7.805170779E-2
8.284723333E-1,-7.561818909E-2,1.815360376E-2,-3.072711825E-2,8.361710140E-2
8.384513333E-1,-7.495752225E-2,1.803279023E-2,-3.731342196E-2,8.565105442E-2
8.484293333E-1,-4.847261833E-2,-8.382120682E-4,-2.114587069E-2,5.289087988E-2
8.584083333E-1,-3.670859146E-3,-1.590098220E-2,-3.132470369E-2,3.532072342E-2
8.683863333E-1,2.687495431E-2,-3.027459858E-2,-2.473723054E-2,4.744201791E-2
8.783643333E-1,3.764017854E-2,-2.806795532E-2,-2.294155061E-2,5.225808933E-2
8.883433333E-1,3.712500001E-2,-2.585375180E-2,-2.713283479E-2,5.275294145E-2
8.983213333E-1,3.650990947E-2,-2.241055948E-2,-1.815268099E-2,4.652662133E-2
9.083003333E-1,-9.793168022E-3,-2.867306905E-2,-2.129555941E-2,3.703446880E-2
9.182783333E-1,-5.431021806E-2,-1.435827658E-2,-4.749283969E-2,7.356174083E-2
9.282573333E-1,-7.613588695E-2,2.416353189E-2,-3.357120395E-2,8.664626529E-2
9.382353333E-1,-5.893288971E-2,4.300057466E-2,1.118572354E-2,7.380552365E-2
9.482143333E-1,-3.044781321E-2,3.247269485E-2,-1.111731112E-2,4.588180300E-2
9.581923333E-1,-2.413723769E-2,-1.919659171E-2,-4.943703890E-2,5.826779721E-2
9.681713333E-1,-2.515788517E-2,-1.808414523E-2,-4.659236848E-2,5.595359055E-2
9.781493333E-1,3.705000718E-2,-1.144401516E-2,-2.937816560E-2,4.864920482E-2
9.881273333E-1,5.764902845E-2,-3.587595709E-2,-2.024715364E-2,7.085507750E-2
9.981063333E-1,4.486222305E-2,-4.599964811E-2,-3.581419587E-2,7.356115354E-2
1.008084333E0,9.176018393E-3,-2.379341684E-2,-4.464524567E-2,5.141521136E-2
1.018063333E0,-2.176560702E-2,-6.112482813E-3,-2.009746492E-2,3.024916844E-2
1.028041333E0,-1.711230373E-2,2.172757728E-2,-6.924272776E-3,2.851077177E-2
1.038020333E0,-4.220471836E-2,-1.664478458E-3,-3.162349641E-2,5.276413806E-2
1.047998333E0,-7.174964838E-2,-5.354724778E-3,-3.596388459E-2,8.043684550E-2
1.057977333E0,-6.084792136E-2,1.486875221E-2,-2.743162751E-2,6.838160216E-2
1.067955333E0,-1.893373424E-2,1.632601996E-2,-2.189256012E-2,3.323115118E-2
1.077934333E0,6.534963559E-3,-2.365968919E-2,-3.221991241E-2,4.050443676E-2
1.087912333E0,1.919557759E-2,-2.926522755E-2,-4.045337677E-2,5.349205020E-2
1.097891333E0,3.975925289E-2,-2.107958701E-2,-1.949754059E-2,4.904387085E-2
1.107869333E0,2.381687423E-2,-1.575053974E-2,-2.518571198E-2,3.807417876E-2
1.117847333E0,-1.030991456E-3,-2.255341426E-2,-2.862913728E-2,3.646021036E-2
1.127826333E0,-3.408026802E-2,-2.405803990E-2,-4.299925447E-2,5.990984758E-2
1.137804333E0,-3.711663347E-2,-1.664899640E-2,-2.758073151E-2,4.914804484E-2
1.147783333E0,-4.788518786E-2,1.007098386E-2,-1.500629425E-2,5.118207498E-2
1.157761333E0,-2.365941967E-2,3.176335450E-3,-2.997399688E-2,3.831837333E-2
1.167740333E0,-1.278597171E-2,-7.158412649E-3,-2.533306181E-2,2.926581564E-2
1.177718167E0,7.193754043E-4,-1.144079005E-2,-2.458520293E-2,2.712639639E-2
1.187697167E0,5.552939107E-3,-2.368009963E-2,-1.859706938E-2,3.061753159E-2
1.197675167E0,9.857359487E-3,-3.494795371E-2,-2.533364654E-2,4.427550848E-2
1.207654167E0,2.224616135E-2,-3.565680527E-2,-3.132178009E-2,5.241520166E-2
1.217632167E0,-2.794610483E-3,-2.378483331E-2,-2.189197540E-2,3.244667518E-2
1.227610167E0,-8.881993095E-3,-6.535862340E-3,-3.760870636E-2,3.919211772E-2
1.237589167E0,-3.518938205E-2,3.725516908E-3,-2.099384308E-2,4.114503047E-2
1.247567167E0,-4.275611536E-2,1.153435921E-2,-2.533364654E-2,5.101882486E-2
1.257546167E0,-3.027485896E-2,-6.989460094E-3,-2.653057158E-2,4.085695615E-2
1.267524167E0,-2.296187654E-2,7.588214977E-3,-2.608033597E-2,3.556701710E-2
1.277503167E0,-1.651714854E-2,-1.827688864E-3,-2.937290311E-2,3.374794926E-2
1.287481167E0,1.562970451E-3,-1.595241942E-2,-2.697729886E-2,3.137988553E-2
1.297460167E0,-5.419390186E-3,-2.847271512E-2,-3.206613064E-2,4.322385951E-2
1.307438167E0,1.558511150E-2,-1.885433774E-2,-1.649967313E-2,2.950628688E-2
1.317417167E0,3.665222293E-2,-2.935409152E-2,-2.802453518E-2,5.468475753E-2
1.327395167E0,1.640656079E-2,-1.157037440E-2,-1.724694729E-2,2.646707372E-2
1.337373167E0,-1.722381196E-2,-4.886792209E-3,-1.919348538E-2,2.624748212E-2
1.347352167E0,-2.840310128E-2,-1.755785471E-2,-3.506107450E-2,4.841790339E-2
1.357330167E0,-3.973279424E-2,-4.365307367E-3,-4.943119168E-2,6.357038271E-2
1.367309167E0,-2.372632918E-2,-2.455990459E-3,-2.398410916E-2,3.382614489E-2
1.377287167E0,-1.141606729E-2,-1.483804976E-2,-4.030017972E-2,4.443645799E-2
1.387266167E0,-1.228713455E-2,-9.039566992E-3,-2.502959132E-2,2.931156578E-2
1.397244167E0,-1.451337854E-2,-1.719180530E-2,-2.832332790E-2,3.617191216E-2
1.407223167E0,5.026830740E-3,-2.064819498E-2,-2.652764797E-2,3.399019108E-2
1.417201167E0,1.155795478E-2,-1.659503299E-2,-2.473079860E-2,3.194673439E-2
1.427180167E0,-3.113333986E-4,-1.476988401E-3,-2.218609035E-2,2.223737908E-2
1.437158167E0,-6.938602451E-3,-5.330860829E-3,-1.574947536E-2,1.801688806E-2
1.447137167E0,-1.153682829E-2,-9.656320335E-3,-1.799363673E-2,2.345450686E-2
1.457115167E0,-1.589300737E-2,-5.495112771E-3,-1.784277856E-2,2.451833385E-2
1.467093167E0,-3.174607324E-2,1.194044834E-2,-2.128503442E-2,4.004297894E-2
1.477072167E0,-3.291434236E-2,-6.332854321E-4,-3.311044335E-2,4.669107455E-2
1.487050167E0,1.475454649E-2,-7.130049085E-3,-1.904028833E-2,2.512104341E-2
1.497029167E0,-7.660940863E-3,-1.806077464E-2,-3.370978296E-2,3.900296223E-2
1.507007167E0,-6.122986103E-3,-2.106980206E-2,-3.430853784E-2,4.072472574E-2
1.516986167E0,-9.921090711E-3,-1.456796321E-2,-2.143472314E-2,2.775069277E-2
1.526964167E0,4.270962200E-3,-6.250906507E-3,-2.517577171E-2,2.628943574E-2
1.536943167E0,-2.499227878E-4,-1.307802414E-2,-2.742051780E-2,3.038061838E-2
1.546921167E0,-1.338975383E-2,-1.196136584E-2,-3.026518822E-2,3.519007528E-2
1.556900167E0,-1.820888621E-2,-5.129122753E-3,-3.775079370E-2,4.222551198E-2
1.566878167E0,-2.724952786E-2,-1.300955233E-3,-1.245398462E-2,2.998884769E-2
1.576856167E0,-2.903133435E-2,-5.530122975E-3,-1.664585352E-2,3.391880118E-2
1.586835167E0,-7.020724996E-3,1.660755426E-3,-3.790165186E-2,3.858217078E-2
1.596813167E0,-2.203562619E-3,-5.167170768E-3,-3.326071680E-2,3.373174504E-2
1.606792167E0,1.866218818E-3,-1.786513960E-2,-2.891857445E-2,3.404305999E-2
1.616770167E0,-7.166121381E-3,-3.072509457E-2,-2.876888573E-2,4.269699659E-2
1.626749167E0,-9.932210699E-3,-1.115120213E-2,-3.595394433E-2,3.893178946E-2
1.636727167E0,4.598308633E-3,-1.283128991E-2,-3.311102808E-2,3.580679577E-2
1.646706167E0,-8.982202609E-4,-1.318127318E-2,-3.041604638E-2,3.316155364E-2
1.656684167E0,-2.771931281E-2,-9.874238754E-3,-2.712230980E-2,4.001850300E-2
1.666663167E0,-1.998050233E-2,-1.135428781E-3,-3.580542505E-2,4.101875345E-2
1.676641167E0,-2.221080169E-2,-1.733038431E-2,-3.700293481E-2,4.650676421E-2
1.686620167E0,-5.280854573E-3,-4.120322736E-4,-3.415884912E-2,3.456709662E-2
1.696598167E0,-1.136299696E-2,-8.629119862E-4,-3.101538599E-2,3.304264646E-2
1.706576167E0,-2.524939638E-3,-2.947920823E-2,-2.413028955E-2,3.817944358E-2
1.716555167E0,1.576728424E-2,-2.385508670E-2,-2.338184595E-2,3.693755722E-2
1.726533167E0,1.242790512E-2,-2.331754485E-2,-2.802161157E-2,3.851456139E-2
1.736512167E0,7.592017380E-3,-2.199000763E-3,-3.131476343E-2,3.229688438E-2
1.746490167E0,3.128949592E-3,-5.532393339E-3,-2.308188379E-2,2.394099122E-2
1.756469167E0,-1.005787330E-2,-8.402946820E-3,-3.625390649E-2,3.855017596E-2
1.766447167E0,-1.297096528E-2,-1.704052230E-3,-4.074456811E-2,4.279333552E-2
1.776426167E0,-1.456986356E-2,8.558706595E-3,-3.191351831E-2,3.611100987E-2
1.786404167E0,-2.089974859E-2,-8.477124232E-3,-3.041663110E-2,3.786598175E-2
1.796383167E0,-7.051063708E-3,-8.945107050E-3,-3.610363305E-2,3.785769088E-2
1.806361167E0,-1.217605572E-2,-4.719698885E-3,-2.487580955E-2,2.809515601E-2
1.816339167E0,-3.645825754E-3,-4.037292274E-3,-3.565398216E-2,3.606658035E-2
1.826318167E0,6.308011649E-3,-2.389220281E-2,-2.577511132E-2,3.570692831E-2
1.836296167E0,2.341927042E-2,-1.947755499E-2,-2.742110252E-2,4.098480498E-2
1.846275167E0,4.651570829E-3,-2.360286613E-2,-2.906826317E-2,3.773190063E-2
1.856253167E0,-1.948894336E-2,-1.395433447E-3,-2.847009301E-2,3.452987611E-2
1.866232167E0,-2.495826671E-2,-1.270280192E-3,-2.592538476E-2,3.600908585E-2
1.876210167E0,-1.495320793E-2,-7.380017554E-3,-2.233285546E-2,2.787148219E-2
1.886189167E0,-3.403807214E-2,1.352010105E-2,-2.652413964E-2,4.522071949E-2
1.896167167E0,-2.673840355E-2,-1.821416812E-3,-3.565456688E-2,4.460390032E-2
1.906146167E0,-6.191227221E-3,-8.439660938E-3,-2.831923485E-2,3.019169147E-2
1.916124167E0,-1.148041179E-2,-6.324585993E-4,-2.667207420E-2,2.904478268E-2
1.926102167E0,-9.311342606E-4,-1.702198480E-2,-3.176266015E-2,3.604832253E-2
1.936081167E0,-6.420030939E-3,-1.884509183E-2,-2.248312891E-2,3.003074039E-2
1.946059167E0,3.210652439E-4,-2.017558463E-2,-2.398001611E-2,3.134004580E-2
1.956038167E0,1.170432132E-3,-8.163197273E-3,-2.936822534E-2,3.050410399E-2
1.966016167E0,-1.944900870E-2,-1.236425727E-3,-2.427880883E-2,3.113283229E-2
1.975995167E0,-1.199915118E-2,-7.059786567E-3,-2.397943139E-2,2.772784422E-2
1.985973167E0,-1.707649638E-2,5.771827684E-3,-1.963845849E-2,2.665688983E-2
1.995952167E0,-1.406487883E-2,6.428058869E-3,-2.936881006E-2,3.319138083E-2
2.005930167E0,-9.392960943E-3,8.439852800E-3,-2.368005395E-2,2.683661278E-2
2.015909167E0,-1.756231778E-2,-7.087880610E-3,-2.382974267E-2,3.043895026E-2
2.025887167E0,1.026236939E-2,-6.357248174E-4,-1.874032617E-2,2.137569172E-2
2.035865167E0,1.386057574E-2,-1.392924170E-2,-3.041546166E-2,3.621104310E-2
2.045844167E0,8.818092850E-3,-1.958088626E-2,-2.951849878E-2,3.650358391E-2
2.055822167E0,6.369828824E-3,-2.222053410E-2,-3.086511254E-2,3.856140593E-2
2.065801167E0,-1.272825101E-2,-8.988591149E-3,-3.700293481E-2,4.014997297E-2
2.075779167E0,-2.829726896E-3,-1.296737929E-2,-2.517811060E-2,2.846221238E-2
2.085758167E0,-2.356799983E-2,-9.924881123E-3,-2.877122462E-2,3.849334030E-2
2.095736167E0,1.752251788E-4,-1.172990289E-2,-3.221523464E-2,3.428472938E-2
2.105715167E0,-1.372619713E-2,-1.568241511E-4,-3.535928249E-2,3.793035644E-2
2.115693167E0,-1.439181356E-2,-9.792720345E-3,-2.293570340E-2,2.879354371E-2
2.125672167E0,1.225539285E-3,-4.759903061E-3,-2.248663723E-2,2.301754717E-2
2.135650167E0,5.773702333E-3,-1.540851417E-2,-2.592947781E-2,3.070986433E-2
2.145629167E0,-4.274740621E-3,-1.411023586E-2,-2.413262844E-2,2.827995613E-2
2.155607167E0,-4.886397636E-3,-8.438751879E-3,-3.191644192E-2,3.337287341E-2
2.165585167E0,-1.331654943E-2,-1.450892004E-2,-3.416235745E-2,3.943229534E-2
2.175563958E0,-7.302280421E-3,-2.332452953E-2,-2.113943875E-2,3.231459187E-2
2.185541958E0,-1.161868931E-2,1.338244937E-3,-3.491080105E-2,3.681777928E-2
2.195520958E0,-1.285141256E-2,-2.930341261E-3,-3.610889554E-2,3.843953748E-2
2.205498958E0,-1.689474048E-2,-1.056706072E-3,-3.191878080E-2,3.612973086E-2
2.215477958E0,-2.462035817E-3,-1.126820126E-2,-1.470457792E-2,1.868846146E-2
2.225455958E0,-1.236713177E-2,-1.537610780E-2,-3.386648834E-2,3.919578640E-2
2.235434958E0,-1.696663040E-2,-9.097947786E-3,-3.042364776E-2,3.600329907E-2
2.245412958E0,-9.411302585E-3,-4.977670731E-3,-1.994485259E-2,2.260855960E-2
2.255391958E0,-8.067601579E-3,-7.815114353E-3,-3.596154571E-2,3.767485869E-2
2.265369958E0,-3.693591339E-3,-9.758363385E-3,-2.787835479E-2,2.976694372E-2
2.275347958E0,-9.375001882E-3,-1.340844664E-2,-3.057275176E-2,3.467521091E-2
2.285326958E0,-2.211912032E-3,-1.009317587E-2,-2.653115630E-2,2.847221468E-2
2.295304958E0,-1.380530356E-2,-1.414930257E-2,-2.652998686E-2,3.308518358E-2
2.305283958E0,-1.597489238E-2,-1.158328853E-2,-3.206730008E-2,3.765211141E-2
2.315261958E0,5.386263768E-3,2.036676574E-3,-1.949461699E-2,2.032732103E-2
2.325240958E0,1.883891799E-3,-3.441648292E-3,-3.027278960E-2,3.052598535E-2
2.335218958E0,-6.733382312E-3,-1.329348490E-2,-2.174111724E-2,2.635775706E-2
2.345197958E0,-8.639937782E-3,-1.576523087E-2,-2.877590239E-2,3.392998066E-2
2.355175958E0,-1.282859243E-2,-1.961479097E-2,-2.473313749E-2,3.407405022E-2
2.365154958E0,-2.338858852E-3,-2.792872307E-3,-2.159025908E-2,2.189542608E-2
2.375132958E0,-2.634311122E-3,-3.039538013E-3,-2.308714628E-2,2.343490367E-2
2.385110958E0,-4.872717778E-4,-6.492862464E-3,-2.967344999E-2,3.037940637E-2
2.395089958E0,-5.440521247E-3,-8.304955708E-3,-3.416411161E-2,3.557749405E-2
2.405067958E0,-6.637196757E-3,-1.459793933E-2,-3.745726347E-2,4.074553718E-2
2.415046958E0,-1.070094254E-2,-8.754254845E-3,-2.862445951E-2,3.178847010E-2
2.425024958E0,-1.933533518E-2,7.404612405E-3,-3.700702786E-2,4.240523060E-2
2.435003958E0,7.277442317E-5,-9.088930283E-3,-3.012193143E-2,3.146338671E-2
2.444981958E0,-8.441029667E-3,-1.217257823E-2,-3.506341338E-2,3.806396722E-2
2.454960958E0,-1.200688618E-2,-1.275085872E-2,-3.132178009E-2,3.588598085E-2
2.464938958E0,1.074774653E-2,-4.076331574E-3,-2.174170196E-2,2.459333525E-2
2.474917958E0,-8.285362967E-3,-2.390003717E-3,-2.533364654E-2,2.676103518E-2
2.484895958E0,-1.159566818E-2,-1.383798402E-2,-1.680197418E-2,2.466283963E-2
2.494873958E0,6.135053979E-3,-9.802372819E-3,-1.829886138E-2,2.164656389E-2
2.504852958E0,-1.186796570E-2,-1.125374311E-2,-2.802979767E-2,3.245250224E-2
2.514830958E0,-1.161122954E-2,-1.436588709E-2,-2.563419342E-2,3.159606361E-2
2.524809958E0,-3.267822106E-3,-2.006746139E-3,-2.563477814E-2,2.592002202E-2
2.534787958E0,9.862671088E-4,-1.314402916E-2,-3.491489410E-2,3.732007577E-2
2.544766958E0,-2.755847326E-2,-8.756972887E-3,-3.566275299E-2,4.591280838E-2
2.554744958E0,-2.344142588E-2,-7.588717472E-3,-3.611240387E-2,4.371721393E-2
2.564723958E0,-6.129816039E-3,-1.638356022E-2,-2.952668488E-2,3.431939408E-2
2.574701958E0,-2.473019104E-2,-7.322449889E-3,-3.042540193E-2,3.988615930E-2
2.584680958E0,3.363772402E-3,-2.249031459E-2,-3.132411897E-2,3.870826326E-2
2.594658958E0,3.240410998E-3,-1.412691413E-2,-1.904847443E-2,2.393562918E-2
2.604636958E0,-7.214048564E-3,-7.655540183E-3,-4.105096221E-2,4.237724968E-2
2.614615958E0,9.344658031E-3,-1.306778695E-2,-2.847710967E-2,3.269610779E-2
2.624593958E0,-3.597318989E-3,-1.031584058E-2,-2.742928863E-2,2.952495801E-2
2.634572958E0,-1.125050544E-2,-5.806408483E-3,-2.144115508E-2,2.490002777E-2
2.644550958E0,-1.810534481E-2,-8.474662006E-3,-2.922613800E-2,3.540890494E-2
2.654529958E0,2.457728064E-3,-2.336602192E-4,-3.940614045E-2,3.948340068E-2
2.664507958E0,3.071248308E-3,-8.529936466E-3,-2.264158845E-2,2.438921708E-2
2.674486958E0,-3.288514054E-3,-2.817211342E-3,-4.060365021E-2,4.083390032E-2
2.684464958E0,-9.648686978E-3,-5.144083402E-3,-3.087446809E-2,3.275349652E-2
2.694443958E0,-5.335138889E-3,-7.813140918E-3,-2.743162751E-2,2.901728909E-2
2.704421958E0,-6.262964106E-3,-1.071689562E-2,-3.326890290E-2,3.550910406E-2
2.714400958E0,9.494051536E-3,-1.412779121E-2,-1.770010650E-2,2.455657283E-2
2.724378958E0,-1.478318643E-2,-9.524716870E-3,-2.039450347E-2,2.692951177E-2
2.734356958E0,-1.417088702E-2,-6.517128409E-3,-3.476462066E-2,3.810335748E-2
2.744335958E0,-3.131588262E-3,-1.672482291E-2,-3.551306427E-2,3.937898272E-2
2.754313958E0,-4.644069948E-3,-1.393193690E-2,-2.473606110E-2,2.876697707E-2
2.764292958E0,-1.939093169E-3,-5.993409748E-3,-3.102298737E-2,3.165607032E-2
2.774270958E0,-2.796301265E-3,-9.377097515E-3,-2.997458160E-2,3.153133046E-2
2.784249958E0,-1.341133599E-2,-1.889123458E-2,-4.075275421E-2,4.687781621E-2
2.794227958E0,5.413131267E-3,-4.581946707E-3,-3.012543976E-2,3.094896358E-2
2.804206958E0,-5.241773017E-3,-2.670852793E-4,-3.925645173E-2,3.960576373E-2
2.814184958E0,-5.612290630E-3,5.277779074E-3,-3.985637605E-2,4.059413098E-2
2.824163958E0,-9.824832065E-3,-4.893155624E-3,-3.177318513E-2,3.361555578E-2
2.834141958E0,-6.845472408E-3,-1.345538882E-2,-2.339003205E-2,2.783885020E-2
2.844119958E0,-4.529323480E-3,-2.537068042E-2,-1.994777620E-2,3.258987529E-2
2.854098958E0,-1.793396315E-2,-3.087339001E-3,-3.491664827E-2,3.937424314E-2
2.864076958E0,-7.671941509E-3,7.949353633E-3,-3.282159090E-2,3.463102278E-2
2.874055958E0,2.228481236E-2,-1.389730128E-2,-1.665520906E-2,3.109893622E-2
2.884033958E0,-1.253151390E-3,-9.354823278E-3,-1.695400178E-2,1.940415635E-2
2.894012958E0,-5.524195246E-3,-1.276869273E-2,-2.518629670E-2,2.877335206E-2
2.903990958E0,-5.295820932E-3,-3.552151532E-3,-2.593415558E-2,2.670662700E-2
2.913969958E0,-8.228588445E-3,-9.785612323E-3,-2.264217317E-2,2.600261299E-2
2.923947958E0,-2.824486672E-3,-6.637663278E-3,-1.770303011E-2,1.911631695E-2
2.933926958E0,-2.160455963E-2,-2.133047825E-2,-2.563711703E-2,3.973673450E-2
2.943904958E0,-2.439697969E-2,-5.629982455E-3,-2.773275912E-2,3.736328745E-2
2.953882958E0,-5.872845757E-3,-1.319699214E-2,-2.698431551E-2,3.060725735E-2
2.963861958E0,-1.880969790E-2,-1.087580741E-2,-2.204458773E-2,3.095241138E-2
2.973839958E0,-5.760596918E-3,-1.473731319E-2,-4.075684726E-2,4.372062987E-2
2.983818958E0,-4.965793574E-3,1.371994335E-3,-3.731342196E-2,3.766739881E-2
2.993796958E0,1.099953769E-3,-8.603588543E-3,-3.836065829E-2,3.932901904E-2
3.003775958E0,1.030042083E-2,-1.418976713E-2,-3.027805209E-2,3.498869244E-2
3.013753958E0,-6.276751886E-3,-5.814914354E-3,-4.270104647E-2,4.354985893E-2
3.023732958E0,2.367129911E-3,-1.007425007E-3,-4.120415926E-2,4.128439111E-2
3.033710958E0,-1.938655313E-2,-9.988757386E-3,-2.204224885E-2,3.100765148E-2
3.043689958E0,-3.250050339E-3,-2.748054313E-4,-3.117326081E-2,3.134342889E-2
3.053667958E0,-9.329529502E-3,-6.362675121E-3,-3.282100618E-2,3.470939645E-2
3.063646958E0,-7.706106036E-3,-1.737523429E-2,-3.581419587E-2,4.054552334E-2
3.073624958E0,1.231416764E-3,-1.040570954E-2,-2.443726838E-2,2.658900645E-2
3.083602958E0,1.171047689E-3,-1.647577720E-2,-2.772983551E-2,3.227640569E-2
3.093581958E0,-2.704070003E-3,-2.026104991E-2,-3.012485504E-2,3.640506873E-2
3.103559958E0,-1.053392916E-2,-1.166134429E-2,-2.458754182E-2,2.918043569E-2
3.113538958E0,3.976265957E-3,-1.509999588E-2,-3.566450715E-2,3.893298906E-2
3.123516958E0,2.737695490E-3,-8.553704484E-3,-4.000548005E-2,4.100121061E-2
3.133495958E0,-1.641378644E-2,-5.284704370E-3,-2.743279696E-2,3.240214243E-2
3.143473958E0,-1.816880423E-2,4.598775725E-3,-1.800240755E-2,2.598732120E-2
3.153452958E0,-6.570963335E-3,-9.966400922E-3,-2.818182528E-2,3.060591418E-2
3.163430958E0,-1.066063444E-2,-1.803290900E-2,-3.162408113E-2,3.793306528E-2
3.173410167E0,-2.217072542E-2,-1.788267667E-2,-2.967812777E-2,4.113541611E-2
3.183388167E0,-1.514244986E-3,-1.763081700E-2,-3.222342074E-2,3.676258274E-2
3.193366167E0,6.791642050E-3,-1.672755922E-3,-2.668552279E-2,2.758698318E-2
3.203345167E0,-1.774016450E-2,-1.860218570E-3,-3.371972322E-2,3.814699967E-2
3.213323167E0,-2.397130011E-3,-1.152504934E-2,-3.372030795E-2,3.571599309E-2
3.223302167E0,-7.942117704E-3,-1.235653255E-2,-2.369174838E-2,2.787579724E-2
3.233280167E0,1.667520266E-3,-1.687961424E-2,-1.096762240E-2,2.019878070E-2
3.243259167E0,-1.714631123E-2,-1.060116643E-2,-3.985637605E-2,4.466443138E-2
3.253237167E0,5.334405132E-3,-7.733134562E-3,-3.027629793E-2,3.170033855E-2
3.263216167E0,-1.377477242E-3,-3.142517530E-3,-2.264275789E-2,2.290125204E-2
3.273194167E0,1.028349931E-3,-1.412779121E-2,-2.069680452E-2,2.508006590E-2
3.283173167E0,-6.465800819E-3,-2.574766595E-3,-3.581536531E-2,3.648529013E-2
3.293151167E0,-1.005836323E-2,-1.255630632E-2,-3.297069490E-2,3.668648554E-2
3.303129167E0,-1.216372289E-2,-1.406402458E-2,-3.761162996E-2,4.195697380E-2
3.313108167E0,1.965469593E-2,-2.714291210E-3,-2.384026766E-2,3.101665377E-2
3.323086167E0,-6.881915294E-3,-2.137054995E-2,-2.728369296E-2,3.533356852E-2
3.333065167E0,-6.116480504E-3,-6.607531845E-3,-3.671466708E-2,3.780261353E-2
3.343043167E0,2.617277109E-3,-8.711615852E-3,-2.608676791E-2,2.762719404E-2
3.353022167E0,-3.106223680E-3,-1.183898087E-2,-2.279420078E-2,2.587248892E-2
3.363000167E0,-4.633813337E-3,-2.066357133E-2,-2.758423984E-2,3.477564800E-2
3.372979167E0,-1.725752824E-2,-6.522025452E-3,-3.342151523E-2,3.817534252E-2
3.382957167E0,-2.051855809E-2,1.658110474E-3,-2.009980381E-2,2.877086494E-2
3.392936167E0,-2.228613256E-2,-2.827590150E-3,-3.042832553E-2,3.782261182E-2
3.402914167E0,-1.705645825E-2,-1.262242097E-2,-3.147673130E-2,3.796093904E-2
3.412893167E0,-1.650298960E-2,-8.105784925E-3,-3.012894809E-2,3.529597609E-2
3.422871167E0,-2.143600679E-2,-3.360285200E-3,-2.369291782E-2,3.212706427E-2
3.432849167E0,-9.131588119E-3,-9.242113628E-3,-2.204517245E-2,2.558890764E-2
3.442828167E0,1.696219702E-2,-2.268806468E-2,-1.875202060E-2,3.397208682E-2
3.452806167E0,-4.960266128E-3,-1.941446445E-2,-1.126758456E-2,2.298878274E-2
3.462785167E0,-7.797311180E-3,-7.787527372E-3,-3.267365634E-2,3.448204552E-2
3.472763167E0,-1.449417409E-3,-1.231816019E-2,-1.875260532E-2,2.248328463E-2
3.482742167E0,-3.092570660E-3,-2.662697755E-2,-2.997867465E-2,4.021543063E-2
3.492720167E0,-8.385335509E-3,-9.042951982E-3,-3.012894809E-2,3.255521994E-2
3.502699167E0,-6.251322208E-3,-1.072922502E-2,-2.967929721E-2,3.217228593E-2
3.512677167E0,1.145520138E-2,-1.924955470E-2,-3.701229036E-2,4.326287823E-2
3.522656167E0,-9.990821042E-3,-2.828864660E-3,-4.000664949E-2,4.133220275E-2
3.532634167E0,-1.631503245E-2,-4.477144503E-3,-2.473723054E-2,2.996924559E-2
3.542612167E0,-3.454546428E-3,-1.151461572E-2,-2.129380524E-2,2.445294272E-2
3.552591167E0,-1.312264114E-2,-1.713921234E-2,-2.907761872E-2,3.621414393E-2
3.562569167E0,-1.897732113E-3,-1.780636594E-2,-3.895765901E-2,4.287618512E-2
3.572548167E0,-8.106542093E-3,-1.679453268E-2,-4.015516877E-2,4.427425812E-2
3.582526167E0,7.990959085E-3,-6.102798362E-3,-3.162349641E-2,3.318350645E-2
3.592505167E0,6.333812488E-3,-1.267830300E-2,-4.075450838E-2,4.314842408E-2
3.602483167E0,5.287759312E-3,-1.295579449E-2,-2.997692049E-2,3.308215185E-2
3.612462167E0,-6.661738503E-3,-7.330334494E-3,-4.524575472E-2,4.631728493E-2
3.622440167E0,-1.380054699E-2,-4.294409878E-3,-3.850917757E-2,4.113215057E-2
3.632419167E0,-1.122606591E-2,7.145694955E-3,-3.805952668E-2,4.031889239E-2
3.642397167E0,-1.393400284E-2,-1.902965827E-2,-2.728193879E-2,3.606367304E-2
3.652375167E0,-2.052684698E-2,-2.271854786E-2,-3.147263825E-2,4.390912003E-2
3.662354167E0,-4.786360570E-3,-1.186708405E-2,-2.144290924E-2,2.497068858E-2
3.672332167E0,8.179497529E-3,-6.695340578E-3,-2.099442780E-2,2.350527098E-2
3.682311167E0,-8.917080386E-3,-1.121143759E-2,-3.012602448E-2,3.335847728E-2
3.692289167E0,-1.140864521E-2,-1.023561039E-2,-2.892793000E-2,3.273759367E-2
3.702268167E0,2.635453156E-3,-1.179604952E-2,-3.925645173E-2,4.107507029E-2
3.712246167E0,-1.341933251E-2,-1.977283482E-2,-3.222166657E-2,4.011582329E-2
3.722225167E0,-1.073648493E-2,-2.439750731E-2,-3.252104402E-2,4.204912336E-2
3.732203167E0,-1.523619946E-2,-8.891879115E-3,-2.533598542E-2,3.087263263E-2
3.742182167E0,-1.211490435E-2,-6.504287375E-3,-3.671115875E-2,3.920186014E-2
3.752160167E0,-2.042337639E-2,-1.063192827E-3,-3.700995147E-2,4.228452660E-2
3.762138167E0,-1.070305987E-2,-1.310140844E-2,-3.506341338E-2,3.893129014E-2
3.772117167E0,-4.010533268E-3,-9.424405145E-3,-3.641002715E-2,3.782319217E-2
3.782095167E0,-5.191973469E-3,-9.794931323E-3,-2.428465605E-2,2.669535142E-2
3.792074167E0,7.262296658E-3,-1.374201659E-2,-4.104920805E-2,4.389329623E-2
3.802052167E0,-3.576736104E-3,-1.156799440E-2,-2.802570462E-2,3.052952104E-2
3.812031167E0,2.428050590E-3,-1.902770311E-2,-1.979282498E-2,2.756274363E-2
3.822009167E0,7.170467963E-3,-9.562458820E-3,-2.982138455E-2,3.212742140E-2
3.831988167E0,3.223631659E-3,-7.744308226E-3,-2.832449734E-2,2.954053589E-2
3.841966167E0,1.486734522E-4,-1.223210562E-2,-2.967169583E-2,3.209448621E-2
3.851945167E0,-1.163478628E-2,-1.028446661E-2,-2.727667630E-2,3.138718807E-2
3.861923167E0,-4.844844147E-3,-1.473301458E-2,-4.478967190E-2,4.739882849E-2
3.871902167E0,-2.445596576E-2,-2.453143139E-2,-4.149593532E-2,5.405365885E-2
3.881880167E0,-8.600390847E-3,-4.164391556E-3,-3.984935939E-2,4.097902297E-2
3.891858167E0,-1.230286036E-2,-7.972139502E-3,-2.113768458E-2,2.572386228E-2
3.901837167E0,-2.331834656E-2,3.005281552E-3,-2.697495997E-2,3.578303325E-2
3.911815167E0,-9.021994510E-3,2.547997311E-3,-4.014756739E-2,4.122761020E-2
3.921794167E0,1.024520347E-2,-2.100835605E-2,-3.655445337E-2,4.338828505E-2
3.931772167E0,2.858674040E-3,-1.668703984E-2,-3.341157496E-2,3.745614312E-2
3.941751167E0,4.306360125E-3,-1.275688866E-3,-2.532896876E-2,2.572408945E-2
3.951729167E0,-2.839542681E-4,-1.219866686E-2,-2.293394923E-2,2.597795470E-2
3.961708167E0,-1.000976168E-2,-5.682214536E-3,-3.595745265E-2,3.775475192E-2
3.971686167E0,-1.388754945E-2,-5.051574055E-3,-3.520900905E-2,3.818450927E-2
3.981665167E0,-1.011919826E-2,-6.293696249E-3,-1.844387233E-2,2.195871609E-2
3.991643167E0,-1.329312059E-2,-1.557919348E-2,-3.161647975E-2,3.766988342E-2
4.001621167E0,-2.759478310E-2,-1.960867880E-2,-3.760519803E-2,5.059766059E-2
4.011600167E0,-6.864654017E-5,-1.654910037E-2,-2.308597684E-2,2.840492496E-2
4.021578167E0,-1.200163853E-3,-3.576239320E-3,-2.173936307E-2,2.206421963E-2
4.031557167E0,1.283093246E-2,-2.556585409E-3,-3.042130888E-2,3.311532863E-2
4.041535167E0,6.001961301E-3,-1.971333940E-3,-4.104920805E-2,4.153248341E-2
4.051514167E0,-1.310991316E-2,-1.325287416E-2,-3.012076199E-2,3.542271587E-2
4.061492167E0,4.344368168E-3,-1.855802551E-2,-2.218667507E-2,2.924931446E-2
4.071471167E0,-1.880059474E-2,-1.569566270E-4,-3.296426296E-2,3.794903992E-2
4.081449167E0,-1.270503916E-2,9.294916727E-3,-2.862212062E-2,3.266556728E-2
4.091428167E0,-6.290657296E-3,1.982790828E-3,-3.266196191E-2,3.332127826E-2
4.101406167E0,-1.843907350E-2,-1.282779529E-2,-4.343838036E-2,4.890239925E-2
4.111385167E0,9.197175720E-3,-2.644861463E-2,-1.724168479E-2,3.288453971E-2
4.121363167E0,1.804649236E-2,-1.586189722E-2,-2.472495139E-2,3.447606258E-2
4.131341167E0,7.538704363E-3,-1.953617333E-2,-3.325720847E-2,3.930058583E-2
4.141320167E0,1.645078835E-2,-8.893866255E-3,-2.023253560E-2,2.755149345E-2
4.151298167E0,3.175792756E-2,-1.295265161E-2,-3.624922872E-2,4.990334387E-2
4.161277167E0,8.688503362E-3,-1.231292511E-2,-2.786782980E-2,3.168144809E-2
4.171255167E0,-2.443576546E-4,-1.315907660E-2,-2.801810324E-2,3.095537299E-2
4.181237083E0,1.819330544E-2,-1.131028751E-2,-3.445530295E-2,4.057199610E-2
4.191215083E0,2.812176341E-2,-3.834274662E-2,-2.143179953E-2,5.215670453E-2
4.201194083E0,-1.155803015E-2,-5.709207659E-3,-3.909506857E-2,4.116561065E-2
4.211172083E0,-1.487833045E-2,-1.160813919E-2,-2.128269553E-2,2.844409854E-2
4.221151083E0,-1.181173422E-2,-7.662616228E-3,-3.670004904E-2,3.930809525E-2
4.231129083E0,-1.461815904E-2,-1.340341712E-3,-1.005545676E-2,1.779323749E-2
4.241107083E0,-1.802606936E-2,-4.171421919E-3,-2.831689596E-2,3.382582644E-2
4.251086083E0,-3.526945464E-2,2.069090706E-2,-2.397592306E-2,4.740140243E-2
4.261064083E0,-1.519200616E-2,-1.454053611E-2,-2.412502706E-2,3.200376810E-2
4.271043083E0,1.472423005E-2,-1.871390406E-2,-3.460440695E-2,4.200569171E-2
4.281021083E0,1.860992298E-2,-2.203372470E-2,-2.577160299E-2,3.867802707E-2
4.291000083E0,1.529388932E-2,-3.040942715E-2,-3.909389913E-2,5.183598421E-2
4.300978083E0,-1.915612030E-2,-2.743676667E-2,-1.050335348E-2,3.507211919E-2
4.310957083E0,3.399434136E-3,-1.553444857E-2,-4.463179708E-2,4.738008606E-2
4.320935083E0,-4.849226133E-3,-1.739812979E-2,-2.457350850E-2,3.049700369E-2
4.330914083E0,-2.652323058E-2,5.835480108E-3,-2.951323628E-2,4.010692839E-2
4.340892083E0,-3.250239916E-2,-1.985412939E-3,-2.307779074E-2,3.991155523E-2
4.350871083E0,-6.808452224E-3,-4.249646701E-3,-1.709024191E-2,1.888096627E-2
4.360849083E0,-1.553636605E-2,-9.319529850E-3,-2.846599996E-2,3.374233928E-2
4.370827083E0,-1.687553261E-3,-1.076513972E-2,-3.744790792E-2,3.900104969E-2
4.380806083E0,2.099005381E-3,-1.818547108E-2,-1.544425070E-2,2.395082591E-2
4.390784083E0,1.312691577E-2,-2.029397248E-2,-3.101187766E-2,3.931790676E-2
4.400763083E0,2.091390068E-2,-2.090369546E-2,-2.771814108E-2,4.052963200E-2
4.410741083E0,2.222535806E-3,-3.076409276E-2,-3.520433128E-2,4.680506393E-2
4.420720083E0,4.589059297E-4,-1.796829727E-2,-2.741993308E-2,3.278601884E-2
4.430698083E0,-1.097701677E-2,3.364410228E-3,-3.116156638E-2,3.320929648E-2
4.440677083E0,-3.400391161E-3,-1.995608107E-2,-3.205969870E-2,3.791611943E-2
4.450655083E0,-2.652341788E-2,-1.406598888E-2,-3.115981221E-2,4.326982362E-2
4.460634083E0,-2.216662552E-2,4.065258410E-3,-4.328401387E-2,4.879950276E-2
4.470612083E0,-5.462793200E-3,-1.120162523E-2,-2.083070576E-2,2.427420070E-2
4.480591083E0,5.927281394E-3,-2.027907121E-2,-3.131008565E-2,3.777161444E-2
4.490569083E0,1.017333868E-2,-2.564617108E-2,-2.337775290E-2,3.616271894E-2
4.500547083E0,-4.438744741E-3,-1.800939223E-2,-2.053249776E-2,2.766991377E-2
4.510526083E0,6.030230076E-3,-3.686858133E-2,-1.798778951E-2,4.146343613E-2
4.520504083E0,1.813125072E-2,-1.193863935E-2,-2.577043355E-2,3.369552800E-2
4.530483083E0,-7.622581073E-3,-8.024467514E-3,-2.592012227E-2,2.818418988E-2
4.540461083E0,-1.676572030E-2,-8.513267334E-3,-2.741642475E-2,3.324493110E-2
4.550440083E0,-2.971492868E-2,1.274541350E-2,-2.112832904E-2,3.862420018E-2
4.560418083E0,-3.003660320E-2,3.619791940E-3,-7.980630755E-2,8.534838693E-2
4.570397083E0,-1.136192116E-2,-1.826825486E-2,5.281789899E-2,5.703115676E-2
4.580375083E0,2.757056969E-3,-2.876661080E-3,-8.624350727E-2,8.633550305E-2
4.590354083E0,1.514901428E-2,-1.705999170E-2,8.904139996E-2,9.191793545E-2
4.600332083E0,-7.184625763E-3,-3.124247722E-2,-1.021099269E-1,1.070240553E-1
4.610310083E0,2.515145095E-2,-2.691027058E-2,-6.209743023E-4,3.683943209E-2
4.620289083E0,-1.716326815E-2,-1.874749357E-2,-1.828248918E-2,3.130967422E-2
4.630267083E0,3.576309897E-2,-1.176944925E-2,-7.805448174E-3,3.845054232E-2
4.640246083E0,-3.452288626E-2,-7.491443558E-3,-3.968973041E-2,5.313403901E-2
4.650224083E0,-4.565218189E-3,-2.700067401E-2,-1.199556291E-2,2.989600548E-2
4.660203083E0,-2.811854059E-2,3.344881441E-3,-3.564696550E-2,4.552523154E-2
4.670181083E0,1.825084455E-2,-5.006395178E-3,-2.651302993E-2,3.257450039E-2
4.680160083E0,-2.405310402E-3,-1.270143148E-3,-1.528929949E-2,1.552937412E-2
4.690138083E0,-2.952850985E-2,-1.581407339E-2,5.806285143E-4,3.350156624E-2
4.700117083E0,1.664902038E-2,-3.769599432E-3,-8.279598892E-2,8.453742095E-2
4.710095083E0,1.152635469E-2,-1.567381787E-2,2.722580552E-2,3.346296319E-2
4.720074083E0,3.861511724E-2,-2.048243555E-2,-2.935711563E-2,5.265451247E-2
4.730052083E0,-2.051537867E-2,-2.247117409E-2,-4.762089372E-2,5.651180359E-2
4.740030083E0,1.482951533E-2,-3.543050432E-2,-5.734715223E-2,6.902123609E-2
4.750009083E0,2.616297358E-2,3.521389696E-3,-1.065947413E-3,2.642040150E-2
4.759987083E0,-1.154693872E-2,1.823294316E-3,-1.662363410E-3,1.180760975E-2
4.769966083E0,-1.169151912E-3,-1.560342744E-2,-8.579034805E-2,8.720560580E-2
4.779944083E0,-4.535779285E-2,-3.351451793E-2,5.476794541E-2,7.861348567E-2
4.789923083E0,1.803100637E-2,5.199109813E-2,-1.080916286E-1,1.212929991E-1
4.799901083E0,-1.565199245E-2,2.845378476E-3,5.656304061E-2,5.875762597E-2
4.809880083E0,-4.943062067E-2,-8.882943839E-3,-5.899314344E-2,7.747569892E-2
4.819858083E0,-6.579274718E-2,3.004123529E-2,-1.676712477E-1,1.826056097E-1
4.829837083E0,-2.508979937E-2,-2.758207911E-2,1.016210997E-1,1.082456328E-1
4.839815083E0,8.749909633E-2,-1.389389802E-3,-4.193272233E-2,9.703801041E-2
4.849794083E0,3.463707827E-2,-3.908092105E-2,2.377477884E-3,5.227521385E-2
4.859772083E0,-6.068445970E-3,-3.231897247E-2,-1.191709328E-1,1.236246466E-1
4.869750083E0,2.576311082E-2,-5.464199730E-2,7.856669784E-2,9.910707218E-2
4.879729083E0,1.187157727E-1,-2.267114887E-2,-3.100252211E-2,1.247740841E-1
4.889707083E0,3.881168190E-3,2.236062517E-2,-1.043517494E-1,1.067911449E-1
4.899686083E0,-1.253136521E-1,-1.797214364E-2,1.420171738E-2,1.273899451E-1
4.909664083E0,-4.182104965E-2,-6.322576012E-3,-1.253075856E-1,1.322534165E-1
4.919643083E0,5.020899014E-2,1.732390213E-2,4.354129136E-2,6.867972283E-2
4.929621083E0,-4.746893463E-2,1.245050370E-2,1.345561266E-2,5.088583604E-2
4.939600083E0,-7.947018402E-2,-3.942731833E-3,-6.917373061E-2,1.054327287E-1
4.949578083E0,-3.515816568E-3,-1.185186759E-2,-5.210746229E-2,5.355385474E-2
4.959557083E0,9.853461038E-2,-1.643984423E-2,4.144681871E-2,1.081534868E-1
4.969535083E0,2.894947333E-2,-9.398343922E-3,-4.806645155E-2,5.689274681E-2
4.979513083E0,-2.804088454E-2,-1.082569038E-2,-3.848754287E-2,4.883418612E-2
4.989492083E0,-2.567045758E-2,-2.879974807E-2,-5.525209486E-2,6.738836597E-2
4.999470083E0,3.444187948E-2,-8.009707863E-3,-2.501380384E-2,4.331384149E-2
5.009449083E0,1.837547133E-2,1.831571324E-2,-2.591310561E-2,3.666895609E-2
5.019427083E0,-5.475780414E-2,-7.493165745E-3,-3.294789076E-2,6.434382762E-2
5.029406083E0,-4.515139071E-2,-1.939850795E-2,-1.136283571E-1,1.237996515E-1
5.039384083E0,5.212222194E-2,-7.891644356E-3,3.441320300E-2,6.295452812E-2
5.049363083E0,5.570293803E-2,1.563592060E-2,1.495542347E-2,5.975754354E-2
5.059341083E0,-9.038364430E-3,-2.177867646E-2,-1.125781971E-1,1.150210991E-1
5.069320083E0,-8.801463802E-2,-9.891095180E-3,-4.502940774E-3,8.868306910E-2
5.079298083E0,1.060671672E-2,3.184489575E-3,-5.249045491E-3,1.225544336E-2
5.089277083E0,4.791633342E-2,-1.573004250E-2,-2.665511727E-2,5.704300591E-2
5.099255083E0,-3.476571016E-2,-1.803334298E-2,-1.692476571E-2,4.266501794E-2
5.109233083E0,-5.326833559E-2,4.763754001E-3,-4.042764902E-2,6.704180587E-2
5.119212083E0,-5.959626089E-3,-1.734814980E-2,-1.198620737E-2,2.191220235E-2
5.129190083E0,7.039468406E-2,-2.511632654E-2,-3.593757212E-2,8.293220419E-2
5.139169083E0,6.258952139E-3,-2.111108432E-2,1.061562002E-2,2.444470805E-2
5.149147083E0,-4.336350402E-2,3.597261887E-3,-5.120465219E-2,6.719561132E-2
5.159126083E0,-3.099693300E-2,-5.983432936E-3,-2.965824723E-2,4.331538934E-2
5.169104083E0,7.512070981E-3,-2.795081915E-2,-6.168169320E-2,6.813450504E-2
5.179083792E0,-6.860181810E-2,5.271963379E-2,-2.959538966E-1,3.083411717E-1
5.189061792E0,-1.122347280E-1,-8.264450035E-3,5.825750524E-1,5.933452848E-1
5.199040792E0,6.267768872E-2,5.882939399E-2,-2.899581617E-1,3.024320185E-1
5.209018792E0,5.249775480E-2,-8.585140578E-2,-2.965123057E-2,1.049079292E-1
5.218996792E0,7.694579484E-3,-1.116765930E-1,-7.949698985E-2,1.372976306E-1
5.228975792E0,1.105616295E-1,-3.632011250E-2,5.525618792E-3,1.165056091E-1
5.238953792E0,1.071705642E-1,3.480789006E-2,-1.483730972E-2,1.136541455E-1
5.248932792E0,8.430265194E-2,-5.610553710E-2,1.273605430E-1,1.627128647E-1
5.258910792E0,-2.801173891E-1,1.172869233E-4,-2.549456191E-1,3.787651438E-1
5.268889792E0,-8.823661295E-2,6.652265328E-2,-1.041798413E-1,1.518696895E-1
5.278867792E0,3.443583173E-1,9.999268670E-2,2.991061306E-1,4.669536009E-1
5.288846792E0,-2.916615470E-1,-5.501975941E-2,-6.971050501E-2,3.048822501E-1
5.298824792E0,-7.139197694E-2,2.373142722E-2,-2.421320307E-1,2.535506169E-1
5.308803792E0,-4.572259972E-2,-1.878232562E-2,8.639845848E-3,5.017946609E-2
5.318781792E0,2.409580377E-1,2.487214590E-2,-1.059457004E-2,2.424698837E-1
5.328760792E0,2.123681864E-1,-2.983380075E-2,-1.314050621E-1,2.515106213E-1
5.338738792E0,2.143980656E-1,3.397049569E-3,-9.749062657E-2,2.355472198E-1
5.348716792E0,2.356799754E-1,2.026352950E-1,-3.697369874E-2,3.130066581E-1
5.358695792E0,4.934513163E-1,4.823622180E-1,-2.712768924E-1,7.414571217E-1
5.368673792E0,8.155868154E-1,8.340434785E-1,-7.759418893E-1,1.401033973E0
5.378652792E0,1.384878236E0,1.153176469E0,-7.615209013E-1,1.956429856E0
5.388630792E0,1.604983806E0,1.595366890E0,-3.788732618E-1,2.294496345E0
5.398609792E0,-1.527353539E0,1.712422593E0,6.334055997E0,6.736873559E0
5.408587792E0,-1.180451391E0,5.941164694E-1,4.076153088E0,4.285027872E0
5.418566792E0,-5.623077989E-1,1.473619674E0,3.573151624E-1,1.617225751E0
5.428544792E0,-3.740186110E-2,-5.187121650E-1,1.545539550E0,1.630691175E0
5.438523792E0,5.654548435E-1,-3.008578395E0,2.420447903E0,3.902544194E0
5.448501792E0,1.919743664E0,-6.517007627E-1,2.200715970E0,2.992203269E0
5.458480792E0,1.886648715E0,-1.577156614E0,5.627132303E-1,2.522600353E0
5.468458792E0,1.719779998E0,-4.124626506E0,-1.495065215E0,4.712261352E0
5.478436792E0,1.093625501E0,-5.855019346E0,7.058823055E-1,5.997961163E0
5.488415792E0,-1.120078012E-1,-4.593286688E0,5.123851926E0,6.882200731E0
5.498393792E0,6.348816124E-1,-2.348136849E0,6.550219958E0,6.987288660E0
5.508372792E0,-9.912588814E-1,-1.353732165E0,9.100133986E0,9.253519521E0
5.518350792E0,-3.027600557E0,-1.727521565E0,1.114128003E1,1.167385183E1
5.528329792E0,-3.442565172E0,-2.708778492E0,1.248262194E1,1.322892990E1
5.538307792E0,-2.588907940E0,-3.407481294E0,1.241401656E1,1.313092458E1
5.548286792E0,-1.310398158E0,-3.694357973E0,1.097711594E1,1.165600697E1
5.558264792E0,2.898429716E-1,-3.962552798E0,9.220816424E0,1.004038292E1
5.568243792E0,2.116558457E0,-4.074355069E0,8.112365016E0,9.321515707E0
5.578221792E0,3.925188505E0,-4.039764111E0,7.682808673E0,9.526402678E0
5.588200792E0,5.731073577E0,-3.775692742E0,7.845588725E0,1.042373841E1
5.598178792E0,6.099264561E0,-4.458897207E0,8.129487417E0,1.109825924E1
5.608156792E0,4.627279184E0,-5.947474351E0,7.661839973E0,1.074653226E1
5.618135792E0,3.275437716E0,-7.987503573E0,6.343253667E0,1.071286949E1
5.628113792E0,3.433643491E0,-8.699855822E0,4.597315419E0,1.042174208E1
5.638092792E0,4.383128694E0,-7.454683063E0,3.489780854E0,9.325378659E0
5.648070792E0,4.862634876E0,-6.695698099E0,2.987607940E0,8.797919764E0
5.658049792E0,4.994075899E0,-6.741624470E0,3.003999440E0,8.911470541E0
5.668027792E0,5.501338813E0,-7.127065324E0,2.913067051E0,9.462861539E0
5.678006792E0,5.884091118E0,-7.909318113E0,1.979803485E0,1.005482288E1
5.687984792E0,5.054636096E0,-8.245631831E0,5.494803965E-2,9.671753184E0
5.697963792E0,3.086325898E0,-8.046447015E0,-2.128310484E0,8.876960213E0
5.707941792E0,1.728972552E0,-7.194001910E0,-3.841085079E0,8.336482721E0
5.717920792E0,1.210543209E0,-6.218158920E0,-4.218360589E0,7.610879140E0
5.727898792E0,2.091028052E0,-5.138987444E0,-4.148819068E0,6.927791129E0
5.737876792E0,3.430217607E0,-5.131139311E0,-3.356740033E0,7.025858461E0
5.747855792E0,4.946733917E0,-5.796214483E0,-2.623686009E0,8.059156721E0
5.757833792E0,5.789061000E0,-6.040601785E0,-2.271795309E0,8.669668454E0
5.767812792E0,4.289605111E0,-6.190988079E0,-2.184495794E0,7.842261617E0
5.777790792E0,5.328398055E-1,-6.445626134E0,-3.008717558E0,7.133189740E0
5.787769792E0,-1.867839831E0,-5.799067925E0,-4.092466235E0,7.339366070E0
5.797747792E0,-2.652259598E0,-4.249888483E0,-5.115913746E0,7.160209952E0
5.807726792E0,-2.308901739E0,-2.662313885E0,-6.255516196E0,7.179862488E0
5.817704792E0,-9.897985393E-1,-2.045273005E0,-7.248410836E0,7.596203161E0
5.827683792E0,-9.282150793E-1,-2.675026901E0,-6.730032949E0,7.301417373E0
5.837661792E0,-6.208082414E-1,-3.507683859E0,-5.533095042E0,6.580607089E0
5.847640792E0,2.533048904E-1,-3.813222511E0,-4.484456556E0,5.891958918E0
5.857618792E0,-1.149509972E-1,-4.219770060E0,-4.207104406E0,5.959815482E0
5.867596792E0,-2.006928719E0,-4.262258853E0,-4.994937193E0,6.866149647E0
5.877575792E0,-3.384831519E0,-2.977495766E0,-6.204943628E0,7.669673453E0
5.887553792E0,-3.824100087E0,-2.071998289E0,-6.733471112E0,8.016018438E0
5.897532792E0,-4.078872043E0,-2.079845252E0,-6.502978549E0,7.953092696E0
5.907510792E0,-4.030886868E0,-2.478561040E0,-6.033203888E0,7.667519999E0
5.917489792E0,-3.412749050E0,-2.744659638E0,-5.805282930E0,7.271954518E0
5.927467792E0,-2.780450445E0,-2.735579790E0,-5.849180317E0,7.030448908E0
5.937446792E0,-2.641953295E0,-2.698789109E0,-5.976868304E0,7.070101456E0
5.947424792E0,-3.069938491E0,-2.859704191E0,-6.172492751E0,7.463383761E0
5.957403792E0,-4.426926970E0,-2.853180745E0,-6.657506425E0,8.488858261E0
5.967381792E0,-5.592395748E0,-2.574712362E0,-7.191515089E0,9.466885614E0
5.977360792E0,-6.025762137E0,-2.565946801E0,-7.488463597E0,9.948415922E0
5.987338792E0,-6.607934316E0,-2.774528385E0,-7.450502889E0,1.033793001E1
5.997316792E0,-7.106546860E0,-2.832343900E0,-7.501795834E0,1.071457516E1
6.007295792E0,-7.947758294E0,-3.182425472E0,-8.167935784E0,1.183257659E1
6.017273792E0,-9.570366485E0,-3.925644588E0,-9.837315853E0,1.427499153E1
6.027252792E0,-1.093664970E1,-5.094390146E0,-1.251984298E1,1.738705224E1
6.037230792E0,-1.069607770E1,-6.795302494E0,-1.560108589E1,2.009915658E1
6.047209792E0,-9.311413184E0,-8.867996601E0,-1.834901997E1,2.240603296E1
6.057187792E0,-7.879668052E0,-1.057644835E1,-1.889292563E1,2.304111688E1
6.067166792E0,-6.395606713E0,-1.264718364E1,-1.482521534E1,2.050955994E1
6.077144792E0,-4.679508560E0,-1.450217188E1,-8.756693682E0,1.757528019E1
6.087123792E0,-2.375771082E0,-1.570012018E1,-2.705345884E0,1.610766769E1
6.097101792E0,6.200130200E-1,-1.597202273E1,3.342923940E0,1.632988263E1
6.107080792E0,3.302963191E0,-1.502288631E1,1.120181040E1,1.902832718E1
6.117058792E0,4.976482211E0,-1.298277406E1,1.901156564E1,2.355328906E1
6.127036792E0,5.722295737E0,-1.016426759E1,2.296481551E1,2.575732431E1
6.137015792E0,6.117076349E0,-7.967383888E0,2.366955235E1,2.571275049E1
6.146993792E0,5.755739472E0,-6.692709587E0,2.351034436E1,2.511288893E1
6.156972792E0,5.676153020E0,-5.320174531E0,2.247937032E1,2.378749797E1
6.166950792E0,6.056220283E0,-4.049329571E0,2.014567170E1,2.142248731E1
6.176926583E0,6.135298612E0,-3.370803464E0,1.684864081E1,1.824502404E1
6.186904583E0,5.939622710E0,-3.079868817E0,1.287341358E1,1.450825583E1
6.196883583E0,5.582942555E0,-2.882230005E0,8.961432184E0,1.094457693E1
6.206861583E0,5.007813932E0,-2.507276132E0,5.592239043E0,7.914402788E0
6.216840583E0,4.315105111E0,-1.904383174E0,3.114263602E0,5.652030181E0
6.226818583E0,3.357162202E0,-1.629235425E0,1.512049622E0,4.026318440E0
6.236796583E0,2.246907805E0,-1.570926406E0,5.055631292E-1,2.787830435E0
6.246775583E0,1.363475965E0,-1.568526124E0,-4.094059601E-1,2.118243175E0
6.256753583E0,1.007750953E0,-1.409382455E0,-1.237318195E0,2.129055472E0
6.266732583E0,1.003084875E0,-1.137792152E0,-1.659421676E0,2.248206073E0
6.276710583E0,9.540983641E-1,-1.021740709E0,-1.627858113E0,2.145735259E0
6.286689583E0,8.296283922E-1,-9.660956812E-1,-1.366312742E0,1.867735164E0
6.296667583E0,7.441941395E-1,-7.877789927E-1,-1.041849284E0,1.503286596E0
6.306646583E0,7.927526343E-1,-4.497871238E-1,-5.565356469E-1,1.067940599E0
6.316624583E0,9.815890485E-1,-1.708626580E-1,1.152436504E-1,1.002991629E0
6.326603583E0,1.123356254E0,4.359040797E-2,8.801082820E-1,1.427732463E0
6.336581583E0,1.162525874E0,1.598190218E-1,1.295422269E0,1.747892269E0
6.346560583E0,1.046669728E0,1.015965414E-1,1.645247733E0,1.952608378E0
6.356538583E0,1.015597039E0,-8.406541944E-3,1.354395824E0,1.692895763E0
6.366517583E0,1.163113520E0,-1.473053956E-1,1.437435642E0,1.854926727E0
6.376495583E0,8.367932779E-1,-2.108020645E-1,1.381061320E0,1.628493436E0
6.386473583E0,2.218138334E-1,-2.813054520E-1,1.257726585E0,1.307750090E0
6.396452583E0,-1.243167749E-1,-1.004317760E-1,1.377578280E0,1.386817623E0
6.406430583E0,-3.614280939E-2,1.405992240E-1,2.077155825E0,2.082222555E0
6.416409583E0,2.439195246E-1,1.573450649E-1,3.326668680E0,3.339308119E0
6.426387583E0,6.099555168E-1,-8.022029042E-2,4.786109734E0,4.825487272E0
6.436366583E0,8.242211795E-1,-5.274849254E-1,5.755470500E0,5.838066596E0
6.446344583E0,8.538227087E-1,-1.055594918E0,5.786780586E0,5.943914821E0
6.456323583E0,5.557872033E-1,-1.441821638E0,4.699417745E0,4.946946148E0
6.466301583E0,1.333659258E-1,-1.536748261E0,2.958408115E0,3.336399296E0
6.476280583E0,1.277411968E-2,-1.409238029E0,1.520269638E0,2.073001392E0
6.486258583E0,1.860548937E-1,-8.571679008E-1,9.161592901E-1,1.268345804E0
6.496237583E0,5.197019890E-1,-4.990738893E-1,9.357305056E-1,1.180998088E0
6.506215583E0,1.288737440E0,-5.294799954E-1,1.096976833E0,1.773288309E0
6.516193583E0,2.063754884E0,-7.695163840E-1,1.693715011E0,2.778472642E0
6.526172583E0,2.341143286E0,-8.968623090E-1,2.024123626E0,3.222171681E0
6.536150583E0,2.520845180E0,-8.949245417E-1,2.289977810E0,3.521299296E0
6.546129583E0,2.110483493E0,-1.139825229E0,2.224539281E0,3.271378477E0
6.556107583E0,9.297622526E-1,-1.474181884E0,1.232679598E0,2.134752694E0
6.566086583E0,-1.615796185E-1,-1.405044991E0,5.650405683E-2,1.415433541E0
6.576064583E0,-7.946968335E-1,-8.426708990E-1,-9.631274883E-1,1.506403618E0
6.586043583E0,-9.361023885E-1,-4.664288843E-1,-1.810869678E0,2.091194055E0
6.596021583E0,-7.281888485E-1,-4.164509779E-1,-2.146103415E0,2.304224443E0
6.606000583E0,-3.103257680E-1,-6.068503529E-1,-1.776706735E0,1.902959867E0
6.615978583E0,3.880978292E-1,-6.751733136E-1,-9.649974279E-1,1.240039904E0
6.625957583E0,1.153610040E0,-4.961953050E-1,3.084464729E-1,1.293122242E0
6.635935583E0,1.747776613E0,-4.540895051E-1,1.844951051E0,2.581620566E0
6.645913583E0,1.984567797E0,-5.516637468E-1,3.583267600E0,4.133116127E0
6.655892583E0,1.943443159E0,-9.407000542E-1,4.540565268E0,5.027784886E0
6.665870583E0,1.518225451E0,-1.512115111E0,4.231273288E0,4.742907786E0
6.675849583E0,5.385922962E-1,-1.760934017E0,2.620744275E0,3.203009652E0
6.685827583E0,-2.076814055E-1,-1.473412975E0,3.755596447E-1,1.534640808E0
6.695806583E0,-6.907409406E-1,-1.247801083E0,-1.710686116E0,2.227235411E0
6.705784583E0,-7.630645663E-1,-1.117388293E0,-3.353656504E0,3.616329089E0
6.715763583E0,-7.133889610E-1,-1.052480106E0,-4.263378887E0,4.448936695E0
6.725741583E0,-6.378996527E-1,-9.380898571E-1,-4.572919081E0,4.711530269E0
6.735720583E0,-5.074482715E-1,-8.483292496E-1,-4.260250919E0,4.373431622E0
6.745698583E0,-4.979751974E-1,-8.607686162E-1,-3.636975152E0,3.770476120E0
6.755676583E0,-5.867365158E-1,-1.017644734E0,-2.941852309E0,3.167705092E0
6.765655583E0,-5.939145577E-1,-1.174333157E0,-2.282302901E0,2.634520715E0
6.775633583E0,-6.565967095E-1,-1.373223274E0,-2.072980475E0,2.571791097E0
6.785612583E0,-8.804480052E-1,-1.517282295E0,-2.189494433E0,2.805569483E0
6.795590583E0,-1.133551167E0,-1.537102017E0,-2.465883107E0,3.119006309E0
6.805569583E0,-1.491532327E0,-1.581663940E0,-2.884491415E0,3.612010552E0
6.815547583E0,-1.939812623E0,-1.632823861E0,-3.320758899E0,4.178088851E0
6.825526583E0,-2.296769351E0,-1.607514481E0,-3.772137051E0,4.699815974E0
6.835504583E0,-2.812644045E0,-1.602249063E0,-4.136230305E0,5.252291855E0
6.845483583E0,-3.156420565E0,-1.565734078E0,-4.209597659E0,5.489556124E0
6.855461583E0,-3.111913898E0,-1.524920513E0,-4.115742831E0,5.380402376E0
6.865440583E0,-2.922372310E0,-1.543460864E0,-3.994986134E0,5.184828402E0
6.875418583E0,-2.654231279E0,-1.704765079E0,-4.004401613E0,5.097685743E0
6.885397583E0,-2.830714281E0,-2.090421696E0,-4.360071953E0,5.602948656E0
6.895375583E0,-3.184420542E0,-2.524962497E0,-5.025566078E0,6.463148165E0
6.905353583E0,-3.758912988E0,-2.942603968E0,-5.997975583E0,7.665771720E0
6.915332583E0,-4.788701804E0,-3.115939998E0,-7.424847060E0,9.368516474E0
6.925310583E0,-6.173628280E0,-3.295507991E0,-9.103853985E0,1.148277913E1
6.935289583E0,-7.414423814E0,-3.550690422E0,-1.051638341E1,1.334823595E1
6.945267583E0,-8.348708303E0,-3.965833378E0,-1.115102032E1,1.448357756E1
6.955246583E0,-9.233324788E0,-4.819665442E0,-1.111878579E1,1.523518490E1
6.965224583E0,-9.715913622E0,-5.589262226E0,-1.087971185E1,1.562072212E1
6.975203583E0,-1.008740594E1,-6.580916671E0,-1.104321637E1,1.634065026E1
6.985181583E0,-9.867199802E0,-7.712675081E0,-1.182971249E1,1.722756763E1
6.995160583E0,-8.982044204E0,-8.961510537E0,-1.299464391E1,1.816167832E1
7.005138583E0,-7.570509973E0,-1.047168379E1,-1.412763549E1,1.914572713E1
7.015117583E0,-5.980384820E0,-1.181472023E1,-1.320008466E1,1.869745575E1
7.025095583E0,-4.633135462E0,-1.269390289E1,-8.371255167E0,1.589588085E1
7.035073583E0,-3.675189630E0,-1.304927795E1,-5.066590436E-1,1.356640620E1
7.045052583E0,-2.557545814E0,-1.288159501E1,7.249476199E0,1.500104782E1
7.055030583E0,-1.187959508E0,-1.150780221E1,1.206591193E1,1.671606982E1
7.065009583E0,-4.692753088E-1,-9.756194506E0,1.368276529E1,1.681135380E1
7.074987583E0,-5.581974256E-1,-8.603938681E0,1.316543055E1,1.573746824E1
7.084966583E0,-5.140141100E-1,-7.739250092E0,1.372363265E1,1.576382871E1
7.094944583E0,-1.448419636E-1,-7.082890779E0,1.590379274E1,1.741031144E1
7.104923583E0,8.798293698E-1,-6.615274910E0,1.705447800E1,1.831368837E1
7.114901583E0,2.466340359E0,-5.690040742E0,1.637536834E1,1.751034228E1
7.124880583E0,4.451216889E0,-4.691909335E0,1.539396114E1,1.669734663E1
7.134858583E0,6.080471610E0,-3.880598223E0,1.474315668E1,1.641316077E1
7.144837583E0,6.952525352E0,-3.103485721E0,1.372303507E1,1.569365871E1
7.154815583E0,7.073475008E0,-2.825241871E0,1.203514505E1,1.424291953E1
7.164793583E0,6.879915213E0,-2.506285028E0,1.017201048E1,1.253333535E1
7.174772583E0,6.306700383E0,-2.072557282E0,8.376417089E0,1.068804597E1
7.184751042E0,5.362432358E0,-1.921524287E0,6.474493253E0,8.623630284E0
7.194730042E0,4.355511710E0,-1.939369989E0,4.548287686E0,6.589276066E0
7.204708042E0,3.525341865E0,-1.831950206E0,2.746459996E0,4.829815663E0
7.214687042E0,2.815214481E0,-1.564044233E0,1.348585300E0,3.491468065E0
7.224665042E0,2.353187966E0,-1.310089717E0,6.138483006E-1,2.762361020E0
7.234644042E0,2.219454835E0,-1.039978175E0,6.258239830E-1,2.529662038E0
7.244622042E0,2.222802658E0,-8.809432644E-1,9.402578585E-1,2.569240653E0
7.254601042E0,2.209880311E0,-7.982028240E-1,1.171298891E0,2.625383749E0
7.264579042E0,2.458293129E0,-7.596468687E-1,1.412469785E0,2.935189835E0
7.274558042E0,2.362078072E0,-8.543893039E-1,1.365613707E0,2.859072350E0
7.284536042E0,1.596734846E0,-8.804807496E-1,6.276248523E-1,1.928398682E0
7.294514042E0,1.095377912E0,-5.128464210E-1,-1.290942425E-1,1.216359135E0
7.304493042E0,7.921348760E-1,-5.307108343E-2,-4.638036306E-1,9.194607166E-1
7.314471042E0,6.090787268E-1,2.969432455E-1,-2.007648072E-1,7.067239166E-1
7.324450042E0,7.051569584E-1,5.610029197E-1,7.148601204E-1,1.150215460E0
7.334428042E0,1.049156549E0,7.501252627E-1,1.972174623E0,2.356457111E0
7.344407042E0,1.425692094E0,7.091766268E-1,3.105403023E0,3.489850623E0
7.354385042E0,9.974542987E-1,1.716935474E-1,3.199133890E0,3.355421196E0
7.364364042E0,-3.634600013E-1,-2.769937152E-1,1.892255464E0,1.946653393E0
7.374342042E0,-1.340479451E0,-2.780234098E-2,3.929252905E-1,1.397157261E0
7.384321042E0,-1.988569631E0,1.520556736E-1,-5.050948403E-1,2.057340736E0
7.394299042E0,-2.157406814E0,1.390514660E-1,-7.101572780E-1,2.275535723E0
7.404278042E0,-1.598386685E0,7.459468424E-2,-4.438504457E-1,1.660544362E0
7.414256042E0,-4.951147395E-1,5.881714225E-2,2.712090647E-1,5.675847235E-1
7.424234042E0,6.147575426E-1,1.204251605E-1,1.384423615E0,1.519558423E0
7.434213042E0,1.554378201E0,3.753473908E-1,2.425225663E0,2.904943505E0
7.444191042E0,2.190987373E0,4.857469153E-1,3.085116693E0,3.815012549E0
7.454170042E0,1.970901684E0,1.577736658E-1,2.762841555E0,3.397446017E0
7.464148042E0,1.363028069E0,-1.597903705E-1,1.561814690E0,2.079096824E0
7.474127042E0,3.677056646E-1,-4.007120275E-1,1.829453444E-1,5.738001254E-1
7.484105042E0,-5.769307351E-1,-3.717168546E-1,-7.033891258E-1,9.827404314E-1
7.494084042E0,-7.254891890E-1,-9.697607160E-2,-6.855024201E-1,1.002822262E0
7.504062042E0,-2.666400504E-1,-6.343118012E-2,1.755906801E-1,3.255034839E-1
7.514041042E0,5.085533953E-1,-7.342991889E-2,1.274818727E0,1.374474917E0
7.524019042E0,1.436455649E0,3.720466375E-2,2.018337806E0,2.477594906E0
7.533998042E0,2.100986445E0,8.962261319E-2,2.114337392E0,2.982046087E0
7.543976042E0,1.667935807E0,-2.331793588E-1,1.426332949E0,2.206990745E0
7.553954042E0,9.231993377E-2,-5.690931273E-1,-2.969975790E-2,5.772971793E-1
7.563933042E0,-1.445390194E0,-3.871967733E-1,-1.492455602E0,2.113409066E0
7.573911042E0,-2.379409804E0,-1.325879538E-1,-2.149917115E0,3.209566043E0
7.583890042E0,-2.744397683E0,-3.480964422E-2,-1.870250638E0,3.321259972E0
7.593868042E0,-2.411444360E0,-1.005136371E-2,-1.012417324E0,2.615368763E0
7.603847042E0,-1.510732244E0,-2.017435580E-1,1.391052421E-1,1.530477914E0
7.613825042E0,-3.469825476E-1,-3.209103978E-1,1.147526597E0,1.241047002E0
7.623804042E0,8.649411893E-1,-3.844848347E-1,1.693026209E0,1.939662237E0
7.633782042E0,1.759595005E0,-4.407297868E-1,1.754411448E0,2.523564316E0
7.643761042E0,1.665235562E0,-6.198019356E-1,9.778965318E-1,2.028163096E0
7.653739042E0,4.649583095E-1,-6.191885626E-1,-3.650124006E-1,8.560460024E-1
7.663718042E0,-5.418474412E-1,-3.389671844E-1,-1.333139441E0,1.478430983E0
7.673696042E0,-1.009191415E0,-1.727641726E-1,-1.560127183E0,1.866095281E0
7.683674042E0,-9.550614005E-1,-1.800632519E-1,-8.700387188E-1,1.304428007E0
7.693653042E0,-4.050553393E-1,-1.996297896E-1,2.258172758E-1,5.048913971E-1
7.703631042E0,3.383023560E-1,-3.521836460E-1,1.277208484E0,1.367385577E0
7.713610042E0,1.129225397E0,-5.468421328E-1,1.903486211E0,2.279790795E0
7.723588042E0,1.835974844E0,-6.959262514E-1,1.744834878E0,2.626702444E0
7.733567042E0,1.880634123E0,-8.837323862E-1,1.185902896E0,2.392516105E0
7.743545042E0,1.123406832E0,-1.071288260E0,4.182348172E-1,1.607675903E0
7.753524042E0,-2.726854867E-1,-9.321286207E-1,-6.108609581E-1,1.147332668E0
7.763502042E0,-1.484654832E0,-3.744486737E-1,-1.627861329E0,2.234802964E0
7.773481042E0,-2.054289411E0,1.652814907E-1,-2.314461126E0,3.099056834E0
7.783459042E0,-1.800362962E0,5.691504300E-1,-2.600937417E0,3.214049541E0
7.793438042E0,-1.399852079E0,3.482540247E-1,-1.952526955E0,2.427597211E0
7.803416042E0,-8.836008239E-1,-2.775696659E-1,-9.713429725E-1,1.342126114E0
7.813394042E0,1.507353723E-2,-5.168809998E-1,-4.435614471E-1,6.812781641E-1
7.823373042E0,8.204269212E-1,-6.949684775E-1,-5.021685281E-1,1.186699098E0
7.833351042E0,1.007557703E0,-1.057037134E0,-1.060429104E0,1.804718790E0
7.843330042E0,4.520359629E-1,-1.386875060E0,-1.807075858E0,2.322344096E0
7.853308042E0,-7.703455192E-1,-1.383957592E0,-2.742522773E0,3.167049415E0
7.863287042E0,-1.961521581E0,-9.213323218E-1,-3.491299668E0,4.109208383E0
7.873265042E0,-2.757083218E0,-6.445865285E-1,-3.840203319E0,4.771180272E0
7.883244042E0,-2.968385219E0,-5.908418459E-1,-4.012883584E0,5.026294813E0
7.893222042E0,-2.648674085E0,-7.665363505E-1,-4.196768576E0,5.021545466E0
7.903201042E0,-2.399000900E0,-1.127594023E0,-4.533774312E0,5.251836166E0
7.913179042E0,-2.771303061E0,-1.540496034E0,-5.142400464E0,6.041318665E0
7.923158042E0,-3.666756776E0,-1.877799978E0,-6.172362943E0,7.420869377E0
7.933136042E0,-4.965752571E0,-2.169208249E0,-7.374827639E0,9.151625305E0
7.943115042E0,-6.370019297E0,-2.212177975E0,-8.353202473E0,1.073530944E1
7.953093042E0,-7.353186509E0,-2.224712651E0,-8.547684374E0,1.149267621E1
7.963071042E0,-7.561770140E0,-2.415329835E0,-7.849130384E0,1.116346871E1
7.973050042E0,-7.078586644E0,-2.550533248E0,-6.348475231E0,9.844528759E0
7.983028042E0,-6.547089944E0,-2.914800458E0,-5.003520906E0,8.740461652E0
7.993007042E0,-6.507742860E0,-3.503429717E0,-4.719606719E0,8.769231694E0
8.002985042E0,-6.623894291E0,-4.085748077E0,-5.985246195E0,9.817967454E0
8.012964042E0,-6.614983719E0,-4.990175221E0,-8.523088646E0,1.188708957E1
8.022942042E0,-6.983547755E0,-6.086205389E0,-1.138282617E1,1.467584978E1
8.032921042E0,-6.742079383E0,-7.470761737E0,-1.386106678E1,1.712883789E1
8.042899042E0,-5.688498246E0,-9.361755956E0,-1.520644210E1,1.874132782E1
8.052878042E0,-4.472671493E0,-1.163623981E1,-1.412233792E1,1.883739089E1
8.062856042E0,-3.397739832E0,-1.337148526E1,-9.487562310E0,1.674380759E1
8.072835042E0,-2.724091473E0,-1.387923876E1,-3.013558468E0,1.446151712E1
8.082813042E0,-1.429617330E0,-1.373161293E1,3.382713073E0,1.421420934E1
8.092791042E0,7.400703907E-2,-1.303223098E1,9.194216856E0,1.594923650E1
8.102770042E0,1.910570698E0,-1.214868746E1,1.282013375E1,1.776504199E1
8.112748042E0,5.646253282E0,-9.979248827E0,1.285631282E1,1.722644370E1
8.122727042E0,9.428855680E0,-8.287316047E0,1.294260486E1,1.803036181E1
8.132705042E0,1.153914797E1,-7.424994995E0,1.356572859E1,1.929537454E1
8.142684042E0,1.198799544E1,-6.428465726E0,1.306601268E1,1.886154537E1
8.152662042E0,1.139764535E1,-5.461612245E0,1.212202064E1,1.751225035E1
8.162641042E0,1.003451437E1,-4.530825561E0,1.195452598E1,1.625209372E1
8.172619042E0,8.274579057E0,-3.733587527E0,1.211058232E1,1.513520857E1
8.182598583E0,6.351430414E0,-3.122952856E0,1.119619240E1,1.324568711E1
8.192576583E0,4.510108291E0,-2.591378973E0,9.145799571E0,1.052150044E1
8.202555583E0,3.496857447E0,-2.107031881E0,6.985165679E0,8.090743780E0
8.212533583E0,3.094797051E0,-1.935688582E0,5.047389057E0,6.229028445E0
8.222511583E0,3.409198036E0,-1.656186411E0,3.364480870E0,5.068068291E0
8.232490583E0,3.763296938E0,-1.213150483E0,2.008538457E0,4.434903006E0
8.242468583E0,3.528549940E0,-9.481915069E-1,8.384369302E-1,3.748694213E0
8.252447583E0,2.952081428E0,-8.317751974E-1,-1.198006779E-1,3.069362627E0
8.262425583E0,2.464029247E0,-6.050143272E-1,-5.183144447E-1,2.589620113E0
8.272404583E0,2.003179484E0,-5.242373818E-1,-3.755520433E-1,2.104422062E0
8.282382583E0,1.342008790E0,-6.038729507E-1,-2.087236717E-1,1.486343064E0
8.292361583E0,9.284942839E-1,-4.381108189E-1,2.231882215E-3,1.026668255E0
8.302339583E0,9.278376415E-1,-9.216907561E-2,5.548136419E-1,1.084986638E0
8.312318583E0,8.175658786E-1,1.608528095E-1,1.202851197E0,1.463262996E0
8.322296583E0,5.166494501E-1,4.521049601E-1,1.526891609E0,1.674133667E0
8.332275583E0,6.680315244E-1,7.954172105E-1,1.694687988E0,1.987692640E0
8.342253583E0,1.073149429E0,8.053972381E-1,1.948491061E0,2.365783553E0
8.352231583E0,1.669972684E0,5.691018981E-1,2.361033175E0,2.947399428E0
8.362210583E0,2.376968007E0,1.693663555E-1,2.707349432E0,3.606716348E0
8.372188583E0,2.655339326E0,-2.411263096E-1,2.765889709E0,3.841759326E0
8.382167583E0,2.484788910E0,-4.560951000E-1,2.467907413E0,3.531680289E0
8.392145583E0,1.183132632E0,-9.224789608E-1,1.118528500E0,1.871330079E0
8.402124583E0,-6.306327331E-1,-7.120534569E-1,-7.681715244E-1,1.222622289E0
8.412102583E0,-1.484932575E0,1.682916373E-1,-1.450941833E0,2.082925594E0
8.422081583E0,-1.532159366E0,6.512693113E-1,-7.537829885E-1,1.827526425E0
8.432059583E0,-7.846413767E-1,6.058475554E-1,5.283789647E-1,1.123342192E0
8.442038583E0,4.261380601E-1,4.669609809E-1,1.713375981E0,1.826281319E0
8.452016583E0,1.637802181E0,2.012371892E-1,2.643167470E0,3.115963200E0
8.461995583E0,2.564147905E0,-2.173369128E-1,3.190367452E0,4.098845483E0
8.471973583E0,2.971066752E0,-7.034475249E-1,3.471293420E0,4.622981081E0
8.481952583E0,2.811407359E0,-1.023248121E0,3.530619855E0,4.627777503E0
8.491930583E0,2.034059215E0,-1.303832027E0,3.000559523E0,3.852367103E0
8.501908583E0,7.580306983E-1,-1.412002008E0,1.689666399E0,2.328805005E0
8.511887583E0,-9.161095887E-1,-9.307480931E-1,4.427511692E-2,1.306716908E0
8.521865583E0,-2.138612693E0,-2.760973370E-1,-1.135161490E0,2.436900818E0
8.531844583E0,-2.629959487E0,1.377680022E-1,-1.654652102E0,3.110231583E0
8.541822583E0,-2.670902860E0,1.720449650E-1,-1.783577360E0,3.216281977E0
8.551801583E0,-2.106164154E0,1.004744607E-1,-1.357859130E0,2.507948161E0
8.561779583E0,-1.429585755E0,3.976983726E-2,-7.818475771E-1,1.629902667E0
8.571758583E0,-8.453851765E-1,-9.548737049E-2,7.128925323E-3,8.507906653E-1
8.581736583E0,-2.714096242E-1,-1.726729560E-1,6.654967564E-1,7.391651146E-1
8.591715583E0,6.499180198E-3,-4.004053411E-1,7.447160035E-1,8.455581603E-1
8.601693583E0,-9.956346452E-2,-5.871578076E-1,4.185732248E-1,7.279221930E-1
8.611672583E0,-3.335181642E-1,-5.752221787E-1,2.778450698E-2,6.654974827E-1
8.621650583E0,-6.042384017E-1,-5.328316194E-1,-5.104823917E-2,8.072295233E-1
8.631628583E0,-8.126214731E-1,-4.746398368E-1,1.185122439E-1,9.485155693E-1
8.641607583E0,-9.367759877E-1,-2.629849559E-1,3.569000101E-1,1.036382147E0
8.651585583E0,-1.033267325E0,-6.249825686E-2,2.639371750E-1,1.068274417E0
8.661564583E0,-1.296659832E0,-1.427033445E-1,-4.373161823E-2,1.305221598E0
8.671542583E0,-1.384870927E0,-3.009064883E-1,-4.922431719E-1,1.500238495E0
8.681521583E0,-1.323532466E0,-4.365224227E-1,-9.872026679E-1,1.707881472E0
8.691499583E0,-1.300136002E0,-5.354143345E-1,-1.155241705E0,1.819781726E0
8.701478583E0,-1.373550718E0,-5.475753736E-1,-8.118917406E-1,1.686905025E0
8.711456583E0,-1.444534162E0,-4.555679736E-1,-1.100112695E-1,1.518658488E0
8.721435583E0,-1.510324109E0,-3.282246798E-1,3.486592367E-1,1.584415860E0
8.731413583E0,-1.692474816E0,-2.991643104E-1,2.599941051E-1,1.738265579E0
8.741392583E0,-1.875560494E0,-3.474456471E-1,-1.059202650E-1,1.910409576E0
8.751370583E0,-1.865523748E0,-4.228875929E-1,-5.427578527E-1,1.988365876E0
8.761349583E0,-1.889625387E0,-5.315835312E-1,-8.922742912E-1,2.156251044E0
8.771327583E0,-2.114090640E0,-6.504197109E-1,-1.079907202E0,2.461427350E0
8.781305583E0,-2.512505881E0,-7.647020790E-1,-1.250560091E0,2.908840940E0
8.791284583E0,-2.972078905E0,-8.835423517E-1,-1.394768802E0,3.399894133E0
8.801262583E0,-3.469930726E0,-9.861223948E-1,-1.406666424E0,3.871894504E0
8.811241583E0,-3.801293607E0,-9.118943310E-1,-1.331659072E0,4.129733677E0
8.821219583E0,-3.979162983E0,-7.162742695E-1,-1.254798446E0,4.233356354E0
8.831198583E0,-3.886496894E0,-7.921375072E-1,-1.474442085E0,4.231585920E0
8.841176583E0,-3.528039771E0,-9.345531687E-1,-2.038239535E0,4.180296001E0
8.851155583E0,-3.493635339E0,-1.134403398E0,-2.678579085E0,4.546113160E0
8.861133583E0,-4.065393042E0,-1.363085664E0,-3.243456370E0,5.376377250E0
8.871112583E0,-5.515199053E0,-1.588793743E0,-3.868108571E0,6.921267952E0
8.881090583E0,-7.475521370E0,-1.711385297E0,-4.549270018E0,8.916732422E0
8.891069583E0,-9.157199303E0,-1.771903686E0,-5.021598743E0,1.059294084E1
8.901047583E0,-1.032141970E1,-2.189589596E0,-5.413375640E0,1.185877916E1
8.911025583E0,-1.076196413E1,-2.913972784E0,-5.916451948E0,1.262202492E1
8.921004583E0,-1.033844095E1,-3.612568582E0,-6.258060905E0,1.261337937E1
8.930982583E0,-9.542460648E0,-4.431519958E0,-6.297215030E0,1.226180417E1
8.940961583E0,-8.391402918E0,-5.395432289E0,-6.308573831E0,1.180357727E1
8.950939583E0,-7.157513530E0,-6.381906102E0,-6.429730479E0,1.154556882E1
8.960918583E0,-6.632703121E0,-7.320318725E0,-6.531742172E0,1.184244370E1
8.970896583E0,-6.713866568E0,-7.898856860E0,-6.766953439E0,1.237980625E1
8.980875583E0,-7.248375168E0,-8.541198058E0,-6.852485340E0,1.313192911E1
8.990853583E0,-7.864296892E0,-9.433600695E0,-6.942460540E0,1.410807379E1
9.000832583E0,-7.721296216E0,-1.034548333E1,-6.701787390E0,1.454515022E1
9.010810583E0,-6.965189837E0,-1.153282128E1,-5.880676929E0,1.470041487E1
9.020789583E0,-5.208240112E0,-1.317142278E1,-4.470668237E0,1.485257612E1
9.030767583E0,-2.428562669E0,-1.413685071E1,-2.530193124E0,1.456538162E1
9.040746583E0,9.591357404E-1,-1.454087226E1,5.270066231E-2,1.457256617E1
9.050724583E0,4.538962254E0,-1.471621388E1,4.129988987E0,1.594446419E1
9.060702583E0,8.703990973E0,-1.328572415E1,9.705986220E0,1.861386831E1
9.070681583E0,1.240829915E1,-1.105488157E1,1.649065555E1,2.341192036E1
9.080659583E0,1.427852640E1,-9.094960370E0,2.177991001E1,2.758548713E1
9.090638583E0,1.467445658E1,-6.522282547E0,2.126971471E1,2.665109021E1
9.100616583E0,1.387726591E1,-5.045652434E0,1.709102777E1,2.258628672E1
9.110595583E0,1.277070256E1,-4.635035223E0,1.277050142E1,1.864564566E1
9.120573583E0,1.151298753E1,-4.293146185E0,8.929790561E0,1.518950774E1
9.130552583E0,9.944366677E0,-3.805082603E0,6.084689791E0,1.226346330E1
9.140530583E0,7.878699169E0,-3.357426789E0,4.340717962E0,9.601460704E0
9.150509583E0,5.625710260E0,-2.847865334E0,3.134580629E0,7.041629684E0
9.160487583E0,3.450844830E0,-2.268405678E0,2.165320435E0,4.662896840E0
9.170466583E0,1.652903638E0,-1.694207931E0,1.509915973E0,2.807539349E0
9.180443167E0,2.915809102E-1,-1.279230452E0,1.298123975E0,1.845691152E0
9.190421167E0,-4.932331055E-1,-1.044371772E0,1.439779791E0,1.845794447E0
9.200400167E0,-8.219008581E-1,-9.142209381E-1,1.416506118E0,1.875582717E0
9.210378167E0,-6.612880768E-1,-7.161453384E-1,1.000724646E0,1.397002464E0
9.220357167E0,-2.171549182E-1,-4.479686397E-1,4.018691915E-1,6.397898153E-1
9.230335167E0,2.966584861E-1,-1.674794590E-1,-1.107988894E-1,3.582345886E-1
9.240314167E0,6.745203258E-1,8.442151487E-2,-3.144135565E-1,7.489729946E-1
9.250292167E0,8.817145121E-1,2.928232974E-1,-2.094022411E-1,9.523734892E-1
9.260271167E0,7.818456767E-1,2.772983551E-1,-1.560592622E-2,8.297111455E-1
9.270249167E0,5.025757867E-1,2.013184655E-1,1.620585054E-1,5.651322899E-1
9.280228167E0,3.777236992E-1,2.377676690E-1,4.184694368E-1,6.118213194E-1
9.290206167E0,2.333727555E-1,2.290254968E-1,7.270316845E-1,7.971766376E-1
9.300185167E0,3.104520679E-2,2.594327724E-1,9.889968860E-1,1.022929132E0
9.310163167E0,-1.650364923E-1,2.764212728E-1,1.234967906E0,1.276241158E0
9.320142167E0,-2.235104030E-1,2.671440804E-1,1.578161750E0,1.616142744E0
9.330120167E0,-2.185078177E-1,1.883674675E-1,2.007936486E0,2.028555373E0
9.340098167E0,2.502959132E-2,3.321276963E-2,2.396150090E0,2.396510969E0
9.350077167E0,5.530135766E-1,6.680443883E-3,2.689380062E0,2.745657255E0
9.360055167E0,9.308679610E-1,-8.697382450E-2,2.606610093E0,2.769204901E0
9.370034167E0,8.489595795E-1,-4.660149014E-1,2.037080763E0,2.255570946E0
9.380012167E0,3.824564356E-1,-7.555672663E-1,1.095206881E0,1.384425126E0
9.389991167E0,-6.398637325E-2,-8.044406337E-1,2.391593063E-1,8.416746181E-1
9.399969167E0,-2.756816000E-1,-6.607090563E-1,-1.522331366E-1,7.319233085E-1
9.409948167E0,-9.015734106E-2,-4.620896655E-1,3.475731164E-2,4.720839712E-1
9.419926167E0,3.390063608E-1,-4.724942011E-1,4.937745577E-1,7.628822953E-1
9.429905167E0,1.005445104E0,-6.740453857E-1,1.084578104E0,1.625289729E0
9.439883167E0,1.767405423E0,-8.820694381E-1,1.595602094E0,2.539235016E0
9.449862167E0,2.582990850E0,-9.655817109E-1,1.973359269E0,3.390919724E0
9.459840167E0,3.042266835E0,-1.095209804E0,1.975623311E0,3.789189818E0
9.469819167E0,2.362731206E0,-1.584793078E0,1.173804422E0,3.077642714E0
9.479797167E0,1.006595543E0,-1.805766959E0,-2.332088873E-1,2.080484386E0
9.489775167E0,-1.106319514E-1,-1.445315934E0,-1.492432944E0,2.080512839E0
9.499754167E0,-6.691711468E-1,-8.772296977E-1,-2.043997142E0,2.322766946E0
9.509732167E0,-8.007767683E-1,-6.792587632E-1,-1.914678367E0,2.183719109E0
9.519711167E0,-6.758036435E-1,-4.751114148E-1,-1.320342225E0,1.557480341E0
9.529689167E0,-2.412210345E-1,-3.810244524E-1,-3.384000045E-1,5.638100601E-1
9.539668167E0,3.750620466E-1,-4.999614966E-1,6.518242121E-1,9.030547272E-1
9.549646167E0,1.243444322E0,-4.144202399E-1,1.473501268E0,1.972081110E0
9.559625167E0,2.090725166E0,-2.409795445E-1,2.170829828E0,3.023525261E0
9.569603167E0,2.483167477E0,-3.099076921E-1,2.461019393E0,3.509811953E0
9.579582167E0,1.619142546E0,-8.417873847E-1,1.638485720E0,2.452521976E0
9.589560167E0,1.279826868E-1,-9.393721515E-1,1.803490345E-1,9.650520097E-1
9.599539167E0,-8.055352324E-1,-4.373845947E-1,-8.401333536E-1,1.243389057E0
9.609517167E0,-1.378286963E0,-2.532785779E-1,-1.319524346E0,1.924829729E0
9.619496167E0,-1.258862845E0,-1.199521208E-1,-1.465281252E0,1.935503377E0
9.629474167E0,-8.546752328E-1,5.657415032E-2,-1.400221623E0,1.641429554E0
9.639452167E0,-3.044078010E-1,1.539086562E-1,-1.047878494E0,1.101998785E0
9.649431167E0,-1.127723247E-1,4.312146127E-2,-6.908434130E-1,7.013142512E-1
9.659409167E0,-1.159302304E0,-7.259610593E-2,-9.861592323E-1,1.523732936E0
9.669388167E0,-2.082436738E0,3.416376078E-1,-1.180457458E0,2.418003067E0
9.679366167E0,-2.621609663E0,6.139874643E-1,-7.753068817E-1,2.801949070E0
9.689345167E0,-2.698360215E0,5.301898474E-1,-3.262781417E-1,2.769242957E0
9.699323167E0,-2.341832088E0,3.682313293E-1,-3.279171528E-1,2.393178117E0
9.709302167E0,-1.873140332E0,2.347715557E-1,-8.004481548E-1,2.050485219E0
9.719280167E0,-1.525038627E0,1.536572260E-1,-1.325041632E0,2.026101844E0
9.729259167E0,-1.353337478E0,1.068186897E-1,-1.605491052E0,2.102506618E0
9.739237167E0,-1.117875951E0,1.536823690E-2,-1.501052179E0,1.871641116E0
9.749216167E0,-5.809518653E-1,-1.315401328E-1,-9.778152555E-1,1.144958755E0
9.759194167E0,1.032553965E-1,-2.563220537E-1,-4.169801509E-1,5.002350631E-1
9.769172167E0,6.698400682E-1,-4.175362211E-1,-7.631551981E-2,7.929982796E-1
9.779151167E0,5.937362176E-1,-6.298234785E-1,-2.853721905E-1,9.113932177E-1
9.789129167E0,-3.743668127E-1,-6.447537589E-1,-1.319875617E0,1.515892333E0
9.799108167E0,-1.479250250E0,-2.673879093E-1,-2.517287149E0,2.931963879E0
9.809086167E0,-2.237309600E0,-1.933089495E-2,-3.274968184E0,3.966275903E0
9.819065167E0,-2.325492044E0,-9.198021054E-2,-3.623304362E0,4.306356709E0
9.829043167E0,-2.060761694E0,-8.411804438E-2,-3.747924900E0,4.277938249E0
9.839022167E0,-1.882637379E0,-1.077776331E-1,-3.710667611E0,4.162330314E0
9.849000167E0,-2.248737983E0,-2.519992071E-1,-3.855359302E0,4.470360328E0
9.858979167E0,-3.104391455E0,-2.937608984E-1,-4.452909658E0,5.436170177E0
9.868957167E0,-4.072459987E0,-4.044551226E-1,-5.136160315E0,6.567241207E0
9.878936167E0,-5.186631142E0,-7.032446265E-1,-5.393720809E0,7.515844582E0
9.888914167E0,-6.127866216E0,-1.000158636E0,-5.247455049E0,8.129381658E0
9.898893167E0,-6.653237958E0,-1.226364021E0,-4.855181723E0,8.327204429E0
9.908871167E0,-7.079832101E0,-1.311862593E0,-4.623491650E0,8.556966815E0
9.918849167E0,-7.736590778E0,-1.464400662E0,-4.737186080E0,9.189136963E0
9.928828167E0,-8.575005489E0,-2.062847396E0,-5.100061945E0,1.018806608E1
9.938806167E0,-9.821996148E0,-2.789601338E0,-5.815344819E0,1.175039230E1
9.948785167E0,-1.063590284E1,-3.568281478E0,-6.717201819E0,1.307577387E1
9.958763167E0,-1.026129044E1,-4.577788643E0,-7.479014497E0,1.349762528E1
9.968742167E0,-9.406221693E0,-5.582671829E0,-7.731269227E0,1.339461665E1
9.978720167E0,-8.648727769E0,-6.397288957E0,-7.471945213E0,1.309792973E1
9.988699167E0,-7.782866228E0,-6.995497125E0,-6.638631613E0,1.239279696E1
9.998677167E0,-7.009900571E0,-7.605221969E0,-4.556792461E0,1.130232121E1
1.000865617E1,-6.306491638E0,-8.272546565E0,-1.307102959E0,1.048405368E1
1.001863417E1,-4.759178920E0,-8.705559196E0,1.781043761E0,1.008011219E1
1.002861317E1,-2.281758087E0,-8.884651811E0,4.141853573E0,1.006471106E1
1.003859117E1,8.370531866E-1,-8.844421797E0,5.850633935E0,1.063740440E1
1.004857017E1,4.411252047E0,-8.334341109E0,7.527987852E0,1.206610904E1
1.005854817E1,7.676098409E0,-7.503351778E0,9.247937565E0,1.416852582E1
1.006852617E1,1.009304032E1,-6.381225486E0,1.038384341E1,1.582446541E1
1.007850517E1,1.136549619E1,-5.453858253E0,1.056181628E1,1.644600366E1
1.008848317E1,1.120671271E1,-4.988539170E0,9.918529000E0,1.577508004E1
1.009846217E1,1.013146471E1,-4.656116774E0,8.516177237E0,1.403036975E1
1.010844017E1,8.983593716E0,-4.123185167E0,6.668710860E0,1.192381300E1
1.011841917E1,8.049831383E0,-3.750214085E0,5.183088899E0,1.028242683E1
1.012839717E1,7.729233811E0,-3.472965431E0,4.433904453E0,9.563579502E0
1.013837617E1,7.429508461E0,-3.085307897E0,3.860328265E0,8.922939824E0
1.014835417E1,6.497782128E0,-2.631288559E0,3.150161997E0,7.685595141E0
1.015833317E1,5.166905560E0,-2.197850250E0,2.390460457E0,6.102602722E0
1.016831117E1,3.713199456E0,-1.867376146E0,1.768772210E0,4.517023245E0
1.017829017E1,2.261791892E0,-1.507668303E0,1.440872635E0,3.076504547E0
1.018826867E1,1.144171611E0,-1.145461945E0,1.308704365E0,2.081806633E0
1.019824767E1,3.452440242E-1,-8.761128795E-1,1.134109868E0,1.474100542E0
1.020822567E1,-6.579403996E-2,-7.067734212E-1,8.701346862E-1,1.122938955E0
1.021820367E1,-2.328370044E-1,-6.138991714E-1,4.503303301E-1,7.961674883E-1
1.022818267E1,-2.591355877E-1,-3.622145444E-1,3.812940091E-2,4.469949443E-1
1.023816067E1,-1.687692086E-1,6.632496715E-3,-2.026067533E-1,2.637736383E-1
1.024813967E1,-2.046309131E-1,2.749290633E-1,-3.408651906E-1,4.833724016E-1
1.025811767E1,-3.323817578E-1,5.125125450E-1,-3.779694284E-1,7.183367111E-1
1.026809667E1,-4.264763215E-1,6.857181823E-1,-2.174088335E-1,8.362763175E-1
1.027807467E1,-3.324911007E-1,7.914463663E-1,3.377356146E-1,9.224982538E-1
1.028805367E1,-1.080235085E-1,8.891913468E-1,1.095448955E0,1.415040191E0
1.029803167E1,2.440917251E-1,8.800305140E-1,1.710613464E0,1.939131996E0
1.030801067E1,4.546312496E-1,5.724166846E-1,1.863678806E0,2.001911368E0
1.031798867E1,7.418801039E-2,-6.706814826E-2,1.212825085E0,1.216941529E0
1.032796767E1,-5.179305750E-1,-5.415603429E-1,1.644339368E-2,7.495399060E-1
1.033794567E1,-5.000588527E-1,-2.145168006E-1,-6.837301290E-1,8.738210362E-1
1.034792367E1,-7.943442464E-4,1.581209904E-1,-1.241170925E-1,2.010172411E-1
1.035790267E1,4.977489102E-1,7.826381207E-2,1.194675035E0,1.296583064E0
1.036788067E1,7.767125523E-1,-5.481472313E-2,2.116986912E0,2.255641955E0
1.037785967E1,9.677603835E-1,-5.399201989E-2,2.487975057E0,2.670111455E0
1.038783767E1,1.283444248E0,-6.673251808E-2,2.492521268E0,2.804343887E0
1.039781667E1,1.637753941E0,-2.158289158E-1,2.351329282E0,2.873598699E0
1.040779467E1,1.671497930E0,-6.399818462E-1,1.932116957E0,2.633734616E0
1.041777367E1,1.267714360E0,-1.057887611E0,1.179907746E0,2.029386160E0
1.042775167E1,8.768905592E-1,-1.106484990E0,5.290291750E-1,1.507686292E0
1.043773067E1,7.608780000E-1,-7.670921284E-1,3.770435219E-1,1.144345875E0
1.044770867E1,9.871930200E-1,-5.192140388E-1,8.624192121E-1,1.409929138E0
1.045768767E1,1.280361011E0,-5.373772448E-1,1.552583690E0,2.082934165E0
1.046766567E1,1.494090776E0,-6.203872418E-1,1.981372147E0,2.557933377E0
1.047764467E1,1.578548836E0,-6.378435194E-1,2.261886032E0,2.831040305E0
1.048762267E1,1.676122786E0,-6.255205125E-1,2.538767481E0,3.105801640E0
1.049760067E1,1.999239045E0,-7.809313184E-1,2.757855050E0,3.494649476E0
1.050757967E1,2.415888829E0,-1.122937301E0,2.930457255E0,3.960440220E0
1.051755767E1,2.562665636E0,-1.513831853E0,2.726641443E0,4.036522712E0
1.052753667E1,2.145296060E0,-1.979991181E0,2.017172456E0,3.548470795E0
1.053751467E1,1.268880880E0,-2.034898290E0,9.310480553E-1,2.572492997E0
1.054749367E1,4.516512161E-1,-1.490109699E0,-2.184134217E-1,1.572297733E0
1.055747167E1,-1.590781796E-1,-8.106556392E-1,-1.069915334E0,1.351734905E0
1.056745067E1,-4.074971366E-1,-3.170652688E-1,-1.820185608E0,1.891998929E0
1.057742867E1,-4.188758183E-1,-3.037593448E-1,-2.351608633E0,2.407860015E0
1.058740767E1,-1.143949270E-1,-6.046494609E-1,-2.400053984E0,2.477689709E0
1.059738567E1,3.346957934E-1,-8.815121984E-1,-1.776073043E0,2.010850687E0
1.060736467E1,6.265993237E-1,-9.702624071E-1,-4.481013715E-1,1.238882840E0
1.061734267E1,9.779392165E-1,-1.015990557E0,1.103974196E0,1.790910648E0
1.062732167E1,1.391165455E0,-1.148148156E0,2.444456570E0,3.037919261E0
1.063729967E1,1.656648341E0,-1.300188042E0,3.023082998E0,3.684291449E0
1.064727867E1,1.315836360E0,-1.642583449E0,2.697545114E0,3.421440538E0
1.065725667E1,4.473079044E-1,-1.930578700E0,1.414581215E0,2.434801530E0
1.066723467E1,-4.066071904E-1,-1.762640820E0,-3.332632621E-1,1.839373934E0
1.067721367E1,-1.089453805E0,-1.220733737E0,-1.943081802E0,2.540210097E0
1.068719167E1,-1.611992571E0,-7.505775449E-1,-3.232275324E0,3.689104291E0
1.069717067E1,-2.063632677E0,-4.210562450E-1,-4.357814636E0,4.840084357E0
1.070714867E1,-2.341253799E0,-2.326545712E-1,-5.218076298E0,5.723977442E0
1.071712767E1,-2.404345255E0,-1.261317506E-1,-5.559351379E0,6.058314376E0
1.072710567E1,-2.265659240E0,-1.298225132E-1,-4.706977610E0,5.225485997E0
1.073708467E1,-2.040550209E0,-1.498299310E-1,-3.176984053E0,3.778825457E0
1.074706267E1,-2.037942935E0,-1.416678026E-1,-1.509547014E0,2.540081369E0
1.075704167E1,-2.226786366E0,-1.767432028E-1,-6.154823050E-2,2.234637300E0
1.076701967E1,-2.564364252E0,-1.350350136E-1,7.122597174E-1,2.664866296E0
1.077699867E1,-3.197822945E0,-1.002797484E-3,7.829509467E-1,3.292276534E0
1.078697667E1,-3.953963238E0,7.087877870E-2,1.174500972E-1,3.956342201E0
1.079695567E1,-4.632412162E0,1.051449242E-1,-9.838285321E-1,4.736899458E0
1.080693367E1,-4.963176287E0,8.307343930E-2,-2.042742330E0,5.367757100E0
1.081691167E1,-4.885741026E0,-4.339452624E-2,-2.722245507E0,5.593118008E0
1.082689067E1,-4.519711173E0,-2.526462016E-1,-2.845133514E0,5.346625469E0
1.083686867E1,-3.964396425E0,-5.905205414E-1,-2.668113738E0,4.814975020E0
1.084684767E1,-3.430768415E0,-9.176897988E-1,-2.493131717E0,4.339128051E0
1.085682567E1,-3.045663775E0,-1.056511762E0,-2.436352329E0,4.040804079E0
1.086680467E1,-2.892898834E0,-1.078910983E0,-2.506689071E0,3.976984118E0
1.087678267E1,-3.096550339E0,-1.202122634E0,-2.829962329E0,4.363760948E0
1.088676167E1,-3.861821644E0,-1.280083560E0,-3.565530948E0,5.409740407E0
1.089673967E1,-4.990721936E0,-1.374404704E0,-4.557894076E0,6.897151016E0
1.090671867E1,-6.512163355E0,-1.563236148E0,-5.754785206E0,8.830035764E0
1.091669667E1,-8.541720799E0,-1.833734776E0,-7.006853587E0,1.119908812E1
1.092667567E1,-1.093711631E1,-2.353952782E0,-7.179057012E0,1.329287277E1
1.093665367E1,-1.341602935E1,-3.077150739E0,-5.997699010E0,1.501436291E1
1.094663267E1,-1.509881240E1,-4.345716454E0,-4.877729756E0,1.645149340E1
1.095661067E1,-1.516177405E1,-6.483726007E0,-5.516416444E0,1.738818408E1
1.096658867E1,-1.382030350E1,-8.419035105E0,-8.229526845E0,1.815505585E1
1.097656767E1,-1.134805979E1,-9.435532615E0,-1.010205088E1,1.788460703E1
1.098654567E1,-9.137990030E0,-1.033978814E1,-9.134453634E0,1.654848403E1
1.099652467E1,-8.236960995E0,-1.079582185E1,-5.952622240E0,1.482669914E1
1.100650267E1,-8.097991390E0,-1.104458696E1,-2.380807289E0,1.390066937E1
1.101648167E1,-7.550614237E0,-1.156840276E1,1.485272298E0,1.389409053E1
1.102645967E1,-6.202234613E0,-1.251716261E1,6.350251615E0,1.534512202E1
1.103643867E1,-4.279283021E0,-1.305839727E1,1.137111419E1,1.783637408E1
1.104641667E1,-1.501985102E0,-1.342441192E1,1.493793328E1,2.013982734E1
1.105639567E1,2.412623743E0,-1.245011961E1,1.631231431E1,2.066198997E1
1.106637367E1,6.785030106E0,-1.071221368E1,1.555449645E1,2.006814678E1
1.107635267E1,9.633933320E0,-9.213963488E0,1.298615609E1,1.861048211E1
1.108633067E1,1.050285295E1,-7.680269812E0,1.027073720E1,1.657662533E1
1.109630967E1,1.132360440E1,-6.285435230E0,9.472619165E0,1.604559835E1
1.110628767E1,1.284166437E1,-5.028108448E0,1.020861171E1,1.715826248E1
1.111626567E1,1.358244228E1,-3.887094480E0,1.026809660E1,1.746499498E1
1.112624467E1,1.277252806E1,-2.993102569E0,9.029908342E0,1.592593422E1
1.113622267E1,1.078503607E1,-2.733123082E0,7.046532208E0,1.316968417E1
1.114620167E1,8.671813745E0,-2.553853297E0,4.885260385E0,1.027561625E1
1.115617967E1,6.510089348E0,-2.145226479E0,3.027017589E0,7.493069828E0
1.116615867E1,4.669980815E0,-1.880984956E0,1.604852974E0,5.284162969E0
1.117613667E1,3.357173020E0,-1.618009356E0,6.555797325E-1,3.783959533E0
1.118611542E1,2.370340773E0,-1.253117956E0,2.050905043E-1,2.689029956E0
1.119609342E1,1.580719907E0,-8.708082855E-1,8.521717474E-2,1.806722021E0
1.120607242E1,1.150861995E0,-4.794389391E-1,1.024344474E-1,1.250934788E0
1.121605042E1,7.874381000E-1,-2.694718570E-1,1.785451685E-1,8.512063323E-1
1.122602942E1,3.777738391E-1,-8.136926830E-2,8.719821140E-2,3.961534543E-1
1.123600742E1,2.141310306E-1,2.065306735E-1,-6.022807539E-2,3.035365520E-1
1.124598642E1,3.043788573E-1,4.088840961E-1,4.932725742E-2,5.121190010E-1
1.125596442E1,5.846699636E-1,6.272132814E-1,5.106468447E-1,9.979958249E-1
1.126594242E1,8.340981500E-1,8.068771684E-1,1.174277608E0,1.650968925E0
1.127592142E1,1.045573668E0,7.464941418E-1,1.730553639E0,2.155294341E0
1.128589942E1,9.196870615E-1,3.753918296E-1,1.813267182E0,2.067530215E0
1.129587842E1,6.226074296E-1,3.699416399E-2,1.325063267E0,1.464513995E0
1.130585642E1,3.035827589E-1,-5.514216721E-2,5.605502721E-1,6.398591702E-1
1.131583542E1,-1.172366738E-2,-6.611972988E-2,-2.546403944E-2,7.181699214E-2
1.132581342E1,-5.059244871E-2,1.344339198E-1,-4.878836341E-2,1.516983159E-1
1.133579242E1,1.225023839E-1,3.015958750E-1,5.816887607E-1,6.665798678E-1
1.134577042E1,3.050202969E-1,3.015274626E-1,1.625334894E0,1.680972846E0
1.135574942E1,4.381035098E-1,1.820518899E-1,2.676883392E0,2.718599322E0
1.136572742E1,6.808711329E-1,4.518202007E-2,3.535706055E0,3.600950461E0
1.137570642E1,9.285401845E-1,-1.244959921E-1,4.047526875E0,4.154534863E0
1.138568442E1,1.147541215E0,-5.011841494E-1,4.260930950E0,4.441122488E0
1.139566342E1,1.249752299E0,-9.275701314E-1,4.196026272E0,4.475366312E0
1.140564142E1,1.497586826E0,-1.263948169E0,3.711702569E0,4.197269021E0
1.141562042E1,1.814705012E0,-1.607443437E0,2.835339428E0,3.730439432E0
1.142559842E1,1.971603642E0,-1.913162768E0,1.683018115E0,3.221794946E0
1.143557642E1,2.065982088E0,-1.932697731E0,3.617713255E-1,2.852101156E0
1.144555542E1,2.054545812E0,-1.616002007E0,-7.388085616E-1,2.716331914E0
1.145553342E1,1.905291831E0,-1.271386997E0,-1.393235954E0,2.680982708E0
1.146551242E1,1.721097522E0,-1.033277850E0,-1.518953429E0,2.517351647E0
1.147549042E1,1.670702124E0,-1.171414812E0,-1.217412518E0,2.376036929E0
1.148546942E1,1.695558053E0,-1.531950620E0,-5.155501735E-1,2.342558814E0
1.149544742E1,1.694851125E0,-1.768119076E0,3.984818630E-1,2.481441758E0
1.150542642E1,1.638219087E0,-1.952288243E0,1.227113049E0,2.828603471E0
1.151540442E1,1.597941712E0,-2.085051613E0,1.528662146E0,3.039352875E0
1.152538342E1,1.495959839E0,-2.136510619E0,1.109050748E0,2.834178369E0
1.153536142E1,1.226154690E0,-2.053184872E0,2.321286142E-1,2.402687482E0
1.154534042E1,8.349262619E-1,-1.919216976E0,-7.476086211E-1,2.222479317E0
1.155531842E1,2.141636288E-1,-1.731600291E0,-1.717092179E0,2.448001466E0
1.156529742E1,-4.782121933E-1,-1.301831694E0,-2.648422655E0,2.989581111E0
1.157527542E1,-1.083715348E0,-8.844866771E-1,-3.343730271E0,3.624539662E0
1.158525342E1,-1.444568660E0,-6.190669405E-1,-3.463031597E0,3.802973880E0
1.159523242E1,-1.413469074E0,-5.233146912E-1,-2.936089293E0,3.300359590E0
1.160521042E1,-1.189195025E0,-5.628664273E-1,-2.100736769E0,2.478729189E0
1.161518942E1,-9.879367858E-1,-6.361209297E-1,-1.289220420E0,1.744350372E0
1.162516742E1,-8.738932765E-1,-7.793145633E-1,-6.179588932E-1,1.323968973E0
1.163514642E1,-9.534376287E-1,-8.594605941E-1,6.172788620E-2,1.285117176E0
1.164512442E1,-1.042911723E0,-7.929812604E-1,6.186634827E-1,1.448871508E0
1.165510342E1,-1.261826214E0,-6.815847856E-1,8.624491060E-1,1.673493853E0
1.166508142E1,-1.538931026E0,-5.752563849E-1,8.649072754E-1,1.856688775E0
1.167506042E1,-1.710492427E0,-4.890894762E-1,4.568610488E-1,1.836767507E0
1.168503842E1,-1.871104331E0,-5.035502252E-1,-2.056226009E-1,1.948557133E0
1.169501742E1,-2.026081274E0,-4.788711745E-1,-1.025097011E0,2.320591909E0
1.170499542E1,-2.127932754E0,-4.264710590E-1,-1.548853167E0,2.666256083E0
1.171497442E1,-2.226731987E0,-3.599750608E-1,-1.482902568E0,2.699429090E0
1.172495242E1,-2.232354085E0,-3.163057154E-1,-1.236328115E0,2.571373422E0
1.173493142E1,-2.197362007E0,-3.059505889E-1,-1.059373535E0,2.458511306E0
1.174490942E1,-2.154303111E0,-2.604346928E-1,-1.076075522E0,2.422145052E0
1.175488842E1,-1.976940104E0,-3.566155431E-1,-1.396231044E0,2.446411239E0
1.176486642E1,-2.075107838E0,-3.695165473E-1,-2.223790838E0,3.063961603E0
1.177484442E1,-2.735546168E0,-4.524677798E-1,-3.139168355E0,4.188355034E0
1.178482342E1,-3.869886709E0,-6.204407439E-1,-3.597873067E0,5.320306426E0
1.179480142E1,-4.998629125E0,-6.346132252E-1,-3.416257380E0,6.087679489E0
1.180478042E1,-6.075922476E0,-7.725279924E-1,-3.288407132E0,6.951780700E0
1.181475842E1,-6.822064615E0,-1.049530186E0,-3.601978982E0,7.785649094E0
1.182473742E1,-7.907147627E0,-1.286764881E0,-4.481233863E0,9.179335727E0
1.183471542E1,-9.571959851E0,-1.573666996E0,-5.535193607E0,1.116858144E1
1.184469442E1,-1.198522269E1,-2.024577077E0,-6.254114034E0,1.366961659E1
1.185467242E1,-1.466433738E1,-2.475865474E0,-6.204470004E0,1.611422194E1
1.186465142E1,-1.652374728E1,-3.061753559E0,-5.339613599E0,1.763292467E1
1.187462942E1,-1.679684032E1,-3.805200716E0,-4.496470245E0,1.779976522E1
1.188460842E1,-1.574311593E1,-4.857008393E0,-3.795827630E0,1.690693754E1
1.189458642E1,-1.364851230E1,-6.175032197E0,-2.703933197E0,1.522248881E1
1.190456442E1,-1.096436550E1,-7.189399567E0,-9.355475608E-1,1.314458163E1
1.191454342E1,-8.349118778E0,-7.942610405E0,9.574032104E-1,1.156328091E1
1.192452142E1,-6.239027633E0,-8.381142223E0,2.161385844E0,1.066961103E1
1.193450042E1,-4.995096238E0,-8.592983923E0,2.882514764E0,1.034887677E1
1.194447842E1,-3.525914308E0,-8.995560043E0,3.698784900E0,1.034568422E1
1.195445742E1,-7.386056632E-1,-1.005293427E1,4.633310294E0,1.109389877E1
1.196443542E1,1.542705989E0,-1.005039541E1,5.852883943E0,1.173229049E1
1.197441442E1,2.351089985E0,-9.155427597E0,8.145898798E0,1.247818680E1
1.198439242E1,3.521248522E0,-7.923183616E0,1.089447724E1,1.392356506E1
1.199437142E1,4.967506735E0,-6.423762226E0,1.293783470E1,1.527509119E1
1.200434942E1,6.128856150E0,-5.829584543E0,1.382021930E1,1.620325261E1
1.201432842E1,7.987131690E0,-5.088527727E0,1.385497281E1,1.678236153E1
1.202430642E1,9.871567672E0,-3.499904723E0,1.334716786E1,1.696596803E1
1.203428542E1,1.118923538E1,-2.627293156E0,1.255697514E1,1.702290464E1
1.204426342E1,1.094580410E1,-2.201062126E0,1.105036167E1,1.570878082E1
1.205424242E1,8.954205610E0,-1.909694200E0,8.547568599E0,1.252540055E1
1.206422042E1,6.246184625E0,-1.988352115E0,5.448667679E0,8.523869191E0
1.207419942E1,3.881180021E0,-2.120024979E0,2.440877489E0,5.051331229E0
1.208417742E1,2.446615655E0,-2.059715627E0,3.540407217E-1,3.217716808E0
1.209415542E1,2.124566658E0,-1.926172823E0,-5.316206610E-1,2.916598319E0
1.210413442E1,2.388160601E0,-1.676140035E0,-5.050707936E-1,2.961056058E0
1.211411242E1,2.771327035E0,-1.345827314E0,1.719888135E-1,3.085625519E0
1.212409142E1,3.120951939E0,-1.034568915E0,1.091328422E0,3.464342878E0
1.213406942E1,2.854205177E0,-6.424096102E-1,1.820521823E0,3.445791202E0
1.214404842E1,2.092552421E0,-3.542933214E-1,2.214620064E0,3.067383482E0
1.215402642E1,1.088904459E0,-4.598800027E-1,1.919685922E0,2.254417126E0
1.216400542E1,1.900117046E-1,-4.840898144E-1,9.524658215E-1,1.085190554E0
1.217398342E1,-3.296946698E-1,-1.729571307E-1,-7.977707148E-2,3.807586184E-1
1.218396254E1,-6.339925432E-1,1.495717764E-1,-7.241226947E-1,9.739979149E-1
1.219394054E1,-7.650099349E-1,3.589161301E-1,-9.248459136E-1,1.252757340E0
1.220391954E1,-5.206699955E-1,5.137960088E-1,-6.584900379E-1,9.842218820E-1
1.221389754E1,2.163247597E-1,6.843592894E-1,2.243506479E-1,7.519822151E-1
1.222387654E1,1.083654244E0,6.344264066E-1,1.501411198E0,1.957304006E0
1.223385454E1,1.669845507E0,2.978343612E-1,2.658465248E0,3.153494379E0
1.224383254E1,2.094546322E0,3.286252141E-2,3.522831071E0,4.098602566E0
1.225381154E1,2.337472989E0,-2.345172018E-1,4.040465777E0,4.673771709E0
1.226378954E1,2.439750731E0,-6.424113643E-1,4.076733717E0,4.794250076E0
1.227376854E1,2.537289012E0,-9.012494749E-1,3.706636541E0,4.581401597E0
1.228374654E1,2.668106137E0,-8.833049548E-1,3.363324291E0,4.383031860E0
1.229372554E1,2.634904185E0,-9.839308584E-1,3.212132835E0,4.269500831E0
1.230370354E1,2.446914740E0,-1.186517000E0,2.979792552E0,4.034151458E0
1.231368254E1,2.267416914E0,-1.376280783E0,2.556035478E0,3.683564255E0
1.232366054E1,1.945518921E0,-1.718126552E0,2.022218603E0,3.290345088E0
1.233363954E1,1.206826134E0,-2.226792798E0,1.512540203E0,2.950053110E0
1.234361754E1,2.840758628E-1,-2.353186212E0,1.181780756E0,2.648544921E0
1.235359654E1,-2.731287056E-1,-1.953476397E0,1.159942648E0,2.288260533E0
1.236357454E1,-9.572476745E-2,-1.469324602E0,1.051261620E0,1.809206735E0
1.237355354E1,5.406113398E-1,-1.142065297E0,7.370869951E-1,1.462829793E0
1.238353154E1,1.216545376E0,-1.258061192E0,3.067718303E-1,1.776741279E0
1.239350954E1,1.715282466E0,-1.423243280E0,1.915620938E-3,2.228860480E0
1.240348854E1,2.190989712E0,-1.424331447E0,1.543033433E-1,2.617816936E0
1.241346654E1,2.057938074E0,-1.663151030E0,5.321562660E-1,2.698957346E0
1.242344554E1,5.193450165E-1,-1.915032123E0,-7.274053216E-2,1.985537324E0
1.243342354E1,-8.394677943E-1,-1.366318882E0,-1.277413137E0,2.050199450E0
1.244340254E1,-1.863979499E0,-7.883356476E-1,-2.067782446E0,2.893374658E0
1.245338054E1,-2.539891316E0,-4.517096883E-1,-2.331940938E0,3.477504576E0
1.246335954E1,-2.606630266E0,2.177736998E-2,-2.247056909E0,3.441549120E0
1.247333754E1,-2.349746295E0,2.857265317E-1,-2.102972159E0,3.166297397E0
1.248331654E1,-1.858659117E0,2.802763420E-1,-2.070351713E0,2.796341316E0
1.249329454E1,-1.182409331E0,1.201713914E-1,-1.711808635E0,2.083943807E0
1.250327354E1,-5.231924844E-1,-2.885951757E-2,-2.779748414E-1,5.931553422E-1
1.251325154E1,-1.519492543E-1,-1.136543772E-1,1.759108517E0,1.769313049E0
1.252323054E1,-1.677355671E-1,-2.760654697E-1,3.407046846E0,3.422326047E0
1.253320854E1,-5.959552360E-1,-3.990639898E-1,4.071368896E0,4.134060885E0
1.254318754E1,-1.340026876E0,-2.893868887E-1,3.252114927E0,3.529258888E0
1.255316554E1,-2.178017664E0,5.863003135E-2,1.287383809E0,2.530722327E0
1.256314454E1,-2.806266487E0,3.243120155E-1,-6.873909245E-1,2.907372725E0
1.257312254E1,-3.118650475E0,4.522897321E-1,-2.010387931E0,3.737941469E0
1.258310054E1,-3.143585342E0,4.872531581E-1,-2.307675724E0,3.930001487E0
1.259307954E1,-2.964030213E0,4.075351435E-1,-1.941835906E0,3.566831462E0
1.260305754E1,-2.856121017E0,1.426846334E-1,-1.328135394E0,3.153050871E0
1.261303654E1,-3.023894007E0,-1.831096512E-1,-8.836781533E-1,3.155685533E0
1.262301454E1,-3.521935862E0,-5.654011953E-1,-1.189390468E0,3.760101118E0
1.263299354E1,-4.182603988E0,-8.124752927E-1,-2.166254674E0,4.779848485E0
1.264297154E1,-4.644069756E0,-8.757550299E-1,-3.375220743E0,5.807447446E0
1.265295054E1,-4.731963347E0,-9.686424360E-1,-4.402187986E0,6.535212648E0
1.266292854E1,-4.339305859E0,-1.274155068E0,-5.012891654E0,6.751453859E0
1.267290754E1,-3.955149638E0,-1.896747588E0,-5.336791148E0,6.908125638E0
1.268288554E1,-3.979804423E0,-2.470849147E0,-5.789887796E0,7.447599576E0
1.269286454E1,-4.685903660E0,-2.802354700E0,-6.504628633E0,8.492413004E0
1.270284254E1,-6.018336757E0,-3.189936512E0,-7.382212088E0,1.004455711E1
1.271282154E1,-7.957987998E0,-3.298723083E0,-8.460639798E0,1.207450093E1
1.272279954E1,-9.800204744E0,-3.077847435E0,-9.468334910E0,1.397020128E1
1.273277854E1,-1.122074603E1,-3.138586557E0,-9.768057922E0,1.520430276E1
1.274275654E1,-1.169507450E1,-3.677484663E0,-8.786266560E0,1.508300835E1
1.275273454E1,-1.135717092E1,-4.221774486E0,-6.721762648E0,1.385607463E1
1.276271354E1,-1.095378789E1,-4.789673319E0,-4.277178608E0,1.269727122E1
1.277269154E1,-1.080208422E1,-5.254010362E0,-2.487227783E0,1.226686392E1
1.278267054E1,-1.103644647E1,-5.322182465E0,-1.917116217E0,1.240177856E1
1.279264854E1,-1.173392457E1,-5.400467911E0,-1.651680547E0,1.302221518E1
1.280262754E1,-1.243712125E1,-5.761033541E0,-9.859868856E-1,1.374203997E1
1.281260554E1,-1.260791374E1,-6.665763863E0,-1.371009810E-1,1.426221208E1
1.282258454E1,-1.177089184E1,-8.606823113E0,1.115633544E0,1.462449783E1
1.283256254E1,-9.887945724E0,-1.061266834E1,2.218958845E0,1.467392171E1
1.284254154E1,-6.871181812E0,-1.242044499E1,2.095664163E0,1.434825430E1
1.285251954E1,-2.438224023E0,-1.389633484E1,1.193068221E0,1.415897137E1
1.286249854E1,2.834096895E0,-1.446331947E1,5.499481738E-1,1.474863242E1
1.287247654E1,7.860060584E0,-1.367641288E1,1.705968436E0,1.586616368E1
1.288245554E1,1.128840767E1,-1.189845703E1,5.941078666E0,1.744413492E1
1.289243354E1,1.209114968E1,-9.379230945E0,1.216914686E1,1.955131733E1
1.290241254E1,1.084676513E1,-6.893387783E0,1.663411933E1,2.102058597E1
1.291239054E1,9.162441916E0,-5.226639546E0,1.837791808E1,2.118999707E1
1.292236954E1,8.866326052E0,-4.195727479E0,1.836474898E1,2.082017944E1
1.293234754E1,1.005428731E1,-3.774521545E0,1.651369124E1,1.969867266E1
1.294232554E1,1.132400435E1,-3.313637576E0,1.337783183E1,1.783759100E1
1.295230454E1,1.098777658E1,-2.907971787E0,1.009064179E1,1.519896661E1
1.296228254E1,9.247238238E0,-2.548359253E0,7.004111828E0,1.187700014E1
1.297226154E1,6.605887206E0,-2.242155188E0,4.406595617E0,8.251247820E0
1.298223954E1,3.871302612E0,-1.962767622E0,2.657622079E0,5.089439632E0
1.299221854E1,1.859301142E0,-1.532594984E0,1.942951409E0,3.095304233E0
1.300219654E1,9.355983585E-1,-1.186540389E0,1.813478851E0,2.360493153E0
1.301217554E1,7.380072007E-1,-1.077486894E0,1.526627315E0,2.009035488E0
1.302215354E1,7.952134350E-1,-1.054689769E0,6.452607125E-1,1.470066768E0
1.303213254E1,7.957072324E-1,-1.030723786E0,-2.274766425E-1,1.321849896E0
1.304211054E1,8.010676673E-1,-9.053214759E-1,-4.856913668E-1,1.302771080E0
1.305208954E1,8.087780982E-1,-6.564639777E-1,-3.015550907E-1,1.084436461E0
1.306206754E1,8.915875357E-1,-3.558726543E-1,-2.099091947E-2,9.602157563E-1
1.307204654E1,1.089130746E0,-8.233873665E-2,3.758081514E-1,1.155083208E0
1.308202454E1,1.279262904E0,2.503777742E-2,8.640050501E-1,1.543905824E0
1.309200354E1,1.617282547E0,-3.408692837E-2,1.387348977E0,2.131079994E0
1.310198154E1,1.843442031E0,-2.465431702E-1,1.748105226E0,2.552436863E0
1.311195954E1,2.042361968E0,-3.305308217E-1,1.872233867E0,2.790296165E0
1.312193854E1,2.343530704E0,-3.144737828E-1,1.951989450E0,3.066152758E0
1.313191654E1,2.398461202E0,-5.392512774E-1,1.885113090E0,3.097912110E0
1.314189554E1,1.755827644E0,-1.012912583E0,1.243575300E0,2.378108942E0
1.315187354E1,1.228658468E0,-9.450720173E-1,3.763214638E-1,1.595111467E0
1.316185254E1,1.036623627E0,-6.717123467E-1,-1.338159422E-1,1.242454316E0
1.317183054E1,5.274241143E-1,-7.335641938E-1,-2.336132953E-1,9.332029761E-1
1.318180954E1,-2.472787499E-2,-7.433255357E-1,-1.559570090E-1,7.599124347E-1
1.319178667E1,-1.113806874E-1,-4.817573601E-1,1.727080393E-1,5.237593707E-1
1.320176567E1,1.221851724E-1,-3.775471133E-1,7.012677560E-1,8.057589619E-1
1.321174367E1,5.172938132E-1,-5.483401895E-1,1.243995715E0,1.454577324E0
1.322172267E1,1.062014576E0,-8.266875350E-1,1.568531386E0,2.066779609E0
1.323170067E1,1.582240183E0,-9.265299118E-1,1.699945804E0,2.500351458E0
1.324167967E1,1.956833868E0,-1.001340358E0,1.678322216E0,2.765618694E0
1.325165767E1,2.128616878E0,-1.343521172E0,1.487090782E0,2.923610430E0
1.326163667E1,1.777205649E0,-1.750069306E0,7.706256008E-1,2.610568197E0
1.327161467E1,1.444996092E0,-1.756885990E0,-1.444455224E-1,2.279369780E0
1.328159267E1,1.240701393E0,-1.563856537E0,-8.219752640E-1,2.158849358E0
1.329157167E1,1.071937886E0,-1.275229202E0,-1.081938817E0,1.986416863E0
1.330154967E1,1.088793654E0,-1.199651601E0,-8.028392275E-1,1.808089160E0
1.331152867E1,1.489945977E0,-1.313212715E0,-1.279973048E-1,1.990188423E0
1.332150667E1,1.995848830E0,-1.474845543E0,8.704837650E-1,2.629890475E0
1.333148567E1,2.367289111E0,-1.749312676E0,1.899075072E0,3.502947145E0
1.334146367E1,2.605595309E0,-2.030590646E0,2.643508655E0,4.230905730E0
1.335144267E1,2.416598681E0,-2.182580831E0,2.767630133E0,4.273568160E0
1.336142067E1,1.043018727E0,-2.157003063E0,1.597811757E0,2.879852894E0
1.337139967E1,-1.694747044E0,-1.670370879E0,-6.819823962E-1,2.475359854E0
1.338137767E1,-4.303223276E0,-8.102741084E-1,-3.011830031E0,5.314639671E0
1.339135667E1,-5.626027763E0,-3.740025312E-2,-4.291735252E0,7.076198036E0
1.340133467E1,-5.939318655E0,1.830503020E-1,-4.251096810E0,7.306219103E0
1.341131367E1,-5.563295910E0,-1.204301307E-1,-3.887682710E0,6.788139779E0
1.342129167E1,-4.325707574E0,-3.315593469E-1,-3.015731586E0,5.283589180E0
1.343127067E1,-3.163586912E0,-3.434794807E-1,-1.851875909E0,3.681807258E0
1.344124867E1,-2.508055565E0,-4.705266130E-1,-6.053388476E-1,2.622627143E0
1.345122767E1,-2.101137888E0,-5.639086935E-1,5.453160095E-1,2.242798027E0
1.346120567E1,-1.984805778E0,-5.809805167E-1,1.357065955E0,2.473584513E0
1.347118367E1,-2.341484179E0,-5.108598295E-1,1.779930452E0,2.985243430E0
1.348116267E1,-2.918161730E0,-3.818793154E-1,1.628284083E0,3.363451909E0
1.349114067E1,-3.555781301E0,-2.765928885E-1,7.792653005E-1,3.650662774E0
1.350111967E1,-4.077238916E0,-1.513718417E-1,-3.888740471E-1,4.098537988E0
1.351109767E1,-4.232663171E0,-9.905651093E-2,-1.463161052E0,4.479518944E0
1.352107667E1,-4.002115644E0,-2.426264128E-1,-2.282838068E0,4.613799610E0
1.353105467E1,-3.538383495E0,-3.398623931E-1,-2.746914325E0,4.492349331E0
1.354103367E1,-2.847537889E0,-3.509662557E-1,-2.679560248E0,3.925772849E0
1.355101167E1,-2.144335363E0,-3.582591954E-1,-2.204803466E0,3.096398250E0
1.356099067E1,-1.613619851E0,-3.102921465E-1,-1.528821191E0,2.244402921E0
1.357096867E1,-1.259201399E0,-1.752629802E-1,-7.727498943E-1,1.487766001E0
1.358094767E1,-1.050503747E0,4.071123898E-2,-3.039856321E-1,1.094359535E0
1.359092567E1,-1.081368275E0,2.067242163E-1,-2.344031811E-1,1.125627425E0
1.360090467E1,-1.363008188E0,2.818132827E-1,-4.717369866E-1,1.469607373E0
1.361088267E1,-1.603141056E0,2.494933829E-1,-8.208926520E-1,1.818288464E0
1.362086167E1,-1.823673472E0,1.508828683E-1,-1.185305019E0,2.180251948E0
1.363083967E1,-2.078449522E0,-6.578848511E-3,-1.398954092E0,2.505407801E0
1.364081867E1,-2.445373414E0,-2.305130285E-1,-1.487631211E0,2.871590850E0
1.365079667E1,-3.090178043E0,-4.082656069E-1,-1.548323555E0,3.480400405E0
1.366077467E1,-4.335974700E0,-5.047598679E-1,-1.882471318E0,4.753857107E0
1.367075367E1,-5.887226395E0,-6.183171813E-1,-2.522985261E0,6.434843074E0
1.368073167E1,-7.052115129E0,-9.041233814E-1,-3.276961500E0,7.828680831E0
1.369071067E1,-7.905222723E0,-1.456115157E0,-4.015464252E0,8.985364256E0
1.370068867E1,-8.731934232E0,-1.947967881E0,-4.678173056E0,1.009586834E1
1.371066767E1,-9.479784343E0,-2.250865639E0,-5.124403319E0,1.100873366E1
1.372064567E1,-9.981007669E0,-2.768348756E0,-5.489853712E0,1.172274553E1
1.373062467E1,-1.058920347E1,-3.207062715E0,-5.956083791E0,1.256548509E1
1.374060267E1,-1.102008947E1,-3.751839026E0,-6.175577157E0,1.317787620E1
1.375058167E1,-1.061769695E1,-4.566224312E0,-5.412146555E0,1.276233612E1
1.376055967E1,-9.573049772E0,-5.300690439E0,-3.455678723E0,1.147529156E1
1.377053867E1,-8.224263766E0,-6.091425784E0,-1.268914794E0,1.031281374E1
1.378051667E1,-6.210770379E0,-6.813414245E0,3.406669700E-1,9.225634740E0
1.379049567E1,-4.191098238E0,-7.374436460E0,8.442409495E-1,8.524104664E0
1.380047367E1,-3.107956502E0,-7.618462989E0,4.764756433E-1,8.241808113E0
1.381045267E1,-3.034366955E0,-7.639690136E0,9.924493745E-2,8.220833154E0
1.382043067E1,-3.382951639E0,-7.972520667E0,-1.377288258E-1,8.661663629E0
1.383040967E1,-3.774573001E0,-8.708759962E0,-1.863869425E-1,9.493399892E0
1.384038767E1,-3.304874353E0,-1.014607106E1,1.892990752E-1,1.067243115E1
1.385036667E1,-1.370939351E0,-1.117167853E1,1.225762342E0,1.132203026E1
1.386034467E1,7.008741653E-1,-1.130433197E1,3.704018158E0,1.191632899E1
1.387032267E1,3.898990348E0,-1.129736560E1,7.373243043E0,1.404269590E1
1.388030167E1,7.583433489E0,-9.818735740E0,1.214558375E1,1.736177525E1
1.389027967E1,1.097877421E1,-7.072741182E0,1.695267447E1,2.139977389E1
1.390025867E1,1.244026237E1,-4.209153271E0,2.022545813E1,2.411527018E1
1.391023667E1,1.191982276E1,-2.015470331E0,2.114675011E1,2.435835248E1
1.392021567E1,1.118542183E1,-1.113984044E0,1.994142144E1,2.289137198E1
1.393019367E1,1.046868183E1,-1.109091094E0,1.718813132E1,2.015577437E1
1.394017267E1,9.309939685E0,-1.822636760E0,1.322027509E1,1.627183626E1
1.395015067E1,7.735050037E0,-2.533732443E0,8.878187714E0,1.204462603E1
1.396012967E1,5.819124459E0,-2.995229201E0,4.926361633E0,8.191620498E0
1.397010767E1,3.813270459E0,-2.964865195E0,1.866893166E0,5.178488902E0
1.398008667E1,2.111639487E0,-2.534211915E0,1.385135404E-1,3.301581039E0
1.399006467E1,8.637296462E-1,-1.985354247E0,-4.455297661E-1,2.210465372E0
1.400004367E1,-9.242635310E-2,-1.629786817E0,-7.714816332E-1,1.805528070E0
1.401002167E1,-8.288700083E-1,-1.300200906E0,-1.563193463E0,2.195705283E0
1.402000067E1,-1.239450674E0,-1.009070377E0,-2.424774842E0,2.904133956E0
1.402997867E1,-1.299106599E0,-7.870381504E-1,-2.538841156E0,2.958516760E0
1.403995767E1,-1.369730439E0,-5.419199467E-1,-1.863449156E0,2.375348704E0
1.404993567E1,-1.456620941E0,-2.147033268E-1,-9.192045200E-1,1.735735877E0
1.405991467E1,-1.000783703E0,2.632989514E-1,5.578245560E-2,1.036342627E0
1.406989267E1,-1.450638655E-1,6.397111201E-1,1.190735182E0,1.359457287E0
1.407987067E1,7.251892269E-1,8.399881965E-1,2.099036983E0,2.374328503E0
1.408984967E1,1.474130136E0,8.735202241E-1,2.598019656E0,3.112202335E0
1.409982767E1,1.586478245E0,4.814755243E-1,2.488111882E0,2.989888400E0
1.410980667E1,9.547398037E-1,-1.794288290E-1,1.386340917E0,1.692827202E0
1.411978467E1,2.217761189E-1,-4.602951550E-1,-2.587743759E-2,5.115915543E-1
1.412976367E1,-2.604496032E-1,-4.567640215E-1,-8.301537645E-1,9.826609995E-1
1.413974167E1,-3.105760288E-1,-2.742683280E-1,-5.934748471E-1,7.238045175E-1
1.414972067E1,-2.748384315E-1,-9.254037380E-2,2.132690048E-1,3.599771557E-1
1.415969867E1,-1.422159791E-2,8.105293393E-2,1.005063280E0,1.008426512E0
1.416967767E1,6.150013715E-1,3.104140610E-1,1.785056121E0,1.913376317E0
1.417965567E1,1.397703227E0,3.826967561E-1,2.561418425E0,2.942939936E0
1.418963504E1,2.004395120E0,6.640448928E-2,3.109345216E0,3.700005004E0
1.419961304E1,2.090844449E0,-5.147350717E-1,2.915857342E0,3.624749197E0
1.420959204E1,1.413419958E0,-1.192210434E0,1.618145011E0,2.457135522E0
1.421957004E1,6.657552034E-1,-1.480513834E0,-4.360794961E-2,1.623900507E0
1.422954904E1,3.013169628E-1,-1.370646406E0,-1.087561281E0,1.775458538E0
1.423952704E1,3.323376113E-1,-1.063213840E0,-1.411478097E0,1.798094096E0
1.424950604E1,7.155910224E-1,-8.704527748E-1,-1.277534174E0,1.703482348E0
1.425948404E1,1.644061625E0,-1.007141966E0,-8.672379756E-1,2.114089703E0
1.426946204E1,2.791710429E0,-1.084953788E0,-2.460059573E-1,3.005210603E0
1.427944104E1,3.793338470E0,-1.125404241E0,7.276403797E-1,4.023109739E0
1.428941904E1,3.513536337E0,-1.436225853E0,1.281808050E0,4.006334256E0
1.429939804E1,1.910408145E0,-1.473446889E0,6.834594029E-1,2.507552945E0
1.430937604E1,2.749085981E-1,-9.239647382E-1,-1.445209515E-1,9.747676032E-1
1.431935504E1,-1.095406855E0,-5.708174711E-1,-6.237037826E-1,1.383746788E0
1.432933304E1,-2.044599406E0,-4.993633264E-1,-7.656794411E-1,2.239646282E0
1.433931204E1,-2.268392229E0,-3.177733666E-1,-7.193203765E-1,2.400834234E0
1.434929004E1,-1.779791288E0,-1.095797449E-1,-4.666996104E-1,1.843223610E0
1.435926904E1,-1.066166099E0,-2.226561248E-2,1.435225394E-1,1.076013303E0
1.436924704E1,-2.181338882E-1,-1.416838825E-2,9.436778949E-1,9.686645992E-1
1.437922604E1,3.393373132E-2,-1.432041585E-1,1.540710042E0,1.547722960E0
1.438920404E1,-1.227886051E0,-3.312693250E-1,7.865718350E-1,1.495372452E0
1.439918304E1,-2.953124571E0,-6.476493001E-2,-9.796023108E-1,3.112034690E0
1.440916104E1,-4.382594551E0,3.058889008E-1,-2.382959795E0,4.997919607E0
1.441914004E1,-4.909381903E0,3.617672324E-1,-3.061460613E0,5.797020553E0
1.442911804E1,-4.659729184E0,5.199870408E-1,-3.081797814E0,5.610787855E0
1.443909704E1,-3.935437505E0,6.499840933E-1,-2.682484440E0,4.806856608E0
1.444907504E1,-2.941176955E0,4.643297338E-1,-2.147508647E0,3.671228319E0
1.445905404E1,-1.902082295E0,2.666353726E-1,-1.525902553E0,2.453036909E0
1.446903204E1,-9.943003106E-1,1.544536167E-1,-7.827562344E-1,1.274831891E0
1.447901004E1,-3.497137821E-1,2.965123057E-3,1.198617813E-1,3.696963185E-1
1.448898904E1,-3.709368360E-1,-6.043857515E-2,8.160342005E-1,8.984201545E-1
1.449896704E1,-1.263134821E0,7.985308528E-2,7.543656635E-1,1.473415639E0
1.450894604E1,-2.336369619E0,2.646233457E-1,1.478380769E-2,2.351354306E0
1.451892404E1,-2.960358746E0,3.807595736E-1,-8.393520194E-1,3.100518275E0
1.452890304E1,-3.134026313E0,3.379053301E-1,-1.422512086E0,3.458300389E0
1.453888104E1,-2.920212348E0,2.482043642E-1,-1.549919991E0,3.315342749E0
1.454886004E1,-2.511080330E0,5.156220943E-2,-1.228179581E0,2.795819767E0
1.455883804E1,-1.976425549E0,-5.288484961E-2,-7.123826551E-1,2.101557471E0
1.456881704E1,-1.438005745E0,-1.452679333E-1,-3.122606117E-1,1.478671696E0
1.457879504E1,-1.035835422E0,-2.311293250E-1,4.377079457E-2,1.062210746E0
1.458877404E1,-9.665850931E-1,-2.602078208E-1,2.740262532E-1,1.037827172E0
1.459875204E1,-1.456889913E0,-2.176623103E-1,9.178374410E-3,1.473088369E0
1.460873104E1,-2.208029083E0,-2.506408989E-3,-7.595872271E-1,2.335031364E0
1.461870904E1,-2.790914623E0,1.128284580E-1,-1.569851395E0,3.204117366E0
1.462868804E1,-3.315411621E0,2.173585474E-2,-2.299984151E0,4.035139868E0
1.463866604E1,-3.838348582E0,-7.152080297E-2,-2.796701027E0,4.749691747E0
1.464864504E1,-4.466298028E0,-1.704369807E-1,-2.957807021E0,5.359616517E0
1.465862304E1,-5.052200730E0,-3.434882516E-1,-2.743444587E0,5.759271187E0
1.466860204E1,-5.545644920E0,-5.833030307E-1,-2.417185887E0,6.077598837E0
1.467858004E1,-5.942699515E0,-8.434912634E-1,-2.167604942E0,6.381666414E0
1.468855804E1,-6.233762215E0,-1.087228062E0,-2.188659012E0,6.695676552E0
1.469853704E1,-6.558755724E0,-1.322302796E0,-2.620423847E0,7.185567651E0
1.470851504E1,-6.794742916E0,-1.736187139E0,-3.548693306E0,7.859777430E0
1.471849404E1,-6.869131193E0,-2.126477089E0,-4.763628359E0,8.625486844E0
1.472847204E1,-7.205679969E0,-2.434826791E0,-5.892000062E0,9.621115842E0
1.473845104E1,-8.293362653E0,-2.732778973E0,-6.519745440E0,1.089747795E1
1.474842904E1,-9.837367308E0,-3.131387173E0,-6.269550683E0,1.207835448E1
1.475840804E1,-1.118018506E1,-3.998813721E0,-5.324156485E0,1.301282796E1
1.476838604E1,-1.197967720E1,-5.168252758E0,-4.483623912E0,1.379588292E1
1.477836504E1,-1.170719695E1,-6.885630282E0,-4.362239224E0,1.426532494E1
1.478834304E1,-1.022859632E1,-9.081749756E0,-4.612314112E0,1.443522784E1
1.479832204E1,-8.255072746E0,-1.120290968E1,-4.689433039E0,1.468476059E1
1.480830004E1,-6.383721077E0,-1.284234967E1,-4.389725815E0,1.499825098E1
1.481827904E1,-4.733656116E0,-1.409590032E1,-3.884812896E0,1.536859386E1
1.482825704E1,-3.253310975E0,-1.432183907E1,-2.467095820E0,1.489247019E1
1.483823604E1,-1.304141929E0,-1.418511479E1,1.747557525E-1,1.424601023E1
1.484821404E1,1.509848438E0,-1.385837121E1,3.508048140E0,1.437499554E1
1.485819304E1,3.908887053E0,-1.294122023E1,7.446022752E0,1.543365912E1
1.486817104E1,6.003745031E0,-1.163431491E1,1.225848881E1,1.793523866E1
1.487815004E1,8.379993830E0,-9.850614760E0,1.718000135E1,2.150375209E1
1.488812804E1,1.030028786E1,-7.527158716E0,2.000015556E1,2.372256880E1
1.489810704E1,1.176787116E1,-5.674200634E0,1.963125004E1,2.358103736E1
1.490808504E1,1.309076161E1,-4.684218493E0,1.739716928E1,2.227041628E1
1.491806404E1,1.360988560E1,-3.940830392E0,1.479761648E1,2.048727858E1
1.492804204E1,1.286288158E1,-3.471643960E0,1.209849145E1,1.799665329E1
1.493802004E1,1.113912825E1,-3.094928906E0,9.451401958E0,1.493277476E1
1.494799904E1,8.726330261E0,-2.757028254E0,6.989000868E0,1.151504137E1
1.495797704E1,6.033545365E0,-2.540833302E0,4.703894958E0,8.061397603E0
1.496795604E1,3.627500324E0,-2.321734623E0,2.811887416E0,5.143531968E0
1.497793404E1,1.722995236E0,-2.153083967E0,1.519162614E0,3.148386602E0
1.498791304E1,4.410545996E-1,-1.947038028E0,7.098763923E-1,2.118822959E0
1.499789104E1,-1.365324855E-3,-1.528904806E0,2.072631834E-1,1.542890079E0
1.500787004E1,1.194662172E-1,-9.637994796E-1,-5.449721932E-2,9.727032234E-1
1.501784804E1,3.613079336E-1,-3.453880119E-1,-1.872598587E-1,5.337626405E-1
1.502782704E1,6.407339443E-1,2.435412097E-1,-2.975624657E-1,7.472588101E-1
1.503780504E1,9.631048304E-1,7.361182576E-1,-8.808245659E-2,1.215400972E0
1.504778404E1,1.246947682E0,9.278010964E-1,5.199804626E-1,1.638924366E0
1.505776204E1,9.469039500E-1,5.085685980E-1,8.988727279E-1,1.401157126E0
1.506774104E1,2.766028288E-1,1.643476903E-1,3.053803392E-1,4.435949050E-1
1.507771904E1,-5.361458212E-2,3.667970073E-1,-3.406272089E-1,5.034297006E-1
1.508769804E1,-8.775764376E-2,4.617218757E-1,-1.229534966E-1,4.858045459E-1
1.509767604E1,1.449010205E-1,3.564070898E-1,6.148834039E-1,7.253302144E-1
1.510765504E1,5.950071099E-1,3.272481948E-1,1.097893676E0,1.290928103E0
1.511763304E1,1.068610235E0,3.995367372E-1,1.353225358E0,1.769965059E0
1.512761204E1,1.393894935E0,3.945063776E-1,1.447512587E0,2.047894300E0
1.513759004E1,1.735889223E0,1.997098964E-1,1.332586294E0,2.197494407E0
1.514756904E1,1.841381472E0,-5.070529997E-2,1.124807387E0,2.158343904E0
1.515754704E1,1.678015529E0,-2.674405342E-1,9.958124006E-1,1.969493055E0
1.516752604E1,1.345508349E0,-4.297966629E-1,1.298146487E0,1.918411371E0
1.517750404E1,8.998052126E-1,-6.100207132E-1,1.676029230E0,1.997710858E0
1.518748204E1,7.759731719E-1,-7.164324367E-1,1.860234357E0,2.139131053E0
1.519746104E1,1.093531069E0,-7.255266112E-1,1.812402379E0,2.237633000E0
1.520743904E1,1.693823184E0,-7.522103798E-1,1.597504632E0,2.446809859E0
1.521741804E1,2.123400869E0,-7.885321140E-1,1.598169753E0,2.772140095E0
1.522739604E1,2.039635412E0,-9.343645960E-1,1.775691805E0,2.861159065E0
1.523737504E1,1.417656850E0,-1.249195644E0,1.320381840E0,2.305135333E0
1.524735304E1,3.002954543E-1,-1.302198315E0,8.828871712E-2,1.339288135E0
1.525733204E1,-6.002628797E-1,-9.883782506E-1,-1.033128746E0,1.550665050E0
1.526731004E1,-1.011166604E0,-5.784714764E-1,-1.460201191E0,1.867960029E0
1.527728904E1,-9.981419313E-1,-2.626861632E-1,-1.217649623E0,1.596233673E0
1.528726704E1,-8.383983386E-1,-3.032108760E-1,-6.486354330E-1,1.102531875E0
1.529724604E1,-2.479172659E-1,-3.789691561E-1,-1.287700143E-1,4.708102682E-1
1.530722404E1,2.434651959E-1,-7.971661127E-1,7.424794436E-2,8.368165092E-1
1.531720304E1,-2.103243470E-1,-1.210835570E0,-6.705519667E-1,1.399999660E0
1.532718104E1,-1.356309618E0,-1.070495963E0,-2.166669534E0,2.771280255E0
1.533716004E1,-2.329044228E0,-7.162014717E-1,-3.199758958E0,4.021921052E0
1.534713804E1,-2.864128194E0,-5.050433117E-1,-3.330098072E0,4.421295312E0
1.535711704E1,-2.646415890E0,-2.347657084E-1,-2.733322764E0,3.811782436E0
1.536709504E1,-1.997993588E0,1.656106889E-2,-1.722837068E0,2.638260831E0
1.537707404E1,-1.226068736E0,-3.596797764E-2,-8.003189313E-1,1.464598455E0
1.538705204E1,-5.976252007E-1,-2.041298068E-1,-1.581113425E-1,6.510177073E-1
1.539703104E1,-3.214518499E-1,-4.393820035E-1,4.263906598E-2,5.460823444E-1
1.540700904E1,-3.253320622E-1,-5.771429890E-1,-8.937878430E-2,6.685234084E-1
1.541698704E1,-4.064732891E-1,-6.305111110E-1,-2.263588741E-1,7.835835219E-1
1.542696604E1,-5.413048196E-1,-6.032151389E-1,-3.811016357E-1,8.956103328E-1
1.543694404E1,-7.814382720E-1,-5.192719263E-1,-5.893800420E-1,1.107997265E0
1.544692304E1,-1.318191619E0,-3.989333045E-1,-9.571313149E-1,1.677163462E0
1.545690104E1,-2.054128028E0,-1.804889292E-1,-1.458350840E0,2.525629700E0
1.546688004E1,-2.509026203E0,3.029793262E-2,-1.791957297E0,3.083381489E0
1.547685804E1,-2.501233619E0,1.176249290E-1,-1.751782832E0,3.055936572E0
1.548683704E1,-2.146633319E0,1.200339818E-1,-1.418664033E0,2.575859158E0
1.549681504E1,-1.664642070E0,5.328216791E-2,-9.768519267E-1,1.930831918E0
1.550679404E1,-1.182892896E0,-1.224114597E-2,-6.462851447E-1,1.347987365E0
1.551677204E1,-8.163572592E-1,-1.119174618E-1,-4.420682144E-1,9.350876959E-1
1.552675104E1,-5.922919554E-1,-2.809821010E-1,-3.895327359E-1,7.625591477E-1
1.553672904E1,-5.452663082E-1,-3.087499434E-1,-3.859159407E-1,7.359164271E-1
1.554670804E1,-5.997752219E-1,-2.662915564E-1,-4.516971168E-1,7.966629119E-1
1.555668604E1,-7.922410029E-1,-1.691231114E-1,-6.100277299E-1,1.014091842E0
1.556666504E1,-9.570324969E-1,-1.144662631E-1,-7.771312129E-1,1.238122226E0
1.557664304E1,-1.118879333E0,-1.348543346E-1,-8.966462544E-1,1.440156644E0
1.558662204E1,-1.466370004E0,-1.381597656E-1,-1.092992248E0,1.834110455E0
1.559660004E1,-1.916685716E0,-1.826775420E-1,-1.446316101E0,2.408087515E0
1.560657904E1,-2.229742718E0,-2.228394350E-1,-1.700175599E0,2.812829016E0
1.561655704E1,-2.509708573E0,-2.454804388E-1,-1.717809632E0,3.051191194E0
1.562653604E1,-2.847225648E0,-3.166270199E-1,-1.616210460E0,3.289237421E0
1.563651404E1,-3.327880223E0,-3.896192747E-1,-1.624074965E0,3.723467396E0
1.564649304E1,-4.402841704E0,-3.668493399E-1,-2.230023969E0,4.948999941E0
1.565647104E1,-6.183583165E0,-2.097270539E-1,-3.282098279E0,7.003774361E0
1.566644904E1,-8.038742139E0,-2.955679804E-2,-4.194163349E0,9.067152528E0
1.567642804E1,-1.047962197E1,-1.444782668E-1,-4.893460228E0,1.156673262E1
1.568640604E1,-1.379667841E1,-6.557260591E-1,-5.042899565E0,1.470405209E1
1.569638504E1,-1.675202024E1,-1.195018267E0,-4.474374787E0,1.738039932E1
1.570636304E1,-1.890563163E1,-1.945452847E0,-3.904349613E0,1.940236171E1
1.571634204E1,-1.925417948E1,-3.625123431E0,-3.976952443E0,1.999202586E1
1.572632004E1,-1.703825315E1,-6.041227437E0,-4.737551531E0,1.868804146E1
1.573629904E1,-1.364010635E1,-8.170292796E0,-5.223203137E0,1.673583092E1
1.574627704E1,-1.009698368E1,-9.506378065E0,-4.738397039E0,1.465512572E1
1.575625604E1,-7.506240302E0,-1.016395301E1,-3.021308953E0,1.299145458E1
1.576623404E1,-5.714942864E0,-1.106958381E1,-2.587831467E-1,1.246046654E1
1.577621304E1,-3.584847225E0,-1.194805545E1,2.880149565E0,1.280243806E1
1.578619104E1,-1.586817968E0,-1.234861662E1,5.962454333E0,1.380424520E1
1.579617004E1,7.947009265E-2,-1.290509731E1,8.426437680E0,1.541274485E1
1.580614804E1,1.888090200E0,-1.232719242E1,1.036257708E1,1.621442449E1
1.581612704E1,4.088132864E0,-1.076142151E1,1.197730323E1,1.661254995E1
1.582610504E1,7.936452118E0,-9.334045417E0,1.292308100E1,1.780779882E1
1.583608404E1,1.086482250E1,-7.336112639E0,1.302583295E1,1.848067209E1
1.584606204E1,1.240970132E1,-5.621317831E0,1.275436778E1,1.866209523E1
1.585604104E1,1.385566980E1,-4.596652930E0,1.255823813E1,1.925663908E1
1.586601904E1,1.453542850E1,-3.867106943E0,1.211101268E1,1.931087325E1
1.587599804E1,1.406073516E1,-3.201707250E0,1.082448373E1,1.803121323E1
1.588597604E1,1.239849688E1,-2.897811080E0,8.934143229E0,1.555438681E1
1.589595504E1,1.001430405E1,-2.804532203E0,7.059499578E0,1.256933653E1
1.590593304E1,7.576862973E0,-2.740757207E0,5.274507776E0,9.630214684E0
1.591591204E1,5.427077420E0,-2.734100152E0,3.597157368E0,7.061728832E0
1.592589004E1,3.738307400E0,-2.627689013E0,2.062125265E0,5.013187845E0
1.593586804E1,2.549148920E0,-2.299107653E0,7.718845063E-1,3.518502793E0
1.594584704E1,1.829355942E0,-1.801426570E0,-1.319554313E-1,2.570815646E0
1.595582504E1,1.655133182E0,-1.201223332E0,-5.963227335E-1,2.130259173E0
1.596580404E1,1.542951864E0,-5.632272005E-1,-6.717522539E-1,1.774591904E0
1.597578204E1,1.533822607E0,9.902084291E-2,-5.582442033E-1,1.635253346E0
1.598576104E1,1.630126833E0,5.374322087E-1,-1.936182672E-1,1.727320151E0
1.599573904E1,1.495238000E0,5.257599968E-1,3.120634143E-1,1.615408253E0
1.600571804E1,1.167095766E0,2.684193581E-1,7.634807418E-1,1.420233897E0
1.601569604E1,5.509775761E-1,-6.502279222E-2,8.678987110E-1,1.030073990E0
1.602567504E1,-2.899110916E-1,-1.535285872E-1,4.713230038E-1,5.742515494E-1
1.603565304E1,-8.753480637E-1,2.165001762E-1,9.453763649E-2,9.066663795E-1
1.604563204E1,-1.158712028E0,6.595928228E-1,9.978609726E-2,1.337024129E0
1.605561004E1,-1.195322907E0,8.179909712E-1,3.990309530E-1,1.502375380E0
1.606558904E1,-9.554052168E-1,8.472843522E-1,6.894130379E-1,1.451199586E0
1.607556704E1,-4.894835785E-1,6.701289207E-1,9.115766810E-1,1.232736383E0
1.608554604E1,1.207812560E-1,3.903074920E-1,1.150700319E0,1.221081191E0
1.609552404E1,4.036110771E-1,1.070999408E-1,1.558636143E0,1.613604328E0
1.610550304E1,1.481848168E-1,-1.913232350E-1,1.752815743E0,1.769442384E0
