"Time (s)","Linear Acceleration x (m/s^2)","Linear Acceleration y (m/s^2)","Linear Acceleration z (m/s^2)","Absolute acceleration (m/s^2)"
6.872083335E-3,5.180917206E-2,2.975448875E-2,1.262741303E-1,1.396949387E-1
1.690908334E-2,7.374637202E-2,3.361911457E-2,6.475089669E-2,1.037374131E-1
2.694608334E-2,6.021501051E-2,-1.096084328E-2,1.804801583E-2,6.381001843E-2
3.698308333E-2,3.352524620E-2,-4.973686402E-2,2.163937569E-2,6.376488340E-2
4.702008333E-2,-2.898796446E-2,-3.660793712E-2,3.750521064E-2,5.989226969E-2
5.705708333E-2,-6.152317883E-2,-2.310393875E-2,2.433377266E-2,7.007871297E-2
6.709308333E-2,-4.020680699E-2,-4.872673924E-2,2.119147897E-2,6.663303405E-2
7.713008333E-2,-3.074250374E-2,-5.473753989E-2,3.196965158E-2,7.045110667E-2
8.716708333E-2,-3.298909764E-2,-1.218499443E-2,3.361564279E-2,4.864942027E-2
9.720408333E-2,-1.892898224E-2,9.307652693E-3,4.469319284E-2,4.942084837E-2
1.072410833E-1,4.491481602E-2,-1.183936916E-2,2.822801828E-2,5.435377058E-2
1.172780833E-1,6.274021282E-2,-1.868824940E-3,2.298891306E-2,6.684547056E-2
1.273150833E-1,4.204581114E-2,-1.870286744E-3,3.406763256E-2,5.414750035E-2
1.373510833E-1,4.787837677E-2,1.603694824E-2,1.610381663E-2,5.299863754E-2
1.473880833E-1,5.068517276E-2,-1.726534775E-2,2.763043284E-2,6.025379482E-2
1.574250833E-1,1.864409607E-2,-1.462521111E-2,2.134409130E-2,3.189152476E-2
1.674620833E-1,-2.775220111E-2,-3.370415501E-2,6.086249828E-2,7.490259294E-2
1.774990833E-1,-2.986412404E-2,-3.468521730E-2,1.670491040E-2,4.872354908E-2
1.875360833E-1,-1.755558320E-2,-3.599066301E-2,2.538802564E-2,4.741390272E-2
1.975730833E-1,-2.555874150E-2,-2.933928162E-2,3.870973706E-2,5.488612262E-2
2.076100833E-1,-3.686871152E-2,-2.270272840E-2,2.059681714E-2,4.794731110E-2
2.176460833E-1,3.252656461E-3,-1.917295617E-2,2.927934766E-2,3.514914255E-2
2.276830833E-1,2.968893141E-2,-1.003994336E-2,3.481666088E-2,4.684477544E-2
2.377200833E-1,2.946826983E-2,-8.779301941E-3,3.915821850E-2,4.978776100E-2
2.477570833E-1,1.798475398E-2,-1.510764294E-2,3.077623487E-2,3.871522806E-2
2.577940833E-1,2.322356000E-2,-2.084695919E-2,4.439673901E-2,5.426785311E-2
2.678310833E-1,3.541187774E-2,-1.016817098E-2,4.050307810E-2,5.475301016E-2
2.778680833E-1,2.800560939E-2,1.614146722E-2,6.609926462E-2,7.357971123E-2
2.879040833E-1,1.087084527E-2,2.949116305E-3,3.197023630E-2,3.389643894E-2
2.979407083E-1,3.641981895E-2,-2.324732345E-2,2.148910224E-2,4.825580561E-2
3.079777083E-1,4.000510546E-2,-3.580390843E-2,2.253575385E-2,5.822532545E-2
3.180147083E-1,6.896448252E-3,5.652887095E-3,3.825306952E-2,3.927866417E-2
3.280517083E-1,-1.656774637E-2,-2.666330338E-3,3.331158757E-2,3.729961667E-2
3.380887083E-1,7.952299511E-3,-1.618913116E-2,2.193407536E-2,2.839772345E-2
3.481257083E-1,2.372129966E-2,-2.993598998E-2,1.130617619E-2,3.983331738E-2
3.581627083E-1,1.147736484E-2,-7.863975149E-3,2.926940739E-2,3.240787278E-2
3.681987083E-1,2.110508179E-2,-1.098954946E-2,5.980590641E-2,6.436568276E-2
3.782357083E-1,-1.255359799E-3,-6.271824008E-3,2.268368840E-2,2.356822913E-2
3.882727083E-1,8.544533378E-3,-3.016087024E-2,3.151473820E-2,4.445071279E-2
3.983097083E-1,2.007297514E-2,-2.568875525E-2,4.064633489E-2,5.210528780E-2
4.083467083E-1,5.940394232E-3,-1.554179871E-2,3.151532292E-2,3.563778009E-2
4.183837083E-1,-9.406291909E-3,-2.512492835E-2,3.570660710E-2,4.466208843E-2
4.284207083E-1,2.152607047E-3,-3.978178751E-2,3.016812444E-2,4.997339359E-2
4.384567083E-1,3.098472408E-3,-4.637636868E-2,9.788239002E-4,4.649006560E-2
4.484937083E-1,-1.171843344E-2,-2.565781069E-2,6.698979557E-2,7.268615853E-2
4.585307083E-1,8.893316936E-3,2.770447321E-3,2.717142642E-2,2.872373370E-2
4.685677083E-1,2.748144305E-2,-1.021610901E-2,2.567395449E-2,3.897115003E-2
4.786047083E-1,7.641465752E-2,-2.588703068E-2,2.387768984E-2,8.413965958E-2
4.886417083E-1,5.292291133E-2,6.731844563E-3,4.438387513E-2,6.939798734E-2
4.986787083E-1,1.428539195E-2,5.711624203E-3,4.408274353E-2,4.669029183E-2
5.087147083E-1,-2.334947956E-3,-1.241870033E-2,2.582071960E-2,2.874692436E-2
5.187517083E-1,-1.024731510E-2,-4.925306174E-2,2.716791809E-2,5.717488374E-2
5.287887083E-1,-1.436398218E-2,-4.714687639E-2,3.524993956E-2,6.059463818E-2
5.388257083E-1,-3.561367292E-2,-1.835613669E-2,5.216418028E-2,6.577524730E-2
5.488627083E-1,-1.745401638E-2,-1.604863353E-2,3.914067686E-2,4.576236347E-2
5.588997083E-1,2.278361869E-2,-2.633295396E-2,1.099919736E-2,3.651712047E-2
5.689367083E-1,3.276136686E-2,-1.950553483E-2,4.138659239E-2,5.627275608E-2
5.789737083E-1,4.690827801E-2,1.083494542E-2,2.911094785E-2,5.626037569E-2
5.890097083E-1,2.177893456E-2,9.153578561E-3,4.258176327E-2,4.869616570E-2
5.990467083E-1,2.810734637E-2,-2.615785726E-2,3.524701595E-2,5.212109506E-2
6.090837083E-1,1.409936484E-2,-2.258604904E-2,2.177678525E-2,3.439694864E-2
6.191207083E-1,-1.503711433E-2,-1.530018993E-2,2.896184385E-2,3.604162896E-2
6.291577083E-1,-4.342209952E-2,-2.184625749E-2,3.270523131E-2,5.858643058E-2
6.391947083E-1,-7.803600363E-3,-2.876985418E-2,2.911445618E-2,4.166836026E-2
6.492317083E-1,-7.165581484E-4,-3.926650163E-2,2.611951232E-2,4.716567109E-2
6.592677083E-1,-1.078993328E-2,-2.171394596E-2,3.929270446E-2,4.617179586E-2
6.693047083E-1,1.027297832E-3,-1.022126187E-2,4.393363953E-2,4.511866817E-2
6.793417083E-1,1.943525404E-2,-2.086085547E-4,4.902305603E-2,5.273549696E-2
6.893787083E-1,5.181315091E-2,-7.727232529E-3,3.180943787E-2,6.128746256E-2
6.994157083E-1,3.291324372E-2,-9.385959702E-3,1.833745301E-2,3.882834061E-2
7.094527083E-1,1.839911772E-3,-4.022537190E-3,3.285725892E-2,3.315366562E-2
7.194897083E-1,2.125914450E-2,-2.481301594E-2,1.893503845E-2,3.776470132E-2
7.295267083E-1,-9.711674738E-3,-3.044257812E-2,1.863624573E-2,3.699157801E-2
7.395627083E-1,-3.177336101E-2,-2.391186864E-2,5.605901062E-2,6.873089992E-2
7.495997083E-1,-2.379663053E-2,-2.639399341E-2,2.731819153E-2,4.482416872E-2
7.596367083E-1,-2.009058302E-2,-4.033032943E-2,3.734733582E-2,5.852341831E-2
7.696737083E-1,-3.614055787E-3,-1.645059306E-2,4.258761048E-2,4.579724859E-2
7.797107083E-1,1.101399128E-2,5.210791910E-3,2.761990786E-2,3.018807159E-2
7.897477083E-1,3.634864280E-2,-2.061259548E-2,1.878944278E-2,4.581643904E-2
7.997847083E-1,5.095125305E-2,-3.207469133E-2,2.058512270E-2,6.362832143E-2
8.098207083E-1,4.334016998E-2,-1.370597399E-2,2.806838930E-2,5.342338939E-2
8.198577083E-1,3.924526893E-2,-3.382906616E-3,3.809753358E-2,5.480015744E-2
8.298947083E-1,2.911673568E-3,-1.468043989E-2,3.016461611E-2,3.367339043E-2
8.399317083E-1,-1.537112282E-2,-4.669432931E-2,3.001375794E-2,5.759737383E-2
8.499687083E-1,-1.605926359E-2,-3.632843108E-2,1.624181092E-2,4.291213434E-2
8.600057083E-1,-9.800133290E-3,-2.245273252E-2,4.543169618E-2,5.161595516E-2
8.700427083E-1,-1.288066234E-4,-1.553213253E-2,4.902247131E-2,5.142437579E-2
8.800797083E-1,2.784253146E-2,-1.383113181E-2,4.647600889E-2,5.591534823E-2
8.901157083E-1,2.823436114E-2,-1.478644808E-2,3.479970396E-2,4.718938007E-2
9.001527083E-1,4.347574772E-2,4.623740595E-3,4.886927426E-2,6.557229281E-2
9.101897083E-1,6.221336955E-2,1.533732888E-2,4.722211361E-2,7.959689078E-2
9.202267083E-1,5.366540265E-2,1.415912407E-3,3.988619685E-2,6.687966020E-2
9.302637083E-1,5.498132310E-3,-2.806161932E-2,2.970677912E-2,4.123319856E-2
9.403007083E-1,-1.774995173E-2,-2.557294384E-2,2.596397638E-2,4.053596320E-2
9.503377083E-1,-1.625156275E-2,-5.439637313E-3,4.302907526E-2,4.631634986E-2
9.603737083E-1,-8.283881178E-3,-2.257123000E-2,3.779055476E-2,4.479072605E-2
9.704107083E-1,-1.528209439E-2,-4.121303972E-2,2.835958064E-2,5.230987350E-2
9.804477083E-1,-2.974343614E-2,-2.648509121E-2,3.958681941E-2,5.615379168E-2
9.904847083E-1,-7.074458281E-3,-6.688045263E-3,3.794141293E-2,3.917050835E-2
1.000521708E0,2.035936765E-2,8.461286500E-4,3.045639217E-2,3.664439396E-2
1.010558708E0,3.584838838E-2,1.403304348E-3,3.120425105E-2,4.754767603E-2
1.020595708E0,3.904956536E-2,-6.045893077E-3,2.656331599E-2,4.761335038E-2
1.030631708E0,2.096818614E-2,4.236463057E-3,3.584460139E-2,4.174263885E-2
1.040668708E0,2.741514110E-2,3.425938468E-3,1.683354914E-2,3.235267211E-2
1.050705708E0,2.051959734E-2,-1.310328137E-2,1.309133112E-2,2.764295224E-2
1.060742708E0,-2.272278024E-2,-3.426118453E-2,3.240059137E-2,5.234454918E-2
1.070779708E0,-2.165454875E-2,-2.281197997E-2,4.227946222E-2,5.269590911E-2
1.080816708E0,1.402767363E-2,-3.611706337E-2,2.850926936E-2,4.810401577E-2
1.090853708E0,4.829350167E-3,-2.833316767E-2,3.704152644E-2,4.688459975E-2
1.100890708E0,1.778690111E-2,-1.464836243E-2,3.150245905E-2,3.903015884E-2
1.110926708E0,1.663403232E-2,7.218168452E-3,1.803164363E-2,2.557211683E-2
1.120963708E0,3.048826863E-2,-5.414430331E-3,3.883779109E-2,4.967116464E-2
1.131000708E0,4.590650379E-2,-1.299264109E-2,3.210238338E-2,5.750459835E-2
1.141037708E0,2.006444871E-2,-1.211198646E-2,3.719179988E-2,4.396034914E-2
1.151074708E0,6.454876690E-3,-2.139712737E-2,3.928744197E-2,4.519961935E-2
1.161111708E0,2.243207198E-3,-1.601631853E-2,1.713409603E-2,2.356123266E-2
1.171148708E0,-4.232585565E-3,-2.061711794E-2,1.848070979E-2,2.800923003E-2
1.181184708E0,4.304732726E-4,-2.172825336E-2,2.267257869E-2,3.140617974E-2
1.191221708E0,7.119889548E-3,-6.969369426E-3,1.698499203E-2,1.969149287E-2
1.201258708E0,9.603743360E-3,-2.045453793E-2,2.970853329E-2,3.732582161E-2
1.211295708E0,7.085689047E-3,-1.927892782E-2,1.818250179E-2,2.743150412E-2
1.221332708E0,2.867101111E-2,-1.002559941E-2,4.228121638E-2,5.205997292E-2
1.231369708E0,3.314228099E-2,-1.033714637E-3,4.422716975E-2,5.527677541E-2
1.241406708E0,2.156774273E-2,-2.246663793E-2,2.401977718E-2,3.933023064E-2
1.251443708E0,1.475308240E-2,-1.916191041E-2,3.150362849E-2,3.971537309E-2
1.261479708E0,3.569684043E-3,-3.217381991E-2,3.779055476E-2,4.975965595E-2
1.271516708E0,-5.287091793E-3,-3.366930013E-2,2.641421199E-2,4.311943536E-2
1.281553708E0,1.434042201E-3,-1.924890602E-2,4.048436701E-2,4.485042734E-2
1.291590708E0,6.105268297E-4,-4.167657774E-2,2.686269343E-2,4.958743967E-2
1.301628583E0,-2.053017715E-2,-2.772923252E-2,2.282109797E-2,4.136666559E-2
1.311665583E0,2.425226110E-2,-2.862081413E-2,4.063347101E-2,5.530282214E-2
1.321702583E0,1.439490618E-2,-2.001050586E-2,4.153101861E-2,4.829553992E-2
1.331738583E0,3.339333896E-2,-2.047741516E-2,1.922798395E-2,4.363662436E-2
1.341775583E0,2.774303057E-2,-1.788720827E-2,2.536463678E-2,4.162922968E-2
1.351812583E0,9.944102702E-3,-2.388178289E-2,3.240000665E-2,4.146064596E-2
1.361849583E0,-2.792939116E-3,-2.420275848E-2,3.299876153E-2,4.101819462E-2
1.371886583E0,3.168874540E-3,-2.660019913E-2,3.389689386E-2,4.320430271E-2
1.381923583E0,9.794638962E-3,-2.013750007E-2,5.141047418E-2,5.607575873E-2
1.391960583E0,1.143224193E-2,-2.820839357E-2,2.895716608E-2,4.201103534E-2
1.401996583E0,7.063192113E-3,-2.107306371E-2,3.135277033E-2,3.843122304E-2
1.412033583E0,9.237109234E-3,-1.976251082E-2,3.329872370E-2,3.980811501E-2
1.422070583E0,1.433557179E-2,-3.937725155E-3,3.075460017E-2,3.415932859E-2
1.432107583E0,1.032725350E-3,3.946870565E-3,4.767001033E-2,4.784427023E-2
1.442144583E0,1.242320794E-2,-1.500149771E-2,2.880864680E-2,3.477526649E-2
1.452181583E0,-3.679849240E-3,-1.697972953E-2,2.880864680E-2,3.364209619E-2
1.462218583E0,9.002736385E-3,-1.201209957E-3,4.198066950E-2,4.295193569E-2
1.472254583E0,4.886803629E-3,-7.331522210E-3,3.344841242E-2,3.458942557E-2
1.482291583E0,1.761273631E-2,-1.420820413E-2,3.988385797E-2,4.585633731E-2
1.492328583E0,-1.226151986E-3,-2.962182091E-2,3.479444146E-2,4.571223993E-2
1.502365583E0,-6.769108000E-3,-2.086176910E-2,3.389572442E-2,4.037269333E-2
1.512402583E0,4.909080722E-3,4.146406800E-4,4.122988701E-2,4.152318127E-2
1.522439583E0,1.622045031E-2,-1.728383956E-2,3.688832939E-2,4.384726860E-2
1.532476583E0,1.273810677E-2,-1.274248076E-2,4.107902884E-2,4.485662482E-2
1.542513583E0,1.200904320E-3,-5.520950155E-3,4.242564261E-2,4.280021276E-2
1.552549583E0,1.215171669E-2,-7.793242112E-3,2.955299735E-2,3.289040124E-2
1.562586583E0,3.206317848E-3,-2.019052701E-2,2.655980766E-2,3.351658154E-2
1.572623583E0,2.899324180E-3,-1.439399027E-2,4.287646294E-2,4.532090148E-2
1.582660583E0,2.104526432E-2,-2.863241720E-2,2.865486503E-2,4.564887462E-2
1.592697583E0,2.701212177E-2,-2.723772836E-2,3.045054495E-2,4.897738515E-2
1.602734583E0,5.488023022E-3,-1.357694238E-2,3.164805472E-2,3.487192465E-2
1.612771583E0,9.793002427E-3,-2.083854469E-2,3.104871511E-2,3.865450234E-2
1.622807583E0,-1.032261256E-3,-2.673333292E-2,3.000147879E-2,4.019733053E-2
1.632844583E0,-2.676764819E-3,-2.211973359E-2,3.269587576E-2,3.956599520E-2
1.642881583E0,6.093662088E-3,-2.399053196E-2,3.119840384E-2,3.982485083E-2
1.652918583E0,1.599869922E-2,-1.492436014E-2,1.907420218E-2,2.902619664E-2
1.662955583E0,8.356979368E-3,-3.009671532E-2,2.805435598E-2,4.198450031E-2
1.672992583E0,6.397684754E-3,-1.411836714E-2,4.362256765E-2,4.629456847E-2
1.683029583E0,7.086606671E-3,-2.415548740E-2,4.601758718E-2,5.245308281E-2
1.693065583E0,5.248722296E-3,-3.428436326E-2,3.748649955E-2,5.107058153E-2
1.703102583E0,8.611612476E-3,-4.612426233E-2,2.117042899E-2,5.147615475E-2
1.713139583E0,1.768256600E-2,-1.829707067E-2,3.194684744E-2,4.084185349E-2
1.723176583E0,1.822843555E-2,4.684834862E-3,3.688599050E-2,4.141014170E-2
1.733213583E0,2.317018588E-2,-1.463174354E-3,4.182571828E-2,4.783711010E-2
1.743250583E0,2.390452822E-3,-1.702573068E-2,3.733505666E-2,4.110348192E-2
1.753287583E0,2.203047676E-2,-2.178246802E-2,3.793322682E-2,4.897701008E-2
1.763324583E0,2.380177197E-2,-1.406453622E-2,4.002945364E-2,4.864866582E-2
1.773360583E0,1.570049579E-2,-3.042881889E-3,3.119840384E-2,3.505859524E-2
1.783397583E0,1.200193089E-2,-1.993303025E-2,2.880338430E-2,3.702711152E-2
1.793434583E0,1.227378959E-3,-2.004671291E-2,3.329346120E-2,3.888228024E-2
1.803471583E0,1.291177935E-2,-1.880547694E-2,4.586731374E-2,5.122665789E-2
1.813508583E0,4.021878237E-3,-1.531340098E-2,4.377108693E-2,4.654657673E-2
1.823545583E0,8.303483055E-3,-2.271571104E-2,3.164396167E-2,3.982827726E-2
1.833582583E0,1.899056872E-2,-1.312258632E-2,1.772291064E-2,2.910232867E-2
1.843618583E0,-3.720524505E-3,-1.725033685E-2,3.344081104E-2,3.781143037E-2
1.853655583E0,1.497197726E-2,-9.871424781E-3,3.942952931E-2,4.331619688E-2
1.863692583E0,1.479723231E-2,-1.784790401E-2,2.954948902E-2,3.755899444E-2
1.873729583E0,5.840399992E-3,-3.843111724E-2,1.907010913E-2,4.329815361E-2
1.883766583E0,1.539772651E-2,-1.250872004E-2,4.197365284E-2,4.642569969E-2
1.893803583E0,1.323984241E-2,-3.267267876E-2,2.835197926E-2,4.523971808E-2
1.903840583E0,1.860602407E-2,-1.936296327E-2,2.895073414E-2,3.948738388E-2
1.913876583E0,1.083637982E-2,-1.780153742E-2,3.853022754E-2,4.380525421E-2
1.923913583E0,9.820761855E-3,-1.340926434E-2,1.398069263E-2,2.171901240E-2
1.933950583E0,7.408765984E-3,-2.271090536E-2,4.017504930E-2,4.674087743E-2
1.943987583E0,7.197495347E-3,-2.224162976E-2,5.244952440E-2,5.742339805E-2
1.954024583E0,2.127284434E-2,-4.457131494E-3,4.152224779E-2,4.686680050E-2
1.964061583E0,3.006566569E-2,-1.708769289E-2,4.676310718E-2,5.816116999E-2
1.974098583E0,2.133810247E-2,-1.714279376E-2,2.745384693E-2,3.876730202E-2
1.984134583E0,8.790930135E-3,-1.396092173E-2,4.197365284E-2,4.509961553E-2
1.994171583E0,7.026446017E-3,-2.638259134E-2,2.954831958E-2,4.023077503E-2
2.004208583E0,-1.894310863E-3,-1.396347988E-2,3.553411424E-2,3.822617505E-2
2.014245583E0,-1.021981605E-2,-1.013148883E-3,3.358757615E-2,3.512259077E-2
2.024282583E0,2.194142834E-3,-3.918716222E-2,3.194100022E-2,5.060311691E-2
2.034319583E0,1.972202114E-2,-2.056598221E-2,1.607341111E-2,3.271501623E-2
2.044356583E0,-8.175603192E-3,-1.233641904E-2,2.236092210E-2,2.681489436E-2
2.054393583E0,2.007744506E-2,-1.477234167E-2,3.313850999E-2,4.146669414E-2
2.064429583E0,1.771018952E-2,-3.370709689E-3,3.882668138E-2,4.280798621E-2
2.074466583E0,1.285666363E-2,-2.178054026E-2,4.421547532E-2,5.093813887E-2
2.084503583E0,1.943496625E-2,-1.859778201E-2,3.673045456E-2,4.552715345E-2
2.094540583E0,2.006867195E-2,-9.487746935E-3,3.628021896E-2,4.253261364E-2
2.104577583E0,1.455338514E-2,-1.164075569E-2,2.654986739E-2,3.243768905E-2
2.114614583E0,2.706311360E-2,-1.678322654E-2,2.759710371E-2,4.213892434E-2
2.124651583E0,1.912941954E-2,-9.121948779E-3,2.535118818E-2,3.304281138E-2
2.134687583E0,-1.232994485E-2,-1.796380679E-2,4.002243698E-2,4.556886389E-2
2.144724583E0,1.369018194E-2,-6.117503196E-3,3.448512375E-2,3.760410466E-2
2.154761583E0,1.786186424E-2,-2.173660392E-2,2.789648116E-2,3.961994201E-2
2.164798583E0,1.501939567E-2,-2.002385396E-2,3.942309737E-2,4.669815392E-2
2.174835583E0,8.963209436E-3,-8.356584795E-4,4.675784469E-2,4.761652537E-2
2.184872583E0,2.172591905E-2,-2.274456340E-2,4.121994674E-2,5.184992509E-2
2.194909583E0,1.221238041E-2,-6.467596097E-3,1.652130783E-2,2.153893328E-2
2.204945583E0,3.571869611E-3,-1.377622280E-3,4.092056930E-2,4.109925897E-2
2.214982583E0,8.716969709E-3,5.321761100E-3,3.104169846E-2,3.267864356E-2
2.225019583E0,-9.436985794E-3,-2.232558299E-3,2.430512130E-2,2.616830027E-2
2.235056583E0,2.318129102E-2,-1.344095808E-2,2.969333053E-2,3.999656842E-2
2.245093583E0,5.154226951E-3,-2.499416999E-2,3.208893478E-2,4.099968688E-2
2.255130583E0,2.673953988E-3,-2.695059353E-2,3.089142501E-2,4.108241303E-2
2.265167583E0,3.878888689E-3,-2.251019969E-2,1.727033615E-2,2.863598048E-2
2.275203583E0,3.981059361E-3,-3.371715593E-2,1.772057176E-2,3.829770360E-2
2.285240583E0,1.053513515E-2,-2.548411184E-2,3.089317918E-2,4.141035557E-2
2.295277583E0,1.436819514E-2,-6.771861445E-3,3.298882127E-2,3.661373332E-2
2.305314708E0,-1.939827783E-3,-1.458957050E-2,3.418750048E-2,3.722101138E-2
2.315351708E0,-5.895656180E-3,-3.024393724E-2,3.553586841E-2,4.703458775E-2
2.325388708E0,-4.606935560E-3,-1.361922506E-2,3.299232960E-2,3.598890049E-2
2.335425708E0,1.116627241E-2,-2.064216047E-2,2.116809011E-2,3.160494371E-2
2.345461708E0,1.879249544E-2,-1.654943842E-2,2.401159108E-2,3.469291430E-2
2.355498708E0,2.049280979E-2,-1.217132656E-2,2.850225270E-2,3.715474199E-2
2.365535708E0,-2.203320508E-3,-2.306164694E-2,4.197365284E-2,4.794248339E-2
2.375572708E0,1.391263880E-2,-1.118043364E-2,3.658427417E-2,4.070592993E-2
2.385609708E0,4.289987350E-3,-1.080273092E-2,3.478742480E-2,3.667789404E-2
2.395646708E0,1.234966664E-2,-1.646709317E-2,2.865018725E-2,3.527765090E-2
2.405683708E0,1.341944443E-2,-8.736736039E-3,3.583583057E-2,3.925071717E-2
2.415719708E0,2.506152489E-2,-1.241519200E-2,3.673337817E-2,4.616880000E-2
2.425756708E0,8.672995678E-3,-1.869406007E-2,3.254326344E-2,3.851951104E-2
2.435793708E0,1.507454108E-2,-3.038780616E-2,2.625633717E-2,4.289587152E-2
2.445830708E0,-3.966073301E-3,-2.069915255E-2,3.254092455E-2,3.876978752E-2
2.455867708E0,9.640836634E-3,-1.797693562E-2,2.490679979E-2,3.219417061E-2
2.465904708E0,-1.505641814E-2,-2.552007222E-2,2.445714891E-2,3.842033245E-2
2.475941708E0,1.629663256E-3,-2.408581417E-2,2.325963914E-2,3.352302283E-2
2.485978708E0,1.452480802E-2,-2.159991612E-2,4.077263474E-2,4.837286603E-2
2.496014708E0,5.530921257E-3,-2.848099259E-2,2.161130905E-2,3.617743368E-2
2.506051708E0,1.457049853E-2,-1.401026675E-2,2.729831100E-2,3.396740768E-2
2.516088708E0,2.819291843E-3,-1.281496796E-2,2.939453781E-2,3.219022620E-2
2.526125708E0,2.164514524E-2,1.551439902E-3,3.523064375E-2,4.137774205E-2
2.536162708E0,7.124691802E-3,-2.667071289E-2,3.897110760E-2,4.775809237E-2
2.546199708E0,1.317780596E-2,-7.484381218E-3,3.642639935E-2,3.945317607E-2
2.556236708E0,5.252810778E-3,-2.055668148E-2,3.403021038E-2,4.010267314E-2
2.566272708E0,-6.253152318E-3,-1.749027369E-2,3.866997600E-2,4.289963439E-2
2.576309708E0,1.397235806E-2,-3.742236290E-3,2.744215250E-2,3.102100669E-2
2.586346708E0,-2.507991563E-3,-1.603811768E-2,1.591670573E-2,2.273439600E-2
2.596383708E0,7.743380894E-4,-2.326885764E-2,3.298121989E-2,4.037078400E-2
2.606420708E0,1.884095309E-2,-3.236221902E-2,3.702164590E-2,5.265830418E-2
2.616457708E0,5.675531922E-3,-1.050766580E-2,2.414724648E-2,2.693904630E-2
2.626494708E0,1.688974408E-2,-2.998634912E-3,3.522245765E-2,3.917750361E-2
2.636530708E0,2.151068441E-2,-1.670037881E-2,4.584860265E-2,5.332641523E-2
2.646567708E0,1.085838225E-2,-2.419821776E-2,3.013128698E-2,4.014165745E-2
2.656604708E0,-6.928165971E-3,-1.592129214E-2,2.728544712E-2,3.234165505E-2
2.666641708E0,6.929895011E-3,-1.056843116E-2,2.743455112E-2,3.020545939E-2
2.676678708E0,1.638849837E-2,-1.099885932E-2,3.596914709E-2,4.102849409E-2
2.686715708E0,4.698341702E-3,-1.222020563E-2,3.686844885E-2,3.912403815E-2
2.696752708E0,1.414941449E-2,-1.208185502E-2,2.833502233E-2,3.389764950E-2
2.706788708E0,5.066466753E-4,-2.255965434E-3,4.120766759E-2,4.127248404E-2
2.716825708E0,1.650886765E-2,-1.253216372E-2,3.971136510E-2,4.479498138E-2
2.726862708E0,2.293919231E-3,-1.375922020E-2,3.686786413E-2,3.941849327E-2
2.736899708E0,5.837860107E-3,-1.072275197E-2,4.360327184E-2,4.528027535E-2
2.746936708E0,1.371997304E-2,-1.296716002E-2,5.797338903E-2,6.096965421E-2
2.756973708E0,1.698854604E-2,-1.705728737E-2,3.492191076E-2,4.241581781E-2
2.767010708E0,-6.503034564E-4,-1.554469490E-2,4.150821447E-2,4.432823370E-2
2.777046708E0,-2.255694201E-3,-9.582563192E-3,3.492074132E-2,3.628183909E-2
2.787083708E0,-4.237363836E-3,-2.969718603E-3,2.429284215E-2,2.483780708E-2
2.797120708E0,3.336286206E-3,-1.403362820E-2,4.120708287E-2,4.365887315E-2
2.807157708E0,1.562406857E-2,-2.625723252E-2,3.372264683E-2,4.550572148E-2
2.817194708E0,1.484419047E-2,-1.916942043E-2,3.312447667E-2,4.104933161E-2
2.827231708E0,1.061808567E-2,-1.441105683E-2,1.725922644E-2,2.486570328E-2
2.837268708E0,1.163003884E-2,-2.295123506E-3,3.132996619E-2,3.349764435E-2
2.847304708E0,-8.050511606E-3,-1.302600676E-2,3.656965613E-2,3.964627774E-2
2.857341708E0,5.777504736E-3,-3.012945972E-2,2.923432410E-2,4.237699387E-2
2.867378708E0,2.023211076E-2,-1.624457007E-2,4.016160071E-2,4.781399935E-2
2.877415708E0,1.128102288E-2,-3.273481457E-3,2.698957801E-2,2.943491938E-2
2.887452708E0,6.229974732E-3,-1.988991617E-2,3.656965613E-2,4.209229265E-2
2.897489708E0,-1.449291214E-3,-1.085687248E-2,4.091004431E-2,4.235096045E-2
2.907526708E0,8.840951808E-3,-1.194785329E-2,3.282626867E-2,3.603439388E-2
2.917562708E0,1.805997522E-2,-8.570556343E-3,3.851385534E-2,4.339278965E-2
2.927599708E0,2.148639105E-2,-4.738135887E-3,4.854183018E-2,5.329563031E-2
2.937636708E0,5.033432840E-3,-8.535198960E-3,4.120532870E-2,4.237999742E-2
2.947673708E0,-3.801865042E-3,-9.839575728E-3,4.330038607E-2,4.456674615E-2
2.957710708E0,1.689907793E-2,-1.469651973E-2,4.135501742E-2,4.702982025E-2
2.967747708E0,1.138586049E-2,-1.667914610E-2,3.851151645E-2,4.348526915E-2
2.977784708E0,2.671682824E-2,-8.982912954E-3,2.653700352E-2,3.871297188E-2
2.987820708E0,-4.987804572E-3,1.821133588E-4,1.830412388E-2,1.897240920E-2
2.997857708E0,9.468981599E-3,-1.421165764E-2,3.881030917E-2,4.240133162E-2
3.007894708E0,6.882429781E-3,-7.082759729E-3,2.968105137E-2,3.128095484E-2
3.017931708E0,-1.108139186E-2,-2.266425555E-2,4.285248935E-2,4.972727188E-2
3.027968708E0,-7.615199534E-3,-2.397422371E-2,3.222400546E-2,4.087959387E-2
3.038005708E0,9.435104293E-3,-1.971178623E-2,2.773275912E-2,3.530837914E-2
3.048042708E0,1.157739335E-2,-1.773435839E-2,3.835948884E-2,4.381773487E-2
3.058078708E0,6.704403763E-4,-1.725367159E-2,3.311979890E-2,3.735049869E-2
3.068115708E0,2.112911933E-2,-1.300023333E-2,2.758248568E-2,3.709769893E-2
3.078152708E0,-5.631853678E-3,-5.652750051E-3,4.419734895E-2,4.491188054E-2
3.088189708E0,-2.768657753E-3,-3.290474927E-3,4.015633821E-2,4.038594050E-2
3.098226708E0,-3.783145101E-3,-1.415551524E-2,3.641470492E-2,3.925202584E-2
3.108263708E0,9.847234210E-3,-4.241679870E-3,3.192404330E-2,3.367646671E-2
3.118300708E0,9.795680498E-3,-1.469062683E-2,2.518863559E-2,3.076096936E-2
3.128336708E0,4.476015602E-3,-1.699634842E-2,3.656439364E-2,4.056926740E-2
3.138373708E0,7.697910227E-3,-2.605235157E-2,3.042657137E-2,4.078920310E-2
3.148410708E0,8.652480174E-4,-1.847048630E-2,1.740306795E-2,2.539240619E-2
3.158447708E0,2.263345031E-2,-1.342153436E-2,3.551423371E-2,4.420035581E-2
3.168484708E0,4.634962224E-3,-1.873600471E-2,4.344832063E-2,4.754237386E-2
3.178521708E0,1.338523251E-2,-1.591426634E-2,4.704084992E-2,5.143218724E-2
3.188558708E0,1.336468389E-2,-1.480023472E-2,3.386765778E-2,3.930241680E-2
3.198594708E0,-5.702259522E-3,-1.292550774E-2,3.521602571E-2,3.794407702E-2
3.208631708E0,-4.487282913E-3,-1.753727982E-2,3.895882845E-2,4.295907594E-2
3.218668708E0,-4.793414916E-3,-1.540314660E-2,3.686201692E-2,4.023732152E-2
3.228705708E0,9.453564135E-3,-8.791654184E-3,4.404649079E-2,4.589941622E-2
3.238742708E0,7.066615361E-3,-2.675763541E-2,4.270046175E-2,5.088455108E-2
3.248779708E0,6.263389513E-3,-9.041997241E-3,4.240108430E-2,4.380456269E-2
3.258816708E0,1.055904364E-2,7.316419948E-4,2.892968416E-2,3.080511854E-2
3.268852708E0,3.005451715E-3,-1.811767079E-2,3.162408113E-2,3.657000468E-2
3.278889708E0,1.660366106E-2,-6.236420944E-5,1.875026643E-2,2.504511811E-2
3.288926708E0,1.459730207E-2,-2.181813603E-2,3.850800812E-2,4.660449525E-2
3.298963708E0,-6.504432985E-3,-7.206154251E-3,3.177143097E-2,3.322138067E-2
3.309000583E0,5.797094051E-3,-1.440538321E-2,2.279010773E-2,2.757735257E-2
3.319037583E0,1.414560238E-3,-2.261168542E-2,3.386707306E-2,4.074638556E-2
3.329074583E0,-8.606495020E-3,-1.478004355E-2,2.593298614E-2,3.106511249E-2
3.339110583E0,-6.748316695E-3,-1.763094490E-2,3.835598052E-2,4.275010220E-2
3.349147583E0,-5.252931263E-3,-1.429786753E-2,2.368590117E-2,2.816104076E-2
3.359184583E0,-1.540876084E-3,-2.216804621E-2,4.509138823E-2,5.026957195E-2
3.369221583E0,5.105327897E-3,-1.170697541E-2,2.682819486E-2,2.971312312E-2
3.379258583E0,2.471766978E-2,-1.423196758E-2,3.745433986E-2,4.707801690E-2
3.389295583E0,1.767967893E-2,1.093082149E-3,2.847301662E-2,3.353324546E-2
3.399332583E0,1.375790914E-2,2.207926903E-3,3.745492458E-2,3.996281247E-2
3.409368583E0,2.730826154E-3,-5.485766362E-3,4.104803860E-2,4.150292179E-2
3.419405583E0,-9.733484167E-3,-5.309902215E-3,3.955056667E-2,4.107533444E-2
3.429442583E0,1.278834714E-2,-1.328803511E-2,4.823309720E-2,5.163860344E-2
3.439479583E0,1.807575128E-2,-2.257162286E-3,4.419091702E-2,4.779816641E-2
3.449516583E0,2.107764213E-3,-1.050021973E-2,4.494053006E-2,4.619901002E-2
3.459553583E0,1.098058906E-2,-1.242235484E-2,4.943236113E-2,5.213872421E-2
3.469590583E0,1.371684273E-3,-1.507781301E-2,4.658769071E-2,4.898606831E-2
3.479626583E0,6.875555305E-3,-4.879346145E-3,3.745667875E-2,3.839380240E-2
3.489663583E0,5.621407490E-3,-5.996456696E-3,2.338535428E-2,2.478774919E-2
3.499700583E0,6.825953900E-3,-1.612508588E-2,4.224671781E-2,4.573179645E-2
3.509737583E0,1.551253750E-2,-4.647056367E-3,3.311629057E-2,3.686356811E-2
3.519774583E0,1.630942849E-2,-1.945378697E-2,3.087095976E-2,3.996828044E-2
3.529811583E0,1.372402955E-2,-1.130575592E-2,3.371446073E-2,3.811605917E-2
3.539848583E0,-6.378718419E-5,-7.882284243E-3,3.251578152E-2,3.345759289E-2
3.549884583E0,1.484497848E-3,-9.516105931E-3,1.829535306E-2,2.067558825E-2
3.559921583E0,1.768695940E-3,6.103031337E-6,3.715554714E-2,3.719762097E-2
3.569958583E0,1.468372438E-2,-2.752696454E-2,3.057041287E-2,4.367946521E-2
3.579995583E0,9.481992224E-3,-2.975800621E-2,3.476169705E-2,4.673138873E-2
3.590032583E0,-1.319212936E-3,-1.076564678E-2,3.251519680E-2,3.427648606E-2
3.600069583E0,1.296776758E-2,-1.376732407E-2,3.595686793E-2,4.062755912E-2
3.610106583E0,6.811819513E-3,-4.044802291E-3,3.131534815E-2,3.230189376E-2
3.620142583E0,3.637261068E-3,-1.129395185E-2,3.191351831E-2,3.404784380E-2
3.630179583E0,1.163410448E-2,-4.516471596E-3,2.966877222E-2,3.218675112E-2
3.640216583E0,1.839461297E-2,-1.088702219E-2,3.745317042E-2,4.312341606E-2
3.650253583E0,7.161867874E-3,-6.618691804E-3,3.894947290E-2,4.015172315E-2
3.660290583E0,1.404407553E-2,-1.188247411E-2,3.775079370E-2,4.199466243E-2
3.670327583E0,6.747060457E-3,-1.186083941E-2,2.323098779E-2,2.694218124E-2
3.680364583E0,2.308924991E-4,-1.575270960E-2,1.993783593E-2,2.541099118E-2
3.690400583E0,-4.422301161E-3,-9.648929089E-3,2.936764061E-2,3.122686176E-2
3.700437583E0,6.007140998E-3,-1.044790543E-2,3.280931175E-2,3.495275966E-2
3.710474583E0,9.696647851E-3,-1.238979315E-2,3.894654930E-2,4.200435282E-2
3.720511583E0,3.159804960E-2,3.455430362E-4,4.433417380E-2,5.444332012E-2
3.730548583E0,-2.449143963E-3,-1.564516651E-2,3.325720847E-2,3.683492170E-2
3.740585583E0,-2.143462492E-3,-2.194924157E-2,3.355775535E-2,4.015577893E-2
3.750622583E0,1.372991788E-2,-1.317971544E-2,3.295958519E-2,3.805981871E-2
3.760658583E0,-1.650020303E-3,-1.000266736E-3,2.382974267E-2,2.390773382E-2
3.770695583E0,1.067451587E-2,-1.049296553E-2,2.323157251E-2,2.763609191E-2
3.780732583E0,5.779468464E-3,-7.548590954E-3,3.026694238E-2,3.172493156E-2
3.790769583E0,8.152591201E-3,-1.902930653E-3,3.730289698E-2,3.823077309E-2
3.800806583E0,8.473443455E-3,-1.046548362E-2,3.266254663E-2,3.532941471E-2
3.810843583E0,1.137387484E-2,-7.649236154E-3,3.161414087E-2,3.445765148E-2
3.820880583E0,5.059043530E-3,-9.119582484E-3,3.266137719E-2,3.428594852E-2
3.830916583E0,1.262666934E-2,-9.869003668E-3,3.415826440E-2,3.773084996E-2
3.840953583E0,4.768931984E-3,-1.510195104E-2,2.966760278E-2,3.363002070E-2
3.850990583E0,6.065418437E-3,-2.417480148E-2,3.760227442E-2,4.511254115E-2
3.861027583E0,-1.858598708E-2,-2.615577419E-2,3.236316919E-2,4.557343700E-2
3.871064583E0,-1.663376965E-3,-1.979787734E-2,2.877180934E-2,3.496483638E-2
3.881101583E0,4.914628724E-3,-1.554262097E-2,2.487931788E-2,2.974402630E-2
3.891138583E0,4.969168286E-3,-3.260151632E-2,2.008752465E-2,3.861424797E-2
3.901174583E0,2.223793414E-2,-1.066847336E-2,3.715262353E-2,4.459438837E-2
3.911211583E0,2.802327666E-2,-8.753227014E-3,4.104511499E-2,5.046409102E-2
3.921248583E0,4.565911404E-3,-8.832493331E-3,3.805075586E-2,3.932836771E-2
3.931285583E0,1.854668283E-2,-7.573971525E-6,3.266079247E-2,3.755937787E-2
3.941322583E0,1.850564383E-2,-1.112638344E-2,3.191117942E-2,3.853023013E-2
3.951359583E0,5.716184346E-3,-1.944341730E-2,3.550312400E-2,4.088022815E-2
3.961396583E0,3.473578430E-3,-3.735384084E-3,3.819752097E-2,3.853659883E-2
3.971432583E0,3.783542529E-4,-6.580794537E-3,3.490436912E-2,3.552133151E-2
3.981469583E0,-8.431418877E-3,-2.531081499E-2,3.894479513E-2,4.720617806E-2
3.991506583E0,-1.149948605E-3,-2.132521575E-2,3.849631369E-2,4.402332764E-2
4.001543583E0,-2.583720144E-3,-2.093357108E-2,3.580133200E-2,4.155268199E-2
4.011580583E0,8.062206038E-3,-1.789744089E-2,2.786724508E-2,3.408666755E-2
4.021617583E0,6.458707073E-3,-8.241056604E-3,4.163919210E-2,4.293544259E-2
4.031654583E0,1.134204977E-2,-2.484134752E-3,3.714794576E-2,3.892021188E-2
4.041690583E0,2.189299181E-2,-8.946011541E-3,4.403421164E-2,4.998345734E-2
4.051727583E0,6.742130866E-3,-5.436622342E-3,3.400448263E-2,3.509014149E-2
4.061764583E0,1.194893251E-2,-2.117640411E-2,2.352627218E-2,3.383345330E-2
4.071801583E0,-8.103588793E-3,-1.502053770E-2,3.340572774E-2,3.751302907E-2
4.081838583E0,-7.812160481E-3,-1.073546967E-2,4.987031758E-2,5.160744845E-2
4.091875583E0,5.433680462E-3,-2.518784073E-2,2.487405539E-2,3.581439425E-2
4.101912583E0,7.261364187E-3,-4.196839035E-3,2.457350850E-2,2.596532665E-2
4.111948583E0,2.195325125E-3,-1.294701453E-3,3.639716327E-2,3.648628781E-2
4.121985583E0,4.987496794E-3,-4.999561245E-3,2.771521747E-2,2.860076951E-2
4.132022583E0,1.272307074E-2,-1.791602408E-2,3.370159686E-2,4.023254999E-2
4.142059583E0,4.569846283E-3,-8.664815286E-3,3.474883318E-2,3.610323983E-2
4.152096583E0,8.506060526E-3,-1.070643459E-3,2.486937761E-2,2.630561320E-2
4.162133583E0,8.696399958E-3,-1.299992270E-2,3.534758806E-2,3.865329668E-2
4.172170583E0,1.467227662E-2,-1.850082787E-2,3.130540788E-2,3.921205039E-2
4.182206583E0,-4.497137527E-3,-1.412022181E-2,4.343019426E-2,4.588885140E-2
4.192243583E0,1.140503410E-2,-7.092224909E-3,3.459739029E-2,3.711271847E-2
4.202280583E0,1.806646997E-2,-1.337369682E-2,1.917945206E-2,2.954834149E-2
4.212317583E0,-5.446042983E-3,-2.124181070E-2,3.220178604E-2,3.895932405E-2
4.222354583E0,2.007020228E-3,-9.279019609E-3,4.372723281E-2,4.474594087E-2
4.232391583E0,2.040289400E-3,-3.736498710E-3,4.896633804E-2,4.915105761E-2
4.242428583E0,2.161883963E-2,-6.670485344E-3,4.716948867E-2,5.231472319E-2
4.252464583E0,1.752826803E-2,-3.659991547E-5,4.372781754E-2,4.711012148E-2
4.262501583E0,2.448101057E-2,-4.285141127E-3,3.414715469E-2,4.223399681E-2
4.272538583E0,5.762011214E-2,-3.893697448E-3,2.112365127E-2,6.149346994E-2
4.282575583E0,1.218199773E-1,5.676461424E-2,5.031236708E-2,1.435049218E-1
4.292612583E0,9.890214443E-2,9.297410930E-3,-1.405319810E-2,1.003273064E-1
4.302648833E0,4.439202126E-3,-4.946890622E-2,5.764828384E-2,7.609338886E-2
4.312684833E0,-3.248147253E-2,-8.349175276E-3,-1.959051132E-2,3.883996549E-2
4.322721833E0,-7.774249624E-2,-2.232338115E-2,5.555205703E-2,9.812369799E-2
4.332758833E0,-1.117271440E-1,-6.771162520E-2,6.153609753E-3,1.307887067E-1
4.342795833E0,-1.269134686E-1,-1.014943248E-1,3.294906020E-2,1.658124453E-1
4.352832833E0,-8.527984958E-2,-4.467111960E-2,4.671983778E-2,1.070089011E-1
4.362869833E0,3.603130345E-2,1.765733046E-2,3.085224867E-2,5.061518937E-2
4.372906833E0,1.138348369E-1,7.420171481E-3,4.986330092E-2,1.244981036E-1
4.382943833E0,1.124515044E-1,7.622265872E-3,1.214466691E-3,1.127160801E-1
4.392979833E0,1.038046784E-1,3.448440199E-2,6.812590957E-2,1.288632019E-1
4.403016833E0,1.010864541E-1,4.457045613E-2,1.678209364E-2,1.117436147E-1
4.413053833E0,5.943052887E-2,6.980159367E-3,4.657014906E-2,7.582538606E-2
4.423090833E0,-4.167366784E-2,-3.615079449E-2,1.124244153E-2,5.630246021E-2
4.433127833E0,-1.185916473E-1,-5.041821082E-2,2.860574841E-2,1.320009986E-1
4.443164833E0,-1.316663230E-1,-4.903503369E-2,2.621014416E-2,1.429245493E-1
4.453200833E0,-6.567162759E-2,-4.855315916E-2,4.327465832E-2,9.242763650E-2
4.463237833E0,-4.342855887E-2,-5.369988752E-2,2.486236095E-2,7.340200703E-2
4.473274833E0,-5.942204356E-4,-1.426429172E-2,2.875368297E-2,3.210291888E-2
4.483311833E0,6.819872567E-2,2.586500312E-2,4.192629039E-2,8.413012776E-2
4.493348833E0,1.242660412E-1,6.014745690E-2,4.057909191E-2,1.438972837E-1
4.503385833E0,1.212718191E-1,3.882764068E-2,1.363453746E-2,1.280638138E-1
4.513422833E0,6.031233468E-2,9.787654281E-3,2.456064463E-2,6.585287507E-2
4.523458833E0,3.801915006E-3,-5.110429935E-3,2.979799569E-2,3.047116012E-2
4.533495833E0,-3.585674807E-2,-2.809080971E-2,4.237126350E-2,6.221032023E-2
4.543532833E0,-7.614021298E-2,-4.771508871E-2,1.258320808E-2,9.073256774E-2
4.553569833E0,-1.172610403E-1,-6.739836062E-2,3.877814949E-2,1.406998062E-1
4.563606833E0,-9.482060518E-2,-4.777419127E-2,4.940721810E-2,1.171084699E-1
4.573643833E0,-1.749995128E-2,-2.906930471E-2,-2.483955681E-2,4.205087816E-2
4.583680833E0,3.770595058E-2,-3.447856391E-3,1.095820838E-1,1.159390336E-1
4.593716833E0,7.423350904E-2,3.644921263E-2,-1.900111198E-2,8.485399945E-2
4.603753833E0,7.368760751E-2,2.619037326E-2,4.865877450E-2,9.210578422E-2
4.613790833E0,1.116349773E-1,1.825587521E-2,1.423036873E-2,1.140094230E-1
4.623827833E0,6.288951782E-2,2.209864707E-2,5.090469003E-2,8.387329205E-2
4.633864833E0,-4.108340512E-2,-9.003341664E-3,3.847994149E-2,5.700537022E-2
4.643901833E0,-7.480557230E-2,-5.129359382E-2,1.056007147E-3,9.070844263E-2
4.653938833E0,-7.377040956E-2,-7.834531677E-2,9.685737312E-2,1.447805675E-1
4.663974833E0,-7.256720333E-2,-3.880451677E-2,-4.684379876E-2,9.468965626E-2
4.674011833E0,-4.181724439E-2,-1.417923301E-2,1.118256605E-1,1.202277460E-1
4.684048833E0,1.786581568E-2,-1.698491894E-2,1.752118170E-2,3.024345631E-2
4.694085833E0,9.850269738E-2,2.166199710E-2,1.811993659E-2,1.024712428E-1
4.704122833E0,1.326916597E-1,2.334700934E-2,5.734072030E-2,1.464244433E-1
4.714159833E0,1.009093839E-1,3.660017129E-2,9.086573124E-4,1.073457124E-1
4.724196833E0,3.768314187E-2,2.434853688E-3,1.020970631E-1,1.088565936E-1
4.734232833E0,-4.707079863E-2,5.077269827E-3,4.495924115E-3,4.755683007E-2
4.744269833E0,-9.397205542E-2,-3.468563757E-3,-3.216763830E-1,3.351394837E-1
4.754306833E0,4.588364027E-2,-1.002029672E-1,3.894964832E-1,4.047881588E-1
4.764343833E0,-1.077983998E-1,-1.663791867E-2,1.631665528E-1,1.962667554E-1
4.774380833E0,-1.979262399E-1,-1.611056834E-2,-1.472890234E-1,2.472415888E-1
4.784417833E0,2.734824987E-2,-6.012496339E-2,2.290822148E-2,6.991226363E-2
4.794453833E0,6.222255151E-2,-3.252326870E-2,8.742522955E-2,1.121275153E-1
4.804490833E0,1.753543429E-2,4.318617350E-2,4.431604743E-2,6.431523224E-2
4.814527833E0,6.693898874E-2,5.462533273E-2,2.051729500E-2,8.880154607E-2
4.824564833E0,1.045988948E-1,8.409438143E-4,-8.969044089E-3,1.049860930E-1
4.834601833E0,6.814220868E-2,4.547018730E-3,-7.961510360E-2,1.048932825E-1
4.844638833E0,-6.006095922E-2,3.156058860E-2,4.929085851E-2,8.386285416E-2
4.854675833E0,-1.556004202E-1,7.469543908E-4,-5.419784188E-3,1.556965727E-1
4.864711833E0,-1.567245291E-1,-4.204060346E-2,-1.889703155E-2,1.633618320E-1
4.874748833E0,-7.564796878E-2,-4.743547303E-2,7.744871020E-2,1.181991624E-1
4.884785833E0,3.017256467E-2,-3.945663664E-2,1.331633198E-1,1.421255768E-1
4.894822833E0,-1.776018664E-2,1.371511940E-2,3.912488937E-2,4.510305642E-2
4.904859833E0,4.559832355E-3,4.960357034E-2,-2.907294095E-2,5.767618362E-2
4.914896833E0,7.375328818E-2,2.791451159E-2,5.612333000E-2,9.679150606E-2
4.924933833E0,-1.933895314E-2,7.975275071E-2,5.282666981E-2,9.759689236E-2
4.934969833E0,-1.014059770E-1,5.107938473E-2,5.821838737E-2,1.275995938E-1
4.945006833E0,8.601994263E-2,-8.252195550E-2,5.518760008E-1,5.646028904E-1
4.955043833E0,-1.373328779E-1,-8.008106274E-2,2.395744586E-1,2.875225507E-1
4.965080833E0,-5.448301790E-1,-3.987210872E-2,1.453110273E0,1.552404320E0
4.975117833E0,-6.801535334E-1,-8.654799188E-2,1.772286971E0,1.900289581E0
4.985154833E0,-5.318485563E-1,-1.030764808E-1,1.016162465E0,1.151552779E0
4.995191833E0,-3.942151131E-1,-3.146669053E-2,2.741595697E-1,4.812059619E-1
5.005227833E0,-7.361172344E-1,8.362130513E-2,1.310051125E0,1.505023274E0
5.015264833E0,-1.062239109E0,5.334624974E-2,3.138991769E0,3.314282286E0
5.025301833E0,-1.341981454E0,3.692442909E-2,2.980320556E0,3.268728843E0
5.035338833E0,-1.308290236E0,-1.562812919E-1,2.503424571E0,2.828989531E0
5.045375833E0,-9.973598662E-1,-8.761126602E-1,1.738438609E0,2.187342884E0
5.055412833E0,-9.930922759E-1,-1.948856804E0,2.315347710E0,3.185138950E0
5.065449833E0,-1.226784728E0,-6.599264064E-1,2.149807772E0,2.561674665E0
5.075485833E0,-2.142546115E0,3.081991722E-1,3.142176747E-1,2.187286751E0
5.085522833E0,-2.591599998E0,1.436559437E0,-2.861422103E0,4.119202595E0
5.095559833E0,-1.727000286E0,2.251226558E0,-4.272675667E0,5.128967573E0
5.105596833E0,-1.318075844E0,1.846479075E0,-4.673128663E0,5.194703111E0
5.115633833E0,-5.957657862E-1,7.753570215E-1,-6.674276825E0,6.745523443E0
5.125670833E0,2.326977237E0,-9.416758814E-1,-6.144819633E0,6.637799700E0
5.135706833E0,-1.160320889E0,-5.236548895E-1,8.555119693E-1,1.533773040E0
5.145743833E0,5.372018284E-1,-6.231833804E-1,2.294235753E0,2.437306099E0
5.155780833E0,-5.583096921E-2,-1.101789018E0,2.163882605E0,2.428877120E0
5.165817833E0,3.620771348E-2,-1.322375009E0,8.429147279E-1,1.568595519E0
5.175854833E0,1.525497633E-1,-6.761113532E-1,-2.725393063E-1,7.447655105E-1
5.185891833E0,4.106692511E-1,-1.022732324E0,-2.518389934E-1,1.130510291E0
5.195928833E0,2.014552903E-1,-1.318807915E0,-3.893269140E-1,1.389753215E0
5.205964833E0,-1.685138315E-1,-1.105061814E-1,-2.484189570E-1,3.198757661E-1
5.216001833E0,-3.078132194E-1,1.291283902E0,3.482858920E-1,1.372394315E0
5.226038833E0,-1.763403296E-1,1.297023383E0,7.094116849E-1,1.488835285E0
5.236075833E0,-3.241696358E-2,1.178373729E0,4.980096960E-1,1.279698856E0
5.246112833E0,6.243422985E-2,7.722243027E-1,5.621747017E-2,7.767810571E-1
5.256149833E0,4.308286965E-1,4.065652001E-1,-1.009250472E0,1.170254307E0
5.266186833E0,9.147577125E-1,2.230283147E0,-2.128598167E0,3.215878534E0
5.276222833E0,1.124365776E0,2.454289540E0,-2.042774490E0,3.385360123E0
5.286259833E0,6.027520394E-1,-1.369708074E-1,-2.559004694E-1,6.689963179E-1
5.296296833E0,1.135389239E0,-1.973452240E0,6.489361553E0,6.877167719E0
5.306333708E0,2.950438652E0,-5.988239530E-1,1.064635064E1,1.106383570E1
5.316370708E0,4.074061539E0,8.489168948E-1,9.070940593E0,9.980010048E0
5.326407708E0,5.638911518E0,4.374506682E-1,4.100863422E0,6.986112438E0
5.336444708E0,7.968025328E0,-2.651211777E0,3.501483471E0,9.098282146E0
5.346480708E0,8.856760592E0,-2.813262388E0,6.700325001E0,1.145648325E1
5.356517708E0,6.472971808E0,4.580946285E-1,6.908118088E0,9.477938079E0
5.366554708E0,2.753713467E0,-4.317911482E-1,6.739680271E0,7.293330625E0
5.376591708E0,1.433737132E0,-1.181094146E0,4.933911558E0,5.272008043E0
5.386628708E0,2.836108337E0,-1.371121638E0,2.541531460E0,4.047575473E0
5.396665708E0,4.342054051E0,-2.254079122E0,8.688944918E-1,4.968831221E0
5.406701708E0,5.807828223E0,-1.743648332E0,1.401788092E-1,6.065544351E0
5.416738708E0,4.610747935E0,-2.099283151E0,-5.358306563E-1,5.094418589E0
5.426775708E0,3.144113053E0,-2.594507234E0,-9.732953578E-1,4.190968686E0
5.436812708E0,5.103332877E-1,-2.725386923E0,-1.514991941E0,3.159647849E0
5.446849708E0,-1.604292080E0,-2.031025094E0,-2.665325786E0,3.715208952E0
5.456886708E0,-2.805252872E0,-6.236610979E-2,-2.715151080E0,3.904533083E0
5.466923708E0,-2.991089957E0,8.210981816E-1,-1.456490548E0,3.426687332E0
5.476959708E0,-1.860978123E0,-4.064089698E-1,-2.153032511E-1,1.916967218E0
5.486996708E0,-3.423328418E-1,-1.171543743E0,1.541326046E-2,1.220632657E0
5.497033708E0,2.260001475E-1,-1.216856156E0,-8.661077088E-1,1.510614952E0
5.507070708E0,-4.354532593E-1,-1.666248885E0,-2.303511776E0,2.876138277E0
5.517107708E0,-8.248579413E-1,-1.457352720E0,-3.457557433E0,3.841740618E0
5.527144708E0,-8.369201624E-1,-6.311619061E-1,-4.602925238E0,4.720775514E0
5.537181708E0,-4.563693345E-1,-8.816639337E-1,-5.681157067E0,5.767248033E0
5.547217708E0,-3.425538665E-1,-1.498808310E0,-6.552262391E0,6.730223766E0
5.557254708E0,-4.520482421E-1,-1.162570898E0,-6.739940472E0,6.854393939E0
5.567291708E0,-5.799943838E-1,-8.295038465E-1,-6.280461588E0,6.361498870E0
5.577328708E0,-7.388942233E-1,-2.735897586E-1,-5.363082569E0,5.420652236E0
5.587365708E0,2.429064944E-1,-7.413029838E-1,-6.298668648E0,6.346791348E0
5.597402708E0,6.705499202E-2,-2.008829648E0,-4.741398414E0,5.149830274E0
5.607438708E0,-7.208982477E-1,-1.397630137E0,-2.991980488E0,3.380090461E0
5.617475708E0,-1.126007089E-1,-2.278632165E-1,-1.546319568E0,1.567068847E0
5.627512708E0,1.299993914E-1,2.163770923E-1,-2.589205563E-1,3.616057830E-1
5.637549708E0,1.525234509E-1,8.970413800E-1,1.012714362E0,1.361446664E0
5.647586708E0,-3.734818366E-1,1.199046560E0,2.546622046E0,2.839451563E0
5.657623708E0,-1.206452205E0,1.517104832E0,3.524909756E0,4.022700931E0
5.667660708E0,-1.639359002E0,1.590872135E0,3.554409544E0,4.225186303E0
5.677696708E0,-1.254929570E0,1.239152174E0,2.391159784E0,2.971193607E0
5.687733708E0,-4.033837666E-1,1.196950553E0,7.339495254E-1,1.460852831E0
5.697770708E0,5.638991918E-1,1.306067710E0,-5.584389156E-1,1.528283083E0
5.707807708E0,9.267028432E-1,1.074320626E0,-8.911367154E-1,1.675430575E0
5.717844708E0,7.665593009E-1,7.918378374E-1,-6.801674205E-1,1.295086114E0
5.727881708E0,5.905969937E-1,2.262869534E-1,-6.714521456E-1,9.224199575E-1
5.737918708E0,3.899078348E-1,-5.796625543E-1,-5.490324998E-1,8.885232030E-1
5.747954708E0,9.231569454E-2,-2.447089279E0,-1.639278018E0,2.946862831E0
5.757991708E0,7.459949358E-1,-3.514464583E0,-4.353561371E0,5.644596208E0
5.768028708E0,-1.017121482E0,-3.041826832E-1,-2.663006780E0,2.866821990E0
5.778065708E0,-3.670011629E0,1.046458059E0,-5.331508774E-1,3.853350449E0
5.788102708E0,-3.754915539E0,-6.659279886E-1,-6.108878553E-2,3.813998247E0
5.798139708E0,-3.322746660E0,-2.721394444E0,2.362706063E0,4.901939722E0
5.808175708E0,-3.374843598E0,-4.139375815E0,1.514194381E0,5.551286884E0
5.818212708E0,-3.189772498E0,-5.105009274E0,1.831278945E0,6.292006902E0
5.828249708E0,-3.175177555E0,-5.070193782E0,3.151030017E0,6.761479695E0
5.838286708E0,-3.831164985E0,-3.889702923E0,5.333909056E0,7.632705928E0
5.848323708E0,-4.310572934E0,-1.544609842E0,6.761285732E0,8.165895134E0
5.858360708E0,-4.382650684E0,-2.253194731E0,5.865490540E0,7.660841520E0
5.868397708E0,-4.837129614E0,-5.105794555E0,5.054607444E0,8.661178751E0
5.878433708E0,-4.839565856E0,-6.460636522E0,4.810481513E0,9.396911957E0
5.888470708E0,-5.555323817E0,-6.756943005E0,3.417877058E0,9.391474063E0
5.898507708E0,-4.915493413E0,-7.088048608E0,1.783766810E0,8.808196898E0
5.908544708E0,-2.740059634E0,-6.990436944E0,1.055121878E0,7.582045743E0
5.918581708E0,-1.016229854E0,-5.830113716E0,1.242798790E0,6.047106572E0
5.928618708E0,-9.287022986E-1,-5.172501930E0,1.924510460E0,5.596517192E0
5.938655708E0,-2.037625285E0,-5.293345166E0,1.565981416E0,5.884192183E0
5.948691708E0,-3.259660758E0,-5.869920391E0,7.411088562E-1,6.755042264E0
5.958728708E0,-4.581022445E0,-7.116052094E0,4.304000956E-1,8.474031407E0
5.968765708E0,-5.682618871E0,-7.679446524E0,4.755476171E-1,9.565155602E0
5.978802708E0,-5.827339797E0,-8.392384665E0,2.772568399E-1,1.022090411E1
5.988839708E0,-4.885275880E0,-8.791439007E0,-3.830855960E-1,1.006489318E1
5.998876708E0,-2.787690468E0,-8.097018414E0,-1.022824198E0,8.624331549E0
6.008913708E0,-9.259697485E-1,-7.194266789E0,-1.801624206E0,7.474004575E0
6.018949708E0,-7.733018714E-1,-6.407918025E0,-2.855081967E0,7.057683915E0
6.028986708E0,-3.850783271E-1,-5.448677035E0,-4.130907000E0,6.848412911E0
6.039023708E0,1.779855607E0,-3.765267157E0,-5.702742648E0,7.061614295E0
6.049060708E0,4.307585884E0,-1.938153183E0,-7.178724305E0,8.593358863E0
6.059097708E0,5.790479534E0,-9.705445352E-1,-8.412344720E0,1.025861363E1
6.069134708E0,5.650117123E0,-2.284770280E-2,-9.297717835E0,1.087988522E1
6.079170708E0,4.739713247E0,-1.985334367E-1,-9.560044979E0,1.067233607E1
6.089207708E0,4.085621485E0,-7.916828862E-1,-9.312072750E0,1.019969429E1
6.099244708E0,4.262664649E0,-9.950402758E-1,-9.043885526E0,1.004750121E1
6.109281708E0,5.013112094E0,-1.057609284E0,-8.997044066E0,1.035358065E1
6.119318708E0,6.262262714E0,-2.453251952E-1,-9.568964907E0,1.143858418E1
6.129355708E0,8.189189828E0,1.475368869E0,-1.115971981E1,1.392044861E1
6.139392708E0,9.603298003E0,2.278174329E0,-1.369287513E1,1.687922510E1
6.149428708E0,9.683549868E0,1.820574740E0,-1.603717240E1,1.882223497E1
6.159465708E0,1.074149654E1,8.718794954E-1,-1.643588117E1,1.965395919E1
6.169502708E0,1.147902924E1,2.306882988E-1,-1.477232026E1,1.870943011E1
6.179539708E0,1.077981217E1,-6.848574722E-1,-1.361081180E1,1.737606336E1
6.189576708E0,1.076185888E1,-1.539046801E0,-1.355952938E1,1.737950254E1
6.199613708E0,1.180967291E1,-2.095737692E0,-1.443491369E1,1.876771760E1
6.209649708E0,1.447765684E1,-3.181375896E0,-1.537042727E1,2.135354150E1
6.219686708E0,1.779556814E1,-5.543104305E0,-1.518421099E1,2.404097574E1
6.229723708E0,2.229926204E1,-8.600625064E0,-1.375246527E1,2.757459229E1
6.239760708E0,2.787961779E1,-1.321602768E1,-1.036575095E1,3.254819915E1
6.249797708E0,3.311515153E1,-1.772290596E1,-4.496254775E0,3.782764814E1
6.259834708E0,3.866393933E1,-2.112267595E1,2.085060384E0,4.410686025E1
6.269871708E0,4.099408517E1,-2.741982549E1,7.855142491E0,4.994061586E1
6.279907708E0,3.365633941E1,-3.010825363E1,1.212789710E1,4.675833623E1
6.289944708E0,1.853655421E1,-2.977205510E1,1.178354170E1,3.699771563E1
6.299981708E0,-7.051420480E-1,-2.841396442E1,7.122427897E0,2.930152860E1
6.310019000E0,-1.501466629E1,-2.136719014E1,5.586605251E0,2.670593897E1
6.320056000E0,-1.906182479E1,-1.462137204E1,8.032940531E0,2.533112351E1
6.330093000E0,-1.905159684E1,-9.384989868E0,8.628147324E0,2.292348803E1
6.340129000E0,-1.603266069E1,-6.021049865E0,7.442729015E0,1.867333568E1
6.350166000E0,-1.225238666E1,-5.010972598E0,7.076988015E0,1.501048249E1
6.360203000E0,-9.647141011E0,-4.318036028E0,7.263346964E0,1.282454576E1
6.370240000E0,-6.752519002E0,-4.278625209E0,6.310985808E0,1.018487547E1
6.380277000E0,-3.443170944E0,-4.234433123E0,4.606885557E0,7.142075648E0
6.390314000E0,-1.654737325E0,-4.370332940E0,4.293571862E0,6.346079495E0
6.400351000E0,-2.052746623E0,-4.594934433E0,6.239000736E0,8.015754570E0
6.410387000E0,-2.778650380E0,-4.401216179E0,8.641837410E0,1.008825830E1
6.420424000E0,-2.460960336E0,-4.078168039E0,8.823190557E0,1.002678772E1
6.430461000E0,-2.146768097E0,-3.806297069E0,7.210395749E0,8.431270218E0
6.440498000E0,-2.140057101E0,-3.683645874E0,5.362849265E0,6.849032308E0
6.450535000E0,-1.757277169E0,-3.248803648E0,3.031988892E0,4.778671869E0
6.460572000E0,-1.011857307E0,-2.934606439E0,4.510646673E-1,3.136754612E0
6.470608000E0,-9.656116779E-1,-2.652781169E0,-1.254530643E0,3.089255732E0
6.480645000E0,-1.520545626E0,-2.526474879E0,-1.255486663E0,3.204899543E0
6.490682000E0,-2.572062989E0,-2.484250966E0,2.017488936E-1,3.581579748E0
6.500719000E0,-3.986269104E0,-2.726250849E0,1.810400877E0,5.157551396E0
6.510756000E0,-4.530194646E0,-2.655948606E0,2.431567553E0,5.786989484E0
6.520793000E0,-3.879354520E0,-2.239445003E0,2.163017802E0,4.974248831E0
6.530830000E0,-3.483639816E0,-2.514965220E0,2.110059569E0,4.786767992E0
6.540866000E0,-2.635154153E0,-2.969582729E0,2.232549382E0,4.554858476E0
6.550903000E0,-1.298516323E0,-3.324626248E0,2.437028267E0,4.321850426E0
6.560940000E0,6.745435685E-2,-3.146903052E0,2.239795105E0,3.863189229E0
6.570977000E0,1.728233756E0,-2.069871656E0,2.076880714E0,3.403614856E0
6.581014000E0,1.483807278E0,-1.129452853E0,3.364501335E0,3.846715095E0
6.591051000E0,-1.094978839E0,-1.445801838E0,4.238231474E0,4.609981306E0
6.601087000E0,-3.788003470E0,-2.644308554E0,4.094155496E0,6.172798980E0
6.611124000E0,-5.175078798E0,-3.298802605E0,4.238575290E0,7.458489102E0
6.621161000E0,-3.927079495E0,-4.916935921E0,3.972174976E0,7.441531176E0
6.631198000E0,-2.314437883E0,-6.015767491E0,4.108036786E0,7.643431654E0
6.641235000E0,-7.480296206E-1,-5.651344453E0,4.927171472E0,7.534869684E0
6.651272000E0,1.299754179E0,-4.887571789E0,5.553307697E0,7.511121440E0
6.661309000E0,2.555311593E0,-4.814499135E0,5.908866355E0,8.038888037E0
6.671345000E0,2.120750619E0,-4.784100630E0,6.107595674E0,8.042880513E0
6.681382000E0,1.380336412E0,-4.858822784E0,6.278853604E0,8.058380112E0
6.691419000E0,4.439685595E-1,-5.638579981E0,6.338840774E0,8.495386668E0
6.701456000E0,-3.027489460E-1,-6.593917370E0,6.153885741E0,9.024506243E0
6.711493000E0,2.779339474E-1,-6.775628952E0,5.796049007E0,8.920794756E0
6.721530000E0,1.741619495E0,-5.798117752E0,5.244658910E0,8.009859862E0
6.731567000E0,2.439744884E0,-5.034192476E0,4.412984577E0,7.125298721E0
6.741603000E0,2.104578390E0,-4.636072519E0,3.632364038E0,6.254317477E0
6.751640000E0,2.165551400E0,-4.035421092E0,3.135513553E0,5.550286614E0
6.761677000E0,2.762200701E0,-3.585525210E0,2.303615271E0,5.078620586E0
6.771714000E0,4.156774498E0,-2.312899480E0,1.148518285E0,4.893605264E0
6.781751000E0,5.188842559E0,-1.184002990E0,3.543512088E-1,5.333996153E0
6.791788000E0,5.230309258E0,-4.751795349E-1,9.479418308E-2,5.252705633E0
6.801824000E0,4.512219136E0,-3.833112985E-1,-4.026196817E-1,4.546333873E0
6.811861000E0,3.793931962E0,-7.965685272E-1,-1.529577820E0,4.167499185E0
6.821898000E0,3.410800173E0,-9.169048101E-1,-2.815771136E0,4.516950226E0
6.831935000E0,3.305636830E0,-8.633317432E-1,-4.008785563E0,5.267156561E0
6.841972000E0,3.814611810E0,-6.044170341E-1,-4.964482555E0,6.289886347E0
6.852009000E0,4.246283090E0,-2.571286771E-1,-5.663052918E0,7.082881023E0
6.862046000E0,4.251001793E0,-1.083582616E-1,-6.317892539E0,7.615676194E0
6.872082000E0,3.921386061E0,-9.650741726E-2,-6.624600050E0,7.698825114E0
6.882119000E0,3.365684227E0,-7.838673516E-1,-6.567843466E0,7.421512389E0
6.892156000E0,2.450902541E0,-1.095616332E0,-6.019517310E0,6.591045976E0
6.902193000E0,1.878191156E0,-1.424119778E0,-5.170872896E0,5.682749833E0
6.912230000E0,1.618733826E0,-1.627610191E0,-4.420524854E0,4.981009347E0
6.922267000E0,1.745194482E0,-1.694079877E0,-4.172400012E0,4.829547833E0
6.932303000E0,2.178055671E0,-1.928365091E0,-4.724012888E0,5.547865914E0
6.942340000E0,2.285395932E0,-2.163992240E0,-5.639868123E0,6.458638357E0
6.952377000E0,2.309758356E0,-2.339724752E0,-6.681943109E0,7.446989948E0
6.962414000E0,2.786239774E0,-2.301618740E0,-8.178773598E0,8.941639585E0
6.972451000E0,3.651613072E0,-1.788194468E0,-9.869367950E0,1.067409674E1
6.982488000E0,5.121185596E0,-1.360528238E0,-1.218916422E1,1.329109865E1
6.992524000E0,6.458396453E0,-1.290513824E0,-1.435175576E1,1.579079492E1
7.002561000E0,7.435080273E0,-1.799574319E0,-1.494408572E1,1.678822756E1
7.012598000E0,7.770305239E0,-3.621683514E0,-1.503541572E1,1.730774280E1
7.022635000E0,7.917815872E0,-4.447187573E0,-1.266579767E1,1.558498367E1
7.032672000E0,8.669395922E0,-4.771034150E0,-9.396158634E0,1.364584148E1
7.042709000E0,8.774151714E0,-4.928442072E0,-8.854080813E0,1.340410484E1
7.052746000E0,8.594992442E0,-4.664870641E0,-1.046508696E1,1.432316160E1
7.062782000E0,8.154260901E0,-4.744369385E0,-1.382109872E1,1.673391113E1
7.072819000E0,7.097022915E0,-6.930407090E0,-1.723533238E1,1.988604935E1
7.082856000E0,6.457361496E0,-1.040585934E1,-1.841213832E1,2.211303380E1
7.092893000E0,8.066524599E0,-1.425598305E1,-1.729782508E1,2.382260742E1
7.102930000E0,1.076789087E1,-1.868550267E1,-1.425596550E1,2.585204124E1
7.112967000E0,1.506428927E1,-2.335357349E1,-9.504362530E0,2.937099102E1
7.123004000E0,2.311571344E1,-2.665828413E1,-2.959937162E0,3.540849543E1
7.133040000E0,3.265631818E1,-2.492489342E1,4.731374533E0,4.135300877E1
7.143077000E0,3.974876857E1,-2.280096484E1,1.187899516E1,4.733876980E1
7.153114000E0,4.143970382E1,-1.767764852E1,1.579844111E1,4.774242402E1
7.163151000E0,3.441613596E1,-1.416755093E1,1.378866305E1,3.969026509E1
7.173188000E0,1.973476915E1,-1.418001017E1,1.114281083E1,2.673379949E1
7.183225000E0,1.151347460E0,-1.381080762E1,1.085947698E1,1.760659673E1
7.193261000E0,-1.400181043E1,-1.372070203E1,1.026701136E1,2.212961549E1
7.203298000E0,-2.017902422E1,-1.213413257E1,1.013089520E1,2.563328362E1
7.213335000E0,-1.919510623E1,-7.647243569E0,9.381706071E0,2.269248435E1
7.223372000E0,-1.494875882E1,-4.505373216E0,6.219249426E0,1.680603586E1
7.233409000E0,-9.797288153E0,-3.653811625E0,3.723406355E0,1.109959231E1
7.243446000E0,-4.729138557E0,-2.654261100E0,4.653892493E0,7.146227594E0
7.253483000E0,-4.950749785E-1,-2.357626002E0,6.012997080E0,6.477625606E0
7.263519000E0,1.996210480E0,-2.343255301E0,4.916328396E0,5.800516061E0
7.273556000E0,2.892873984E0,-2.668456970E0,3.068458561E0,4.990472966E0
7.283593000E0,2.367357231E0,-2.774223745E0,2.586883049E0,4.471315417E0
7.293630000E0,9.648262507E-1,-2.579540700E0,3.822652316E0,4.711431911E0
7.303667208E0,-4.554326105E-1,-2.280428723E0,4.877250284E0,5.403271634E0
7.313704208E0,-1.102653310E0,-2.060812565E0,4.688990990E0,5.239220291E0
7.323740208E0,-6.972635096E-1,-1.847828904E0,3.027074307E0,3.614391639E0
7.333777208E0,2.165922698E-1,-1.658049919E0,6.715831232E-1,1.801961608E0
7.343814208E0,4.090779313E-1,-1.811874960E0,-1.067107501E0,2.142184409E0
7.353851208E0,7.043000489E-2,-1.634112003E0,-1.446412872E0,2.183435967E0
7.363888208E0,-3.160925844E-1,-1.414532683E0,-3.958360344E-1,1.502499051E0
7.373925208E0,-7.174475133E-1,-1.298552576E0,1.189078665E0,1.901283198E0
7.383962208E0,-1.230545072E0,-1.139443406E0,1.831740291E0,2.483514635E0
7.393998208E0,-1.682386615E0,-1.063373469E0,1.640764380E0,2.579398304E0
7.404035208E0,-1.826012066E0,-1.289926178E0,9.624101812E-1,2.434021973E0
7.414072208E0,-1.841908014E0,-1.387994510E0,2.998113048E-1,2.325734445E0
7.424109208E0,-1.685095338E0,-1.349378913E0,8.809765935E-2,2.160585788E0
7.434146208E0,-1.444991999E0,-1.369198635E0,5.864400619E-1,2.075239438E0
7.444183208E0,-1.549344918E0,-1.271453655E0,1.663125887E0,2.604429263E0
7.454219208E0,-1.167006888E0,-8.986287528E-1,2.138605092E0,2.596742276E0
7.464256208E0,-3.011804304E-1,-8.745446563E-1,1.508474927E0,1.769472976E0
7.474293208E0,-3.574227512E-2,-1.193832452E0,9.302513722E-1,1.513895983E0
7.484330208E0,-3.002811286E-1,-1.009855658E0,1.545053354E0,1.870071408E0
7.494367208E0,-9.092657152E-1,-1.365699077E0,2.982299838E0,3.403822914E0
7.504404208E0,-1.768783612E0,-1.689984487E0,4.712384530E0,5.309539622E0
7.514440208E0,-2.809534496E0,-2.106893302E0,6.137142239E0,7.070855559E0
7.524477208E0,-3.812852090E0,-2.775877923E0,6.900874557E0,8.358553042E0
7.534514208E0,-3.574827436E0,-3.016025993E0,6.678602010E0,8.153497949E0
7.544551208E0,-2.027822574E0,-2.993349321E0,5.137239711E0,6.281993028E0
7.554588208E0,-3.903457913E-1,-2.552145326E0,3.317066383E0,4.203420629E0
7.564625208E0,7.121563679E-1,-1.982520102E0,2.009953776E0,2.911608976E0
7.574662208E0,4.533366761E-1,-1.951893556E0,1.606028411E0,2.568020609E0
7.584698208E0,-9.126106149E-1,-1.977742342E0,1.754804381E0,2.797080857E0
7.594735208E0,-2.651228149E0,-2.384723754E0,2.519392439E0,4.366148915E0
7.604772208E0,-4.675337741E0,-3.501774078E0,3.371159559E0,6.744325130E0
7.614809208E0,-6.243468009E0,-4.898944039E0,4.417040498E0,9.082444177E0
7.624846208E0,-6.051884573E0,-5.839501421E0,5.328331397E0,9.955711888E0
7.634883208E0,-4.376968945E0,-6.556589330E0,5.640204923E0,9.693226107E0
7.644919208E0,-2.166108640E0,-6.914151830E0,5.755711405E0,9.253417528E0
7.654956208E0,-9.266141117E-2,-6.706917152E0,5.651273702E0,8.770873290E0
7.664993208E0,1.327663524E0,-5.893777615E0,5.091432624E0,7.900758899E0
7.675030208E0,1.872733950E0,-5.264123706E0,4.438711157E0,7.135845260E0
7.685067208E0,1.643717224E0,-4.735633060E0,3.779364794E0,6.277867873E0
7.695104208E0,1.055587317E0,-4.196556614E0,2.529431232E0,5.012322252E0
7.705140208E0,2.768802792E-1,-4.134574374E0,1.128659678E0,4.294792267E0
7.715177208E0,-4.985090482E-1,-4.319265112E0,4.342490253E-1,4.369569155E0
7.725214208E0,-8.277628380E-1,-4.219576225E0,1.055799571E-1,4.301297707E0
7.735251208E0,-3.538004011E-1,-4.012814294E0,-4.100517851E-1,4.049196926E0
7.745288208E0,1.158341022E0,-3.509396216E0,-1.057148523E0,3.843849467E0
7.755325208E0,3.066258253E0,-2.689808370E0,-1.706309913E0,4.421368823E0
7.765362208E0,4.508464054E0,-1.856145107E0,-2.507464412E0,5.482599799E0
7.775398208E0,5.568527414E0,-1.329239056E0,-3.498651665E0,6.709391739E0
7.785435208E0,6.130915539E0,-1.093800040E0,-4.287540459E0,7.560921046E0
7.795472208E0,6.016291986E0,-1.026006253E0,-4.711013358E0,7.709870619E0
7.805509208E0,5.784179744E0,-1.045449560E0,-5.150343906E0,7.815097085E0
7.815546208E0,5.218489696E0,-1.337270791E0,-5.508180640E0,7.704607832E0
7.825583208E0,4.588390229E0,-1.528555873E0,-5.635717185E0,7.426379746E0
7.835619208E0,4.231299600E0,-1.611734416E0,-5.642556088E0,7.234640512E0
7.845656208E0,3.818090318E0,-1.706585025E0,-5.686454644E0,7.058754320E0
7.855693208E0,3.611019947E0,-1.856708340E0,-5.931759959E0,7.188366096E0
7.865730208E0,3.538356598E0,-2.035870243E0,-6.453654361E0,7.636385904E0
7.875767208E0,3.433727691E0,-2.355026769E0,-7.090670500E0,8.222788157E0
7.885804208E0,3.659270001E0,-2.371923029E0,-7.465085844E0,8.645448656E0
7.895841208E0,4.065287207E0,-2.193153182E0,-7.775598139E0,9.044136629E0
7.905877208E0,4.427618111E0,-1.921313495E0,-8.400628070E0,9.688436388E0
7.915914208E0,5.396455552E0,-1.003222796E0,-9.796102923E0,1.122906145E1
7.925951208E0,6.953964937E0,-5.257355846E-2,-1.229086601E1,1.412181928E1
7.935988208E0,8.637934393E0,5.828161038E-1,-1.522300727E1,1.751266785E1
7.946025208E0,9.538679253E0,1.982503583E-1,-1.749356179E1,1.992612379E1
7.956062208E0,8.629032592E0,-1.717179010E0,-1.769457153E1,1.976124411E1
7.966098208E0,6.374982998E0,-3.808808156E0,-1.592798384E1,1.757407457E1
7.976135208E0,4.373852379E0,-6.090582615E0,-1.392240056E1,1.581325452E1
7.986172208E0,3.144356005E0,-7.633598506E0,-1.271146676E1,1.515718272E1
7.996209208E0,3.620626922E0,-8.772257216E0,-1.233717362E1,1.556493781E1
8.006246208E0,5.713378149E0,-1.014299425E1,-1.217388077E1,1.684417986E1
8.016283208E0,8.676005030E0,-1.126074800E1,-1.135238088E1,1.819214282E1
8.026320208E0,1.197082685E1,-1.345659382E1,-9.887132961E0,2.054594877E1
8.036356208E0,1.520440259E1,-1.639336490E1,-7.498288089E0,2.358263334E1
8.046393208E0,1.894834086E1,-1.793453541E1,-4.723769644E0,2.651416945E1
8.056430208E0,2.354815480E1,-2.016323908E1,-1.964193174E0,3.106332016E1
8.066467208E0,2.739418662E1,-2.103253060E1,1.341831327E0,3.456312074E1
8.076504208E0,3.103608981E1,-1.974186533E1,4.997359695E0,3.712079904E1
8.086541208E0,2.975466080E1,-1.880030223E1,8.469148082E0,3.620107281E1
8.096577208E0,2.179920348E1,-1.657567290E1,1.017471423E1,2.921443161E1
8.106614208E0,1.057502631E1,-1.506746548E1,7.580208750E0,1.990776889E1
8.116651208E0,-1.123775792E0,-1.485194062E1,2.316113987E0,1.507340029E1
8.126688208E0,-9.467189441E0,-1.506626096E1,1.153459767E-1,1.779419006E1
8.136725208E0,-1.261998824E1,-1.427070049E1,4.114428377E0,1.948962587E1
8.146762208E0,-1.009886532E1,-1.006458309E1,1.143664394E1,1.827784829E1
8.156798208E0,-6.553518957E0,-5.336656662E0,1.582843733E1,1.794346520E1
8.166835208E0,-4.715133306E0,-3.646720707E0,1.474548738E1,1.590473050E1
8.176872208E0,-2.808752723E0,-3.449181297E0,1.148174117E1,1.231325805E1
8.186909208E0,-6.061060023E-1,-3.030601932E0,8.491327740E0,9.036291238E0
8.196946208E0,1.067449271E0,-2.830363448E0,5.667797348E0,6.424510252E0
8.206983208E0,1.755227720E0,-2.937102031E0,4.337641157E0,5.524719313E0
8.217020208E0,1.657711658E0,-2.773702174E0,4.657807789E0,5.668915689E0
8.227056208E0,9.190823132E-1,-2.640255849E0,5.024332316E0,5.749745948E0
8.237093208E0,-1.409205285E-1,-2.750315650E0,4.829539928E0,5.559545906E0
8.247130208E0,-1.032094374E0,-2.929184901E0,4.444167486E0,5.421804830E0
8.257167208E0,-1.346875720E0,-2.769850028E0,4.006649575E0,5.053650581E0
8.267204208E0,-1.388036610E0,-2.517125182E0,3.725484456E0,4.705507331E0
8.277241208E0,-1.681756285E0,-2.435470569E0,3.696927239E0,4.735725088E0
8.287277208E0,-2.022777012E0,-2.280738040E0,4.003390337E0,5.031950619E0
8.297314208E0,-2.067720173E0,-2.141503556E0,4.640171417E0,5.512957008E0
8.307351000E0,-1.781425292E0,-1.941214201E0,4.601979159E0,5.302829511E0
8.317388000E0,-1.704992828E0,-2.073295201E0,3.443481431E0,4.366133060E0
8.327425000E0,-1.749783085E0,-2.147411583E0,2.240405116E0,3.562658058E0
8.337462000E0,-1.725674430E0,-1.979194205E0,1.457711447E0,3.003345568E0
8.347499000E0,-1.984079262E0,-1.947408156E0,1.421669794E0,3.122517262E0
8.357535000E0,-2.512548858E0,-2.018489833E0,2.479466189E0,4.066319657E0
8.367572000E0,-3.054503596E0,-2.124454830E0,4.255607060E0,5.652741989E0
8.377609000E0,-3.273412825E0,-2.300509815E0,5.718394475E0,6.979083916E0
8.387646000E0,-3.221677830E0,-2.694425039E0,6.367614922E0,7.627952158E0
8.397683000E0,-2.742542946E0,-3.194051490E0,6.247423065E0,7.533511910E0
8.407720000E0,-1.902099252E0,-3.843659023E0,5.667280455E0,7.107022161E0
8.417756000E0,-1.058484027E0,-4.447731948E0,5.266087201E0,6.973835554E0
8.427793000E0,-3.299718279E-1,-4.594819243E0,5.089800666E0,6.864933802E0
8.437830000E0,6.204047835E-1,-4.413615784E0,4.387102169E0,6.253924514E0
8.447867000E0,1.069268047E0,-3.885246175E0,2.867656404E0,4.945899842E0
8.457904000E0,2.223362821E-1,-3.933472840E0,1.676296740E0,4.281543269E0
8.467941000E0,-1.584522936E0,-4.804665872E0,1.424539023E0,5.255933648E0
8.477977000E0,-2.979120122E0,-5.884849502E0,2.123672326E0,6.929400732E0
8.488014000E0,-2.816845270E0,-6.820199938E0,3.471741024E0,8.154920614E0
8.498051000E0,-1.689210316E0,-7.879635893E0,4.897192798E0,9.429983594E0
8.508088000E0,1.245889628E-1,-8.439735417E0,6.104931098E0,1.041704565E1
8.518125000E0,2.917542509E0,-7.924536662E0,6.877344777E0,1.089073950E1
8.528162000E0,5.224547997E0,-6.820212802E0,6.575712065E0,1.081901999E1
8.538199000E0,5.545099960E0,-5.803311249E0,5.445532987E0,9.699504345E0
8.548235000E0,5.338289205E0,-4.937627463E0,3.302282867E0,7.986398984E0
8.558272000E0,4.990100377E0,-3.473653941E0,1.100737762E0,6.178915527E0
8.568309000E0,4.950362114E0,-3.146122741E0,-8.585916978E-1,5.928014260E0
8.578346000E0,4.591634849E0,-4.169860566E0,-2.851634449E0,6.826614590E0
8.588383000E0,3.087058554E0,-3.684784619E0,-3.737732034E0,6.089187873E0
8.598420000E0,1.884991468E0,-3.207943013E0,-3.715398009E0,5.258162566E0
8.608456000E0,1.639783217E0,-3.192625062E0,-3.320578220E0,4.889579072E0
8.618493000E0,1.725912704E0,-2.902852257E0,-3.076517778E0,4.568400981E0
8.628530000E0,1.874136112E0,-2.831854780E0,-3.104430631E0,4.601008282E0
8.638567000E0,2.298428791E0,-2.759819714E0,-3.320755976E0,4.891502838E0
8.648604000E0,3.043169938E0,-2.459688567E0,-3.823525890E0,5.470859288E0
8.658641000E0,3.834185364E0,-2.111451645E0,-4.448792049E0,6.241070113E0
8.668677000E0,4.042757885E0,-1.762185029E0,-4.881318777E0,6.578484658E0
8.678714000E0,4.232928050E0,-1.599207488E0,-5.382298273E0,7.031662617E0
8.688751000E0,4.097279078E0,-1.638473880E0,-6.234567962E0,7.638202025E0
8.698788000E0,3.851607728E0,-1.700484771E0,-7.131464769E0,8.281565088E0
8.708825000E0,3.775307996E0,-1.759657862E0,-7.816680676E0,8.857191600E0
8.718862000E0,3.707823526E0,-1.913082954E0,-8.531320941E0,9.496908901E0
8.728898000E0,3.473370643E0,-2.085308598E0,-9.114195955E0,9.974035467E0
8.738935000E0,2.995631490E0,-2.255079288E0,-9.551608032E0,1.026120883E1
8.748972000E0,2.652422150E0,-2.458199281E0,-9.822132972E0,1.046672743E1
8.759009000E0,2.567962044E0,-2.550992839E0,-9.921005881E0,1.056069842E1
8.769046000E0,3.013649685E0,-2.363059235E0,-1.028247607E1,1.097248594E1
8.779083000E0,4.436493015E0,-1.866932927E0,-1.130336835E1,1.228552176E1
8.789120000E0,6.037580529E0,-1.463841522E0,-1.248675358E1,1.394683569E1
8.799156000E0,7.179801947E0,-1.714978118E0,-1.334672464E1,1.525207411E1
8.809193000E0,7.333917010E0,-2.294118370E0,-1.382807679E1,1.581976692E1
8.819230000E0,7.737702919E0,-3.437065574E0,-1.410975003E1,1.645510596E1
8.829267000E0,7.488685207E0,-4.478417259E0,-1.411909154E1,1.659775205E1
8.839304000E0,7.051922756E0,-5.612932339E0,-1.396845674E1,1.662385057E1
8.849341000E0,6.460202658E0,-6.598236709E0,-1.396677625E1,1.674341019E1
8.859377000E0,6.030924059E0,-8.033149862E0,-1.453301477E1,1.766669352E1
8.869414000E0,5.756284432E0,-1.018667529E1,-1.518693462E1,1.917149309E1
8.879451000E0,6.841990757E0,-1.242376855E1,-1.517155177E1,2.076869869E1
8.889488000E0,8.958291644E0,-1.640221174E1,-1.449151591E1,2.364926156E1
8.899525000E0,1.078424787E1,-2.213567566E1,-1.252090951E1,2.762356447E1
8.909562000E0,1.419813654E1,-2.575783864E1,-8.471626132E0,3.060754453E1
8.919598000E0,1.981852467E1,-2.831751811E1,-3.204979059E0,3.471206768E1
8.929635000E0,2.594011039E1,-2.882883606E1,2.753741534E0,3.887896871E1
8.939672000E0,3.068259288E1,-2.493773624E1,8.222718932E0,4.038471618E1
8.949709000E0,2.964645691E1,-2.048656204E1,1.076180041E1,3.760888165E1
8.959746000E0,2.002095995E1,-1.810245809E1,9.491442522E0,2.861162888E1
8.969783000E0,6.809636359E0,-1.652666855E1,9.758892996E0,2.036511511E1
8.979820000E0,-4.201361271E0,-1.330304945E1,1.376426495E1,1.959789659E1
8.989856000E0,-9.682078709E0,-1.030565210E1,1.608102418E1,2.141374447E1
8.999893000E0,-9.409024848E0,-8.083210214E0,1.417627614E1,1.883706031E1
9.009930000E0,-6.222045565E0,-6.844817301E0,9.754425724E0,1.344299803E1
9.019967000E0,-3.550730476E0,-6.323954932E0,6.335630068E0,9.630176595E0
9.030004000E0,-1.598412120E0,-5.576874315E0,6.159675654E0,8.461563247E0
9.040041000E0,1.508061236E-1,-4.606248211E0,7.386082360E0,8.706002394E0
9.050077000E0,1.101496730E0,-3.672167789E0,7.834215306E0,8.721986057E0
9.060114000E0,1.804067758E0,-3.071400880E0,7.517250609E0,8.318486675E0
9.070151000E0,2.172516311E0,-2.929759097E0,7.563999099E0,8.397463775E0
9.080188000E0,1.812247428E0,-2.685775838E0,7.545487399E0,8.211699743E0
9.090225000E0,1.197167996E0,-2.465035846E0,6.966374483E0,7.485985998E0
9.100262000E0,8.840738636E-1,-2.381622391E0,5.782670578E0,6.316089836E0
9.110299000E0,5.981608057E-1,-2.354953825E0,4.208445758E0,4.859487582E0
9.120335000E0,1.342777991E-1,-2.466115242E0,2.774283972E0,3.714351420E0
9.130372000E0,-1.801003817E-1,-2.424405298E0,1.788635201E0,3.018177112E0
9.140409000E0,-6.483647069E-1,-2.373281922E0,1.199869190E0,2.737248609E0
9.150446000E0,-1.277332153E0,-2.144895526E0,1.127543153E0,2.739253148E0
9.160483000E0,-1.607214518E0,-1.739774113E0,1.580334576E0,2.847351374E0
9.170520000E0,-1.890055742E0,-1.345508056E0,1.773367537E0,2.920194352E0
9.180556000E0,-1.853855922E0,-1.199260422E0,1.746047006E0,2.814904525E0
9.190593000E0,-1.446959294E0,-1.149807011E0,1.620334793E0,2.457891821E0
9.200630000E0,-1.041899277E0,-1.023838105E0,1.198465785E0,1.889475803E0
9.210667000E0,-8.115631270E-1,-9.231145531E-1,1.088117132E0,1.641576705E0
9.220704000E0,-6.943124199E-1,-7.920854670E-1,1.131702277E0,1.546033366E0
9.230741000E0,-8.926122603E-1,-8.131933308E-1,1.163233972E0,1.676649431E0
9.240777000E0,-1.440774987E0,-1.021469398E0,1.501476687E0,2.318116592E0
9.250814000E0,-1.904674950E0,-1.090502211E0,2.226244329E0,3.126203057E0
9.260851000E0,-2.265396701E0,-1.085885249E0,3.007472101E0,3.918680572E0
9.270888000E0,-2.549713469E0,-1.148571494E0,3.651782641E0,4.599540380E0
9.280925000E0,-2.600829243E0,-1.110921273E0,4.121821597E0,4.998787063E0
9.290962000E0,-2.350167587E0,-1.135957881E0,4.609423249E0,5.297213482E0
9.300998000E0,-1.937396846E0,-1.510098406E0,5.185880359E0,5.738227848E0
9.311034958E0,-1.369499182E0,-1.960988899E0,5.716359644E0,6.196593665E0
9.321071958E0,-6.284300870E-1,-2.543984367E0,5.870312154E0,6.428634818E0
9.331108958E0,3.280656356E-1,-2.762211810E0,5.317743843E0,6.001319916E0
9.341145958E0,1.793347473E0,-2.657819715E0,3.518374908E0,4.760153652E0
9.351182958E0,2.723309115E0,-2.692092000E0,8.971681184E-1,3.933024600E0
9.361219958E0,1.895100135E0,-2.339699609E0,-1.288563777E0,3.275056547E0
9.371255958E0,-5.184077078E-1,-2.161726152E0,-1.939793912E0,2.950357085E0
9.381292958E0,-2.974629461E0,-2.379234388E0,-7.526676321E-1,3.882741978E0
9.391329958E0,-4.624315522E0,-2.798771526E0,1.752307620E0,5.682252907E0
9.401366958E0,-5.224514083E0,-3.623233611E0,3.988975196E0,7.505684000E0
9.411403958E0,-5.225823859E0,-4.613139154E0,5.369806867E0,8.799154144E0
9.421440958E0,-4.488649009E0,-5.383789313E0,5.748977752E0,9.065533768E0
9.431476958E0,-2.123440338E0,-6.161012912E0,5.022195743E0,8.227364648E0
9.441513958E0,1.125062764E0,-6.354199655E0,4.010972421E0,7.597994422E0
9.451550958E0,3.670085596E0,-5.597940663E0,3.701875738E0,7.649205967E0
9.461587958E0,4.687014631E0,-4.938293461E0,3.933824258E0,7.863194119E0
9.471624958E0,4.798357896E0,-4.136560088E0,4.175447581E0,7.587471935E0
9.481661958E0,4.138487915E0,-3.572401426E0,3.816316273E0,6.667338605E0
9.491697958E0,2.655198408E0,-3.670688151E0,2.509593383E0,5.179004638E0
9.501734958E0,1.408619978E0,-3.824462906E0,8.345146179E-1,4.160185262E0
9.511771958E0,6.633683699E-1,-4.211339545E0,-2.146735060E-1,4.268667599E0
9.521808958E0,-3.304390204E-1,-4.673769518E0,-1.650470173E-1,4.688342135E0
9.531845958E0,-1.201284143E0,-5.338825979E0,7.070260209E-1,5.517792332E0
9.541882958E0,-1.073806656E0,-5.593895559E0,1.861269314E0,5.992416184E0
9.551919958E0,4.638344747E-1,-4.849758138E0,2.732029653E0,5.585631785E0
9.561955958E0,2.496767516E0,-3.744375933E0,2.858530655E0,5.331547304E0
9.571992958E0,4.070721025E0,-2.602386357E0,2.137202345E0,5.283069020E0
9.582029958E0,4.948034338E0,-2.278099777E0,8.421545899E-1,5.511987550E0
9.592066958E0,5.109929706E0,-2.360431643E0,-5.697421682E-1,5.657528195E0
9.602103958E0,5.042072768E0,-2.368763779E0,-1.920486406E0,5.892521334E0
9.612140958E0,5.025622212E0,-2.575117866E0,-3.077275577E0,6.430998027E0
9.622176958E0,5.432314187E0,-2.229750320E0,-3.582343447E0,6.878590589E0
9.632213958E0,5.432522348E0,-1.701417548E0,-3.752006257E0,6.817966829E0
9.642250958E0,4.773342338E0,-1.648632978E0,-3.931241543E0,6.399800610E0
9.652287958E0,3.969839013E0,-1.965744732E0,-4.205668915E0,6.108307881E0
9.662324958E0,3.117244805E0,-2.369891707E0,-4.670889180E0,6.095146233E0
9.672361958E0,2.626803160E0,-2.617961000E0,-5.334618908E0,6.497074228E0
9.682397958E0,2.472957069E0,-2.465985726E0,-6.173465143E0,7.092832589E0
9.692434958E0,2.300205760E0,-2.355009081E0,-6.883994815E0,7.630622447E0
9.702471958E0,1.960893590E0,-2.300272564E0,-6.960700929E0,7.588656994E0
9.712508958E0,1.534166715E0,-2.558724320E0,-6.663401588E0,7.300798476E0
9.722545958E0,9.961836988E-1,-3.028633175E0,-6.446756986E0,7.192056486E0
9.732582958E0,6.940808702E-1,-3.084472623E0,-6.346843858E0,7.090708467E0
9.742618958E0,4.936833411E-1,-3.297664444E0,-6.441614360E0,7.253461904E0
9.752655958E0,4.069457442E-1,-3.304158362E0,-6.324375932E0,7.147083198E0
9.762692958E0,5.245981550E-1,-3.128906784E0,-6.048979091E0,6.830476479E0
9.772729958E0,7.871246892E-1,-3.103835092E0,-6.066121373E0,6.859386713E0
9.782766958E0,1.281733645E0,-2.807148247E0,-6.162157797E0,6.891669691E0
9.792803958E0,2.077588227E0,-2.532275902E0,-5.946530026E0,6.788962618E0
9.802840958E0,2.646520556E0,-2.458535496E0,-5.635286245E0,6.693647653E0
9.812876958E0,2.677268724E0,-2.351910349E0,-5.364414564E0,6.440201373E0
9.822913958E0,2.771254529E0,-2.051148872E0,-5.645406021E0,6.614958239E0
9.832950958E0,3.047528452E0,-1.503119754E0,-7.188864546E0,7.951513826E0
9.842987958E0,2.713077073E0,-1.290897255E0,-9.060079390E0,9.545273253E0
9.853024958E0,2.363417670E0,-1.807131845E0,-1.026879944E1,1.069110427E1
9.863061958E0,3.075527844E0,-2.547024042E0,-1.024035858E1,1.099141241E1
9.873097958E0,3.633335261E0,-3.383293701E0,-9.514395182E0,1.073179934E1
9.883134958E0,3.500001787E0,-4.609955345E0,-9.077637409E0,1.076592782E1
9.893171958E0,3.622253618E0,-5.331278978E0,-9.322545698E0,1.133371586E1
9.903208958E0,4.852804829E0,-5.750892130E0,-1.028581600E1,1.274442960E1
9.913245958E0,6.672881679E0,-6.087779460E0,-1.098735792E1,1.422358755E1
9.923282958E0,7.960349103E0,-8.400338048E0,-1.088479425E1,1.588746622E1
9.933318958E0,7.090483389E0,-1.235315640E1,-8.881308957E0,1.678550197E1
9.943355958E0,7.279535565E0,-1.362234251E1,-5.683664353E0,1.645794318E1
9.953392958E0,9.954665962E0,-1.364719785E1,-3.664134884E0,1.728488554E1
9.963429958E0,1.339920340E1,-1.350937898E1,-4.240787292E0,1.949426195E1
9.973466958E0,1.695374451E1,-1.424305719E1,-5.452715707E0,2.280408383E1
9.983503958E0,1.913799062E1,-1.653079786E1,-4.481407233E0,2.568293156E1
9.993540958E0,1.921856292E1,-1.901552186E1,-1.682104779E0,2.708823931E1
1.000357696E1,1.736970373E1,-2.049757585E1,-1.170741212E-1,2.686765583E1
1.001361396E1,1.255337910E1,-2.207128144E1,-6.356063747E-1,2.539946430E1
1.002365096E1,5.116155236E0,-2.285340267E1,-1.038827443E0,2.344210358E1
1.003368796E1,-6.747341877E-1,-2.206490096E1,1.639422444E0,2.213600746E1
1.004372496E1,-2.883867225E0,-1.873704237E1,8.079396660E0,2.060752526E1
1.005376196E1,-3.212208264E0,-1.277244737E1,1.715171836E1,2.162487310E1
1.006379796E1,-2.598668112E0,-7.777693196E0,2.425325884E1,2.560207319E1
1.007383496E1,-2.355730920E0,-5.035021026E0,2.591958198E1,2.650897273E1
1.008387196E1,-1.897711501E0,-3.648407044E0,2.141159857E1,2.180295247E1
1.009390896E1,-4.098851395E-1,-2.932883849E0,1.337092159E1,1.369493912E1
1.010394596E1,1.243598396E0,-2.372493718E0,6.659086343E0,7.177652425E0
1.011398296E1,2.098165456E0,-2.431128427E0,2.507934236E0,4.074606464E0
1.012401896E1,2.157027622E0,-2.727698620E0,8.786248434E-1,3.586793768E0
1.013405596E1,1.440543437E0,-2.839751152E0,1.284828283E0,3.433676706E0
1.014409296E1,1.096911344E-1,-2.784664534E0,2.712587953E0,3.889025857E0
1.015412996E1,-1.154477182E0,-2.742490321E0,3.378534945E0,4.502062761E0
1.016416696E1,-1.956634770E0,-2.627277369E0,3.092085113E0,4.504663843E0
1.017420396E1,-2.080189068E0,-2.165819203E0,2.807879734E0,4.111222200E0
1.018423996E1,-1.454688436E0,-1.572705714E0,2.789843120E0,3.517491485E0
1.019427696E1,-9.070572218E-1,-1.147160561E0,2.952963188E0,3.295257463E0
1.020431396E1,-7.875643998E-1,-1.078235922E0,2.693828039E0,3.006586085E0
1.021435096E1,-8.748832101E-1,-1.137904419E0,2.107969775E0,2.550251687E0
1.022438796E1,-9.157137322E-1,-1.171398439E0,1.663262712E0,2.230952440E0
1.023442496E1,-1.056003054E0,-1.213569728E0,1.459451286E0,2.172070899E0
1.024446096E1,-1.118568261E0,-1.270094177E0,1.254044155E0,2.106409484E0
1.025449796E1,-1.109750952E0,-1.234157774E0,1.139313305E0,2.013138693E0
1.026453496E1,-1.231099681E0,-1.072621425E0,1.553289449E0,2.253626247E0
1.027457196E1,-1.379428339E0,-1.020052618E0,2.075589648E0,2.692842787E0
1.028460896E1,-1.656666175E0,-1.094046208E0,1.849121431E0,2.713066529E0
1.029464596E1,-2.086670415E0,-1.316389507E0,1.581630903E0,2.930636632E0
1.030468296E1,-2.328953011E0,-1.346519625E0,1.845476862E0,3.262349165E0
1.031471908E1,-2.152654489E0,-1.228780090E0,2.213941495E0,3.323455852E0
1.032475608E1,-1.714706515E0,-1.144005404E0,2.582435364E0,3.304230502E0
1.033479308E1,-1.133650569E0,-1.098416417E0,3.305188641E0,3.662779572E0
1.034483008E1,-2.150869042E-1,-9.382021236E-1,3.450605971E0,3.582341018E0
1.035486708E1,4.401152444E-1,-8.819583410E-1,2.573793472E0,2.756077789E0
1.036490408E1,2.816030753E-1,-1.103969518E0,2.020550977E0,2.319628255E0
1.037494008E1,-4.456163049E-3,-1.329925227E0,2.353744913E0,2.703485913E0
1.038497708E1,-2.515524799E-1,-1.490388612E0,3.261907551E0,3.595076875E0
1.039501408E1,-4.570289004E-1,-1.702125646E0,4.291462479E0,4.639262586E0
1.040505108E1,-4.617926270E-1,-1.956438596E0,5.211761305E0,5.585996806E0
1.041508808E1,-1.858888328E-2,-1.781043177E0,4.893179269E0,5.207270273E0
1.042512508E1,2.142530912E-1,-1.973309568E0,3.036496511E0,3.627694322E0
1.043516108E1,-3.269494021E-1,-2.395714765E0,9.793714920E-1,2.608737945E0
1.044519808E1,-1.088466210E0,-2.423458634E0,-1.898962221E-1,2.663450960E0
1.045523508E1,-1.395633312E0,-2.636332367E0,1.765557995E-1,2.988178817E0
1.046527208E1,-1.046705396E0,-2.844677432E0,2.175966753E0,3.731301809E0
1.047530908E1,-8.693230927E-2,-3.123063369E0,4.580057655E0,5.544187060E0
1.048534608E1,5.840158063E-1,-3.534693902E0,6.469528967E0,7.395264735E0
1.049538208E1,9.074042541E-1,-3.864934117E0,7.427208166E0,8.421669630E0
1.050541908E1,1.607407769E0,-4.020296976E0,6.972709941E0,8.207632511E0
1.051545608E1,2.457059659E0,-4.233682340E0,5.092916647E0,7.063923011E0
1.052549308E1,2.583219768E0,-4.613998110E0,3.159614314E0,6.159964736E0
1.053553008E1,2.215870784E0,-4.942658408E0,2.278222860E0,5.876244963E0
1.054556708E1,1.903078660E0,-5.320648155E0,2.554201791E0,6.201205687E0
1.055560308E1,1.367585973E0,-5.734341002E0,3.463368981E0,6.837242340E0
1.056564008E1,1.097471507E0,-5.889377001E0,3.990054592E0,7.197898361E0
1.057567708E1,1.373979319E0,-6.023705671E0,3.922224551E0,7.318243957E0
1.058571408E1,2.011214728E0,-5.437364427E0,3.026370302E0,6.539788513E0
1.059575108E1,2.580870942E0,-4.943978709E0,1.623086493E0,5.808461936E0
1.060578808E1,2.409403682E0,-4.871482590E0,5.444715985E-1,5.461961008E0
1.061582508E1,2.375048951E0,-4.583627087E0,4.754487991E-2,5.162630658E0
1.062586108E1,2.314733167E0,-4.239136623E0,-2.483043516E-1,4.836313058E0
1.063589808E1,2.321834611E0,-4.113699522E0,-7.968351603E-1,4.790447368E0
1.064593508E1,2.564961253E0,-3.944169737E0,-1.472382696E0,4.929849079E0
1.065597208E1,2.854897195E0,-3.513365306E0,-2.238218257E0,5.050128190E0
1.066600908E1,3.185414568E0,-3.069693785E0,-2.926291698E0,5.304061558E0
1.067604608E1,3.725654025E0,-2.695424328E0,-3.282024019E0,5.649556787E0
1.068608208E1,4.407666242E0,-2.207699008E0,-3.638462684E0,6.126978645E0
1.069611908E1,4.929474691E0,-1.810991153E0,-4.127854169E0,6.679714794E0
1.070615608E1,5.177565619E0,-1.506290992E0,-4.977941676E0,7.338664839E0
1.071619308E1,5.316738122E0,-1.390968111E0,-5.877327059E0,8.046456978E0
1.072623008E1,5.385795493E0,-1.150587103E0,-6.345108989E0,8.401848121E0
1.073626708E1,5.302896008E0,-8.431579721E-1,-6.627717201E0,8.529845059E0
1.074630308E1,4.588292581E0,-5.999891204E-1,-6.849220254E0,8.265847437E0
1.075634008E1,3.564767302E0,-9.580775405E-1,-6.871941365E0,7.800580531E0
1.076637708E1,2.337284124E0,-1.654143833E0,-6.674798396E0,7.263058758E0
1.077641408E1,1.245354023E0,-2.247130291E0,-6.334747723E0,6.835900080E0
1.078645108E1,4.987318271E-1,-2.793540022E0,-6.232984536E0,6.848554265E0
1.079648808E1,-1.013456959E-1,-3.187319591E0,-5.929712849E0,6.732813052E0
1.080652408E1,-3.502154732E-1,-3.569755854E0,-5.716330993E0,6.748499667E0
1.081656108E1,-4.747851402E-1,-3.814698641E0,-5.745187587E0,6.912635319E0
1.082659808E1,-5.134779203E-1,-3.951121784E0,-6.087520428E0,7.275501899E0
1.083663508E1,-3.600791413E-1,-3.859546493E0,-6.721241076E0,7.758919881E0
1.084667208E1,5.304827929E-2,-3.687555614E0,-7.051872470E0,7.958001373E0
1.085670908E1,9.073767722E-1,-3.414307918E0,-7.508923590E0,8.298479658E0
1.086674608E1,2.449826068E0,-2.758777448E0,-8.268701436E0,9.054497458E0
1.087678208E1,4.600926075E0,-1.810792933E0,-9.952958575E0,1.111345474E1
1.088681908E1,6.705863484E0,-1.100641868E0,-1.313474670E1,1.478856276E1
1.089685608E1,7.207993712E0,-1.380105154E0,-1.533299222E1,1.699883861E1
1.090689308E1,6.444767763E0,-2.466146817E0,-1.544695095E1,1.691819155E1
1.091693008E1,5.549754344E0,-4.314342926E0,-1.460608976E1,1.620960167E1
1.092696708E1,5.002583597E0,-5.779368655E0,-1.366766778E1,1.565988784E1
1.093700308E1,4.752963622E0,-6.909554749E0,-1.379385420E1,1.614320364E1
1.094704008E1,4.268421233E0,-8.813769524E0,-1.403246621E1,1.711175213E1
1.095707708E1,4.028270824E0,-1.112134453E1,-1.332439412E1,1.781714760E1
1.096711408E1,4.659043306E0,-1.403486942E1,-1.187468576E1,1.896555841E1
1.097715108E1,5.587397549E0,-1.680497380E1,-9.959001088E0,2.031767355E1
1.098718808E1,8.362244022E0,-1.818274504E1,-7.747953672E0,2.146089766E1
1.099722408E1,1.244476239E1,-2.029699531E1,-5.339649852E0,2.439983586E1
1.100726108E1,1.607887241E1,-2.302488279E1,-1.547383761E0,2.812596242E1
1.101729808E1,1.926964185E1,-2.430899918E1,5.017346647E0,3.142324467E1
1.102733508E1,2.112424768E1,-2.191057890E1,1.351128751E1,3.329958255E1
1.103737208E1,2.160018765E1,-1.470088716E1,2.045491691E1,3.318264328E1
1.104740908E1,1.962606473E1,-8.483926334E0,2.249342702E1,3.103407292E1
1.105744608E1,1.386610825E1,-5.575399647E0,1.867874095E1,2.392173494E1
1.106748208E1,7.178265883E0,-4.695173251E0,1.132923994E1,1.420999052E1
1.107751908E1,8.426334769E-1,-4.933729709E0,4.327870460E0,6.616810617E0
1.108755608E1,-4.595112773E0,-6.256355272E0,-6.318694192E-1,7.788215563E0
1.109759308E1,-7.718529899E0,-7.799713810E0,-2.659800167E0,1.129095993E1
1.110763008E1,-7.194387826E0,-7.255035147E0,1.235601452E-1,1.021812205E1
1.111766708E1,-3.770806809E0,-5.510059351E0,5.554754298E0,8.685334383E0
1.112770308E1,-5.956734002E-2,-4.285261799E0,9.949374232E0,1.083314657E1
1.113774008E1,2.722811517E0,-2.742272220E0,1.196477147E1,1.257336534E1
1.114777708E1,4.334805257E0,-1.634390330E0,1.134036018E1,1.225012397E1
1.115781408E1,4.597119538E0,-1.475295194E0,8.864076628E0,1.009365436E1
1.116785108E1,4.089838496E0,-1.498463032E0,6.340118975E0,7.692156980E0
1.117788808E1,3.125571240E0,-1.507381790E0,3.938759308E0,5.249306651E0
1.118792408E1,1.599002981E0,-1.801269865E0,2.222615547E0,3.277408051E0
1.119796108E1,-5.684253752E-2,-2.259185788E0,2.148914317E0,3.118490699E0
1.120799808E1,-1.135515831E0,-2.178723423E0,2.944340299E0,3.834758369E0
1.121803508E1,-1.662755173E0,-2.032902635E0,3.413974042E0,4.307280656E0
1.122807208E1,-1.870132524E0,-1.936976139E0,3.737583807E0,4.606387406E0
1.123810908E1,-1.672989555E0,-1.695062794E0,4.456244910E0,5.052746839E0
1.124814508E1,-1.312719210E0,-1.473244575E0,5.256726978E0,5.614878434E0
1.125818208E1,-6.955888671E-1,-1.378417940E0,6.029823028E0,6.224359054E0
1.126821908E1,5.370199800E-2,-1.158691855E0,6.590887928E0,6.692178599E0
1.127825608E1,4.799862385E-1,-9.819808120E-1,6.312109643E0,6.406044118E0
1.128829308E1,8.322868288E-2,-1.406351843E0,4.926511906E0,5.123989860E0
1.129833008E1,-8.667029554E-1,-2.060690943E0,3.377955778E0,4.050704434E0
1.130836571E1,-1.388003865E0,-2.202336234E0,2.621464067E0,3.694443594E0
1.131840271E1,-1.181511784E0,-2.306441231E0,2.658648850E0,3.712688373E0
1.132843971E1,-7.149893439E-1,-2.335168017E0,3.078292700E0,3.929389950E0
1.133847671E1,1.158836281E-1,-2.177489076E0,3.557073535E0,4.172248773E0
1.134851371E1,7.729370052E-1,-1.904030587E0,3.676624537E0,4.211927359E0
1.135855071E1,8.033717626E-1,-2.151012298E0,3.722919282E0,4.374058536E0
1.136858671E1,7.314872628E-1,-2.532884597E0,3.818517165E0,4.640221044E0
1.137862371E1,8.524322408E-1,-2.864909675E0,4.102688338E0,5.076061442E0
1.138866071E1,1.081243730E0,-3.090251426E0,4.477239922E0,5.546568236E0
1.139869771E1,1.484023917E0,-3.332473211E0,4.520040079E0,5.808482333E0
1.140873471E1,2.131562120E0,-3.237370880E0,3.713282486E0,5.367736405E0
1.141877171E1,2.332247332E0,-3.329314838E0,2.385391214E0,4.713152464E0
1.142880871E1,2.488096095E0,-3.435794681E0,1.423124728E0,4.474437536E0
1.143884471E1,2.734963785E0,-2.954872304E0,7.582635637E-1,4.097103961E0
1.144888171E1,2.689104073E0,-2.529411351E0,5.293474098E-1,3.729532300E0
1.145891871E1,1.833931242E0,-2.756720982E0,6.541514039E-1,3.375015324E0
1.146895571E1,7.907259893E-1,-3.217601736E0,9.771130049E-1,3.454411433E0
1.147899271E1,4.239184570E-1,-3.347962486E0,1.488827405E0,3.688518226E0
1.148902871E1,7.962393290E-1,-3.339476421E0,1.732003602E0,3.845248538E0
1.149906571E1,1.505593126E0,-3.315531781E0,1.699208909E0,4.018317131E0
1.150910271E1,2.481471199E0,-2.792949454E0,1.446337004E0,4.006264681E0
1.151913971E1,2.952200126E0,-2.646119437E0,1.014270964E0,4.092209580E0
1.152917671E1,2.607917238E0,-2.751437146E0,5.345536244E-1,3.828496606E0
1.153921371E1,2.223530052E0,-2.889345481E0,2.188940263E-1,3.652439978E0
1.154925071E1,1.985922012E0,-3.099646147E0,-2.200810111E-1,3.687835154E0
1.155928671E1,1.979383070E0,-3.033834858E0,-1.043095325E0,3.769636474E0
1.156932371E1,2.314302812E0,-2.753209437E0,-2.004455931E0,4.117523927E0
1.157936071E1,2.346190603E0,-2.536456661E0,-2.855320534E0,4.482307228E0
1.158939771E1,2.041899746E0,-2.359028896E0,-3.171570116E0,4.448958182E0
1.159943471E1,1.805717842E0,-2.229831888E0,-3.363482165E0,4.421060897E0
1.160947171E1,1.847994381E0,-2.343132363E0,-3.826717885E0,4.852743788E0
1.161950771E1,2.082240272E0,-2.253888357E0,-4.244459344E0,5.237477675E0
1.162954471E1,2.510857551E0,-2.040158884E0,-4.527338281E0,5.564480733E0
1.163958171E1,2.643402236E0,-1.856931119E0,-4.714242775E0,5.714880008E0
1.164961871E1,2.607566405E0,-1.845915695E0,-4.761452025E0,5.733954368E0
1.165965571E1,2.493495998E0,-1.846878147E0,-4.598078481E0,5.547144031E0
1.166969271E1,2.118978912E0,-1.952121305E0,-4.375962639E0,5.239265047E0
1.167972871E1,1.571981828E0,-2.348219148E0,-4.384118920E0,5.215913989E0
1.168976571E1,1.255543966E0,-2.712702558E0,-4.472933448E0,5.379802919E0
1.169980271E1,1.333808362E0,-2.619279547E0,-4.660343726E0,5.509852425E0
1.170983971E1,1.458765115E0,-2.437215378E0,-4.957455956E0,5.713526408E0
1.171987671E1,1.423436238E0,-2.418900729E0,-5.127690039E0,5.845550153E0
1.172991371E1,1.463220109E0,-2.336898500E0,-5.189498616E0,5.876478842E0
1.173994971E1,1.595331514E0,-2.336659934E0,-5.587073028E0,6.262623037E0
1.174998671E1,1.600450167E0,-2.338664944E0,-5.972623810E0,6.610826698E0
1.176002371E1,1.455864311E0,-2.447117638E0,-5.844897816E0,6.501596428E0
1.177006071E1,1.104147858E0,-2.546172979E0,-5.532581071E0,6.189635906E0
1.178009771E1,5.792713755E-1,-2.485180965E0,-5.260751617E0,5.846981044E0
1.179013471E1,4.556641603E-1,-2.195814396E0,-5.020025842E0,5.498171527E0
1.180017071E1,8.573433173E-1,-1.741319240E0,-4.967392130E0,5.333124303E0
1.181020771E1,1.358814565E0,-1.397040153E0,-5.331183668E0,5.676232687E0
1.182024471E1,1.977691471E0,-1.128634097E0,-6.104158680E0,6.515046560E0
1.183028171E1,2.448243227E0,-9.056802025E-1,-7.285827754E0,7.739343486E0
1.184031871E1,3.092784732E0,-6.725236478E-1,-9.895080496E0,1.038894718E1
1.185035571E1,3.707499590E0,-4.271010965E-1,-1.399498907E1,1.448404942E1
1.186039171E1,3.795311905E0,-5.587115420E-1,-1.834366626E1,1.874050807E1
1.187042871E1,3.633859171E0,-2.563504419E0,-2.112700523E1,2.158997076E1
1.188046571E1,3.118339988E0,-5.366193287E0,-2.004148602E1,2.098049657E1
1.189050271E1,3.099954003E0,-8.683232188E0,-1.648889905E1,1.889158617E1
1.190053971E1,4.627803971E0,-1.129068808E1,-1.129794564E1,1.662948534E1
1.191057671E1,6.766051798E0,-1.252930845E1,-6.101893469E0,1.549180852E1
1.192061271E1,8.141483565E0,-1.418852606E1,-3.034085411E0,1.663741869E1
1.193064971E1,8.135387843E0,-1.688770605E1,-1.072449517E0,1.877576361E1
1.194068671E1,9.116667573E0,-1.715962731E1,5.018407917E-1,1.943754823E1
1.195072371E1,1.239276895E1,-1.725359557E1,1.740269372E0,2.131421638E1
1.196076071E1,1.690121780E1,-1.649105901E1,3.554068066E0,2.387964803E1
1.197079771E1,2.149490970E1,-1.353479215E1,5.436910098E0,2.597656122E1
1.198083471E1,2.557748245E1,-1.095092860E1,6.500306371E0,2.857244176E1
1.199087071E1,2.628083466E1,-1.012688050E1,6.114433408E0,2.882051830E1
1.200090771E1,2.159095372E1,-1.192042034E1,5.235123271E0,2.521254092E1
1.201094471E1,1.181569788E1,-1.446882053E1,5.452445565E0,1.945987272E1
1.202098171E1,1.315542246E0,-1.391556049E1,6.358948764E0,1.535609666E1
1.203101871E1,-6.334587509E0,-1.126284130E1,8.263942387E0,1.533855720E1
1.204105571E1,-1.014917125E1,-8.602097393E0,9.820825535E0,1.653633487E1
1.205109171E1,-1.039336150E1,-6.151398920E0,9.426653033E0,1.532068730E1
1.206112871E1,-7.522595549E0,-4.464944982E0,7.761581778E0,1.169475648E1
1.207116571E1,-3.221212977E0,-3.336266300E0,6.762356942E0,8.199777880E0
1.208120271E1,2.997621882E-1,-2.297733557E0,6.697586750E0,7.087108377E0
1.209123971E1,2.719225420E0,-1.602460440E0,6.691867588E0,7.398861950E0
1.210127671E1,3.947889150E0,-1.172088996E0,6.502476858E0,7.696871224E0
1.211131271E1,4.034751878E0,-1.010440380E0,5.761948630E0,7.106353811E0
1.212134971E1,3.123764450E0,-1.132411544E0,4.631625127E0,5.700193993E0
1.213138671E1,1.549035015E0,-1.491941632E0,3.954162628E0,4.501199996E0
1.214142371E1,2.590339923E-1,-1.677479047E0,4.031490301E0,4.374236917E0
1.215146071E1,-7.257628387E-1,-1.716562421E0,4.661747058E0,5.020478451E0
1.216149771E1,-1.723021840E0,-1.906892214E0,5.163683159E0,5.767899613E0
1.217153371E1,-2.150888337E0,-1.871253435E0,5.210573736E0,5.939527651E0
1.218157071E1,-1.605255994E0,-1.669415737E0,4.597406344E0,5.147809320E0
1.219160771E1,-9.202271980E-1,-1.420106249E0,3.335364659E0,3.740077174E0
1.220164471E1,-4.272256422E-1,-1.183773487E0,2.028441502E0,2.387135594E0
1.221168171E1,-1.279943812E-1,-1.113920894E0,8.654259235E-1,1.416391312E0
1.222171871E1,-1.566118240E-1,-1.071321589E0,-1.783242899E-1,1.097295203E0
1.223175471E1,-4.028731585E-3,-9.381728876E-1,-2.884156662E-1,9.815132165E-1
1.224179171E1,3.870523471E-1,-8.572298813E-1,8.264589089E-1,1.252073048E0
1.225182871E1,6.492765802E-1,-8.787084585E-1,2.252615272E0,2.503590261E0
1.226186571E1,4.918555015E-1,-1.051853285E0,3.926891799E0,4.094972084E0
1.227190271E1,2.341295314E-1,-1.312371300E0,5.606943036E0,5.763240866E0
1.228193971E1,5.912704468E-3,-1.583237718E0,6.943442287E0,7.121661845E0
1.229197571E1,-1.398624748E-1,-1.805945299E0,7.375960829E0,7.595116726E0
1.230201271E1,4.217070401E-2,-2.173377314E0,6.387340504E0,6.747107975E0
1.231205025E1,7.461953491E-1,-2.094051647E0,4.439930593E0,4.965364385E0
1.232208725E1,1.455593001E0,-1.893561147E0,2.392468683E0,3.380566699E0
1.233212425E1,1.966622107E0,-1.961655482E0,7.311261973E-1,2.872323147E0
1.234216125E1,2.369432700E0,-1.584567960E0,-3.484846973E-1,2.871673471E0
1.235219725E1,2.319775221E0,-1.484501635E0,-3.162487051E-1,2.772204073E0
1.236223425E1,1.501033468E0,-1.806893717E0,1.004961831E0,2.554978407E0
1.237227125E1,6.744394881E-1,-2.390426543E0,2.888943193E0,3.809855700E0
1.238230825E1,1.304387512E0,-2.771745403E0,4.452141334E0,5.404217040E0
1.239234525E1,2.717566565E0,-2.836093427E0,5.248686472E0,6.555707715E0
1.240238225E1,4.451783484E0,-2.904726582E0,5.194678080E0,7.432394840E0
1.241241825E1,5.866454161E0,-2.990759297E0,5.095572453E0,8.326150624E0
1.242245525E1,5.994299439E0,-2.937243533E0,5.037964514E0,8.363020494E0
1.243249225E1,5.551505000E0,-3.175569611E0,4.214575979E0,7.659379923E0
1.244252925E1,4.526718476E0,-3.709901626E0,3.296342096E0,6.717173621E0
1.245256625E1,3.221376699E0,-3.740325859E0,2.651155643E0,5.603207261E0
1.246260325E1,2.009740060E0,-3.550039335E0,1.629653501E0,4.392903928E0
1.247264025E1,9.321818304E-1,-3.550908231E0,2.847447842E-1,3.682253634E0
1.248267625E1,-9.811627865E-3,-3.491182139E0,-6.507173342E-1,3.551321169E0
1.249271325E1,-5.418252218E-1,-3.458772777E0,-1.041969736E0,3.652722906E0
1.250275025E1,-2.036620295E-1,-3.337623439E0,-7.752542567E-1,3.432524960E0
1.251278725E1,2.352849412E-1,-3.180414029E0,-9.801630040E-2,3.190611164E0
1.252282425E1,9.529049474E-1,-3.328803791E0,3.663713300E-1,3.481837226E0
1.253286025E1,2.043544568E0,-2.989835145E0,4.357023507E-1,3.647605397E0
1.254289725E1,2.961667938E0,-2.701305166E0,1.245007064E-1,4.010489621E0
1.255293425E1,3.496360141E0,-2.573752542E0,-5.579728194E-1,4.377221727E0
1.256297125E1,3.586737045E0,-2.498333108E0,-1.621398402E0,4.662111509E0
1.257300825E1,3.607038578E0,-2.456339867E0,-2.661730333E0,5.111667165E0
1.258304525E1,3.284200353E0,-2.354401555E0,-3.273781784E0,5.200656287E0
1.259308125E1,2.752697806E0,-2.113878386E0,-3.345404329E0,4.820534946E0
1.260311825E1,2.409275628E0,-2.063205246E0,-3.539372844E0,4.752745003E0
1.261315525E1,1.958206210E0,-1.944704989E0,-4.197246001E0,5.023278117E0
1.262319225E1,1.135743873E0,-2.107433585E0,-4.958287430E0,5.505978996E0
1.263322925E1,2.114078361E-1,-2.626561085E0,-5.128277684E0,5.765652470E0
1.264326625E1,-1.544471848E-1,-2.930569229E0,-4.910125669E0,5.720264332E0
1.265330325E1,-6.669334173E-2,-2.726665417E0,-4.786002730E0,5.508627272E0
1.266333925E1,1.314629495E-1,-2.533505571E0,-4.787333556E0,5.417978919E0
1.267337625E1,2.326028234E-1,-2.499397593E0,-4.850219775E0,5.461293278E0
1.268341325E1,3.822745872E-1,-2.459758149E0,-5.139384470E0,5.710500568E0
1.269345025E1,4.144067913E-1,-2.383096035E0,-5.583766428E0,6.085172735E0
1.270348725E1,5.159629869E-1,-2.327083218E0,-5.753854330E0,6.228031290E0
1.271352425E1,7.329718709E-1,-2.261911614E0,-5.599065667E0,6.083011447E0
1.272356025E1,9.823421699E-1,-2.256941188E0,-5.775715899E0,6.278349609E0
1.273359725E1,1.132264779E0,-2.143141215E0,-6.330581582E0,6.778741842E0
1.274363425E1,1.285703319E0,-1.785540709E0,-7.300877318E0,7.625221194E0
1.275367125E1,1.764447609E0,-1.264086894E0,-8.942451537E0,9.202099246E0
1.276370825E1,2.727420877E0,-5.450632636E-1,-1.132456217E1,1.166111603E1
1.277374525E1,4.027061620E0,8.736778066E-2,-1.452309321E1,1.507133355E1
1.278378125E1,5.523092794E0,-2.643856564E-1,-1.779520445E1,1.863447759E1
1.279381825E1,6.377045311E0,-1.228836662E0,-1.911848431E1,2.019141374E1
1.280385525E1,6.551342624E0,-2.844848755E0,-1.810506595E1,1.946295629E1
1.281389225E1,6.644725581E0,-5.213130723E0,-1.423640306E1,1.655307470E1
1.282392925E1,6.086388992E0,-6.841525903E0,-8.367246315E0,1.240408878E1
1.283396625E1,5.093063412E0,-7.488099900E0,-4.556314451E0,1.013760013E1
1.284400225E1,3.832102001E0,-7.686618719E0,-4.435586405E0,9.666619876E0
1.285403925E1,3.268955492E0,-8.078668681E0,-6.075858157E0,1.062388865E1
1.286407625E1,3.852228118E0,-9.302859292E0,-7.523343408E0,1.256915067E1
1.287411325E1,3.993801488E0,-1.199301353E1,-8.197864172E0,1.506611432E1
1.288415025E1,4.464824529E0,-1.504071096E1,-7.388042931E0,1.734188060E1
1.289418725E1,1.018344412E1,-1.696543075E1,-3.637368670E0,2.011861888E1
1.290422325E1,1.896895113E1,-1.612594834E1,2.036422074E0,2.498027885E1
1.291426025E1,2.343020009E1,-1.314160432E1,5.676595654E0,2.745723544E1
1.292429725E1,2.249244703E1,-1.104995821E1,7.236201265E0,2.608398663E1
1.293433425E1,1.637610041E1,-1.060167792E1,7.623053638E0,2.094476512E1
1.294437125E1,7.269135123E0,-1.021614643E1,8.778558176E0,1.530598108E1
1.295440825E1,3.483408558E-1,-8.001093671E0,8.832873546E0,1.192302379E1
1.296444425E1,-4.010997564E0,-6.608307368E0,4.804086998E0,9.101487769E0
1.297448125E1,-7.196029724E0,-6.985940436E0,1.206077398E0,1.010152613E1
1.298451825E1,-7.260575969E0,-5.626741709E0,1.928913706E0,9.385994552E0
1.299455525E1,-4.306137528E0,-4.575176107E0,3.927713040E0,7.409587475E0
1.300459225E1,-1.310593747E0,-3.962263945E0,4.334915185E0,6.017364972E0
1.301462925E1,1.868007646E0,-3.323838628E0,4.550212004E0,5.936479181E0
1.302466525E1,5.206143885E0,-2.358583192E0,5.347705561E0,7.827183631E0
1.303470225E1,6.496979306E0,-1.734561321E0,6.203971821E0,9.149246386E0
1.304473925E1,5.530121148E0,-1.770856158E0,6.991857233E0,9.088687419E0
1.305477625E1,3.069294713E0,-2.046354740E0,7.883802034E0,8.704164076E0
1.306481325E1,4.662897205E-1,-2.415393569E0,8.250886724E0,8.609801620E0
1.307485025E1,-1.620690304E0,-2.463620819E0,7.466479236E0,8.027725505E0
1.308488625E1,-3.056249574E0,-2.425577665E0,5.480061965E0,6.727196118E0
1.309492325E1,-3.491791711E0,-2.403690367E0,3.209385813E0,5.317000474E0
1.310496025E1,-2.823204117E0,-2.221338515E0,1.424913830E0,3.864609386E0
1.311499725E1,-1.703029625E0,-1.946767302E0,2.796420653E-1,2.601617289E0
1.312503425E1,-6.625099987E-1,-1.753692241E0,2.336407042E-1,1.889164882E0
1.313507125E1,2.787198132E-1,-1.473662066E0,1.526861204E0,2.140249928E0
1.314510725E1,9.000952345E-1,-1.291974458E0,3.031512636E0,3.416055956E0
1.315514425E1,6.980949837E-1,-1.319099692E0,4.086677492E0,4.350665871E0
1.316518125E1,9.162879288E-2,-1.443384599E0,5.066584296E0,5.268968720E0
1.317521825E1,-4.855902100E-1,-1.436177906E0,5.853811312E0,6.046942343E0
1.318525525E1,-8.622754437E-1,-1.251014128E0,5.366896123E0,5.577824780E0
1.319529225E1,-1.501310041E0,-1.387193441E0,3.808266996E0,4.322167858E0
1.320532825E1,-2.159393697E0,-1.566687759E0,2.306980344E0,3.526988798E0
1.321536525E1,-2.300202252E0,-1.567956605E0,1.355282847E0,3.096160511E0
1.322540225E1,-1.812740348E0,-1.516896379E0,8.484368384E-1,2.511343717E0
1.323543925E1,-1.123874025E0,-1.373086449E0,1.055049373E0,2.064361499E0
1.324547625E1,-6.052534783E-1,-1.203328330E0,1.938318660E0,2.360383458E0
1.325551325E1,-3.677764159E-1,-1.071084192E0,2.990304092E0,3.197561477E0
1.326554925E1,-3.196526617E-1,-1.166211374E0,4.163144454E0,4.335204556E0
1.327558625E1,-3.979252446E-1,-1.364636638E0,5.066529917E0,5.262157642E0
1.328562325E1,-4.058452982E-1,-1.703316139E0,5.367812381E0,5.646185087E0
1.329566025E1,-3.083704591E-1,-2.006949769E0,5.118974764E0,5.506981237E0
1.330569725E1,-2.699185842E-1,-2.329652923E0,4.685301982E0,5.239484082E0
1.331573400E1,-2.129485774E-1,-2.771332882E0,4.536759900E0,5.320509696E0
1.332577000E1,-1.631285459E-1,-3.276739891E0,4.629217243E0,5.673912893E0
1.333580700E1,-3.969323874E-2,-3.307373453E0,4.839860848E0,5.862128261E0
1.334584400E1,3.839153159E-1,-3.025693195E0,4.645155584E0,5.556948864E0
1.335588100E1,4.037204200E-1,-3.221435755E0,3.718167835E0,4.936133158E0
1.336591800E1,2.644110918E-2,-3.512829701E0,2.709608504E0,4.436513258E0
1.337595500E1,-7.693766356E-2,-3.653595571E0,2.361116790E0,4.350810556E0
1.338599100E1,6.554728746E-3,-3.967038782E0,2.661532112E0,4.777153216E0
1.339602800E1,-1.846807981E-1,-4.441304397E0,2.897048603E0,5.305863017E0
1.340606500E1,-2.280010647E-1,-4.734527351E0,3.138378981E0,5.684818058E0
1.341610200E1,2.754629141E-1,-4.800011489E0,3.280801367E0,5.820622623E0
1.342613900E1,1.371096057E0,-4.621372326E0,2.950904968E0,5.651975469E0
1.343617600E1,2.362686183E0,-4.272357871E0,2.528778682E0,5.498186010E0
1.344621200E1,2.889403954E0,-4.066175692E0,2.195960430E0,5.450200196E0
1.345624900E1,3.103801471E0,-4.032904450E0,1.607570322E0,5.336870264E0
1.346628600E1,3.237768783E0,-3.758837851E0,7.246314756E-1,5.013691201E0
1.347632300E1,3.313266862E0,-3.089850014E0,-3.554697812E-1,4.544366752E0
1.348636000E1,2.568014669E0,-3.022429864E0,-1.205778167E0,4.145320568E0
1.349639700E1,1.465298209E0,-3.202328809E0,-1.537986116E0,3.842838786E0
1.350643300E1,7.006116253E-1,-3.238642942E0,-1.362668465E0,3.582810363E0
1.351647000E1,3.747047818E-1,-3.149114469E0,-1.462255318E0,3.492207930E0
1.352650700E1,4.933535582E-1,-3.086833436E0,-2.015350463E0,3.719351541E0
1.353654400E1,9.978665274E-1,-2.793027806E0,-2.727536652E0,4.029416598E0
1.354658100E1,1.849395958E0,-2.458477024E0,-3.412411081E0,4.594444915E0
1.355661800E1,2.654148833E0,-2.000329405E0,-3.978340280E0,5.183918898E0
1.356665400E1,3.249602378E0,-1.589636619E0,-4.504010230E0,5.776934165E0
1.357669100E1,3.657798842E0,-1.353504416E0,-4.903690224E0,6.265592101E0
1.358672800E1,3.679482656E0,-1.279766203E0,-5.079043543E0,6.401021595E0
1.359676500E1,3.631175884E0,-1.343534767E0,-5.354661409E0,6.607792579E0
1.360680200E1,3.482758348E0,-1.324308245E0,-5.833068899E0,6.921567078E0
1.361683900E1,3.292032698E0,-1.473753429E0,-6.315491672E0,7.272885502E0
1.362687500E1,3.110230485E0,-1.660784954E0,-6.498285574E0,7.393203347E0
1.363691200E1,3.034272814E0,-1.885763593E0,-6.290835718E0,7.234468182E0
1.364694900E1,2.790218219E0,-2.288105532E0,-5.824606224E0,6.851772201E0
1.365698600E1,2.704330223E0,-2.559629762E0,-5.444879853E0,6.596349224E0
1.366702300E1,2.772960747E0,-2.639934252E0,-5.397401047E0,6.617439249E0
1.367706000E1,2.997787943E0,-2.599248448E0,-5.669535726E0,6.920004364E0
1.368709600E1,3.223276459E0,-2.398427581E0,-5.911222199E0,7.147343134E0
1.369713300E1,3.550135814E0,-1.979785944E0,-6.723548387E0,7.856788122E0
1.370717000E1,4.349684082E0,-1.407539998E0,-8.606863459E0,9.745717986E0
1.371720700E1,5.232817714E0,-8.649461594E-1,-1.118481372E1,1.237863365E1
1.372724400E1,5.925325683E0,-1.069574076E0,-1.273622270E1,1.408775503E1
1.373728100E1,6.308660370E0,-1.795037903E0,-1.202733551E1,1.369956774E1
1.374731700E1,6.195968737E0,-3.044957724E0,-1.059729835E1,1.264770843E1
1.375735400E1,6.476300043E0,-4.186266976E0,-8.603445761E0,1.155363892E1
1.376739100E1,6.358827142E0,-4.870159658E0,-6.319483566E0,1.020240218E1
1.377742800E1,5.765945202E0,-5.325328851E0,-5.074037157E0,9.346181280E0
1.378746500E1,5.016586509E0,-5.428723412E0,-5.252482485E0,9.067841548E0
1.379750200E1,4.518506062E0,-5.251379115E0,-6.699629767E0,9.637370941E0
1.380753800E1,4.479250195E0,-5.423452147E0,-8.677211895E0,1.117011736E1
1.381757500E1,5.081881782E0,-5.990830870E0,-1.015483720E1,1.283885881E1
1.382761200E1,6.174734573E0,-7.715040280E0,-1.101395457E1,1.479717503E1
1.383764900E1,7.244737031E0,-1.012722548E1,-1.028356366E1,1.614925980E1
1.384768600E1,7.328002551E0,-1.325454796E1,-7.618130867E0,1.695342387E1
1.385772300E1,6.004850155E0,-1.780157440E1,-2.611830779E0,1.896776045E1
1.386776000E1,5.642285362E0,-1.829926601E1,2.853045382E0,1.936074349E1
1.387779600E1,8.020678920E0,-1.681259272E1,6.309266726E0,1.966726750E1
1.388783300E1,1.204406440E1,-1.476957089E1,7.609366475E0,2.052077410E1
1.389787000E1,1.722092718E1,-1.181233924E1,7.136607980E0,2.206859453E1
1.390790700E1,2.045990107E1,-9.896967977E0,5.451552696E0,2.337256841E1
1.391794400E1,1.928779044E1,-9.020373287E0,4.281721310E0,2.171909602E1
1.392798000E1,1.464189460E1,-8.999637891E0,4.227082588E0,1.769877925E1
1.393801700E1,7.109797912E0,-1.089729443E1,5.148491508E0,1.399311320E1
1.394805400E1,-1.263095352E0,-1.161121256E1,7.933182355E0,1.411917311E1
1.395809100E1,-6.158980420E0,-9.372728257E0,1.124192230E1,1.587960616E1
1.396812800E1,-6.818779650E0,-6.472202314E0,1.284172518E1,1.591524629E1
1.397816500E1,-5.971622767E0,-4.752133902E0,1.276623529E1,1.487346021E1
1.398820200E1,-4.247781439E0,-3.877855879E0,1.132982934E1,1.270615781E1
1.399823800E1,-1.847910473E0,-2.999365522E0,8.336336764E0,9.050164490E0
1.400827500E1,3.176923826E-1,-2.766208967E0,5.135461573E0,5.841729715E0
1.401831200E1,1.894289418E0,-2.669541628E0,3.111170717E0,4.515990272E0
1.402834900E1,3.042187021E0,-2.423063947E0,2.730083407E0,4.751788734E0
1.403838600E1,3.720165828E0,-2.122839244E0,3.367453302E0,5.448469692E0
1.404842300E1,3.375292372E0,-1.987434686E0,4.169143990E0,5.720511938E0
1.405845900E1,2.144506102E0,-2.062687182E0,5.053578919E0,5.864490150E0
1.406849600E1,1.165710853E0,-1.892254879E0,5.764606190E0,6.178203205E0
1.407853300E1,3.091393679E-1,-1.746484378E0,5.739961345E0,6.007739265E0
1.408857000E1,-5.966814601E-1,-1.820663325E0,4.948069421E0,5.306056417E0
1.409860700E1,-1.010032244E0,-1.823644236E0,4.125527854E0,4.622317980E0
1.410864300E1,-9.675101227E-1,-1.685575687E0,3.578444524E0,4.072162379E0
1.411868000E1,-1.003253567E0,-1.566738045E0,3.093823782E0,3.610115153E0
1.412871700E1,-1.043632100E0,-1.597261096E0,2.722421508E0,3.324453313E0
1.413875400E1,-8.835511225E-1,-1.617045150E0,2.359127275E0,2.993489453E0
1.414879100E1,-9.147074264E-1,-1.525684159E0,2.291481714E0,2.900911973E0
1.415882800E1,-8.901339179E-1,-1.530961856E0,2.722927000E0,3.248155483E0
1.416886500E1,-9.053904730E-1,-1.587537761E0,3.272456513E0,3.748196857E0
1.417890100E1,-8.361290342E-1,-1.625449938E0,4.119552877E0,4.506874213E0
1.418893800E1,-3.691961199E-1,-1.559368799E0,4.519415889E0,4.795107590E0
1.419897500E1,1.598330551E-1,-1.570000207E0,3.709246738E0,4.030999705E0
1.420901200E1,6.374055630E-1,-1.930990344E0,2.227494464E0,3.016080428E0
1.421904900E1,9.921257311E-1,-1.773452906E0,7.815938079E-1,2.177231627E0
1.422908600E1,1.141300482E0,-1.421035956E0,3.959661350E-1,1.865127116E0
1.423912200E1,1.362018839E0,-1.103663124E0,1.201505753E0,2.125272614E0
1.424915900E1,1.255646292E0,-1.281758203E0,2.950552088E0,3.453304117E0
1.425919600E1,6.268519235E-1,-1.684572889E0,4.586364169E0,4.925998929E0
1.426923300E1,1.251929802E-1,-2.219994825E0,5.086476524E0,5.551242540E0
1.427927000E1,2.588848883E-1,-2.832429269E0,4.558506864E0,5.373049579E0
1.428930600E1,7.518466830E-1,-3.106197075E0,3.510593433E0,4.747420348E0
1.429934300E1,1.597207886E0,-3.258864368E0,2.490816804E0,4.401754008E0
1.430938021E1,2.387498842E0,-3.121225004E0,1.925319715E0,4.375963009E0
1.431941721E1,2.462697544E0,-2.807548197E0,1.859419255E0,4.171887587E0
1.432945421E1,2.049146785E0,-2.559435049E0,1.734401107E0,3.709158600E0
1.433949121E1,9.811177629E-1,-3.026203364E0,1.590012302E0,3.556492372E0
1.434952821E1,-2.735198843E-1,-3.622575507E0,1.650481868E0,3.990232678E0
1.435956421E1,-1.101516611E0,-4.073029213E0,2.103727620E0,4.714719049E0
1.436960121E1,-1.071057880E0,-4.722100849E0,2.706180282E0,5.546964316E0
1.437963821E1,-3.019075316E-1,-4.933247899E0,3.291684204E0,5.938288296E0
1.438967521E1,6.658323866E-1,-4.514494287E0,3.654203389E0,5.846126396E0
1.439971221E1,1.885254593E0,-3.709982610E0,3.480434664E0,5.425088138E0
1.440974821E1,2.828511634E0,-3.299488191E0,2.550090029E0,5.038854983E0
1.441978521E1,3.266296763E0,-3.066886829E0,1.101482112E0,4.613865214E0
1.442982221E1,3.657856729E0,-2.785012151E0,-5.214360173E-1,4.626889241E0
1.443985921E1,3.409016188E0,-2.656696465E0,-1.599485961E0,4.608446898E0
1.444989621E1,2.902673625E0,-2.459714879E0,-1.921450027E0,4.262356351E0
1.445993321E1,2.508050888E0,-2.271706869E0,-1.677624058E0,3.776955631E0
1.446996921E1,2.158149410E0,-2.188115367E0,-1.389893101E0,3.373019503E0
1.448000621E1,1.971417409E0,-2.158394262E0,-1.452598642E0,3.264229649E0
1.449004321E1,1.928325768E0,-2.107960419E0,-1.933226320E0,3.449536403E0
1.450008021E1,2.013384045E0,-2.223971224E0,-2.692113050E0,4.030786027E0
1.451011721E1,2.091364267E0,-2.264177264E0,-3.280993155E0,4.501690712E0
1.452015421E1,2.326796558E0,-2.091939925E0,-3.661746297E0,4.816490508E0
1.453019021E1,2.698005289E0,-1.774733300E0,-3.892158169E0,5.057450547E0
1.454022721E1,3.038458251E0,-1.408453918E0,-4.116553255E0,5.306786380E0
1.455026421E1,3.162619198E0,-1.089141929E0,-4.192836031E0,5.363605533E0
1.456030121E1,3.175059149E0,-8.194326753E-1,-4.057919131E0,5.217200225E0
1.457033821E1,3.050973632E0,-8.666471145E-1,-3.837629959E0,4.978646505E0
1.458037521E1,2.591829793E0,-9.924590224E-1,-3.777225590E0,4.687215564E0
1.459041221E1,2.130841743E0,-1.130494754E0,-4.006048481E0,4.676208866E0
1.460044821E1,1.652973951E0,-1.290811885E0,-4.160141909E0,4.658894602E0
1.461048521E1,1.170851140E0,-1.444213734E0,-4.096607233E0,4.498759443E0
1.462052221E1,9.832332855E-1,-1.614309822E0,-3.908284789E0,4.341363137E0
1.463055921E1,7.286858618E-1,-1.776521671E0,-3.466843981E0,3.963082074E0
1.464059621E1,5.070372123E-1,-2.042796417E0,-3.175797653E0,3.809959930E0
1.465063221E1,3.118799579E-1,-2.166236986E0,-3.275899646E0,3.939717030E0
1.466066921E1,1.812818116E-1,-2.187877531E0,-3.618569872E0,4.232460172E0
1.467070621E1,2.547924221E-2,-2.166734584E0,-4.238657736E0,4.760420922E0
1.468074321E1,-3.006228983E-2,-2.235744300E0,-5.043032881E0,5.516487737E0
1.469078021E1,1.789692378E-1,-2.226201206E0,-5.874974139E0,6.285166898E0
1.470081721E1,1.775471950E-1,-2.182697337E0,-6.653378291E0,7.004508074E0
1.471085321E1,-5.308219314E-2,-2.067448862E0,-7.313006782E0,7.599817808E0
1.472089021E1,-3.849952966E-1,-2.113007005E0,-7.839905232E0,8.128784289E0
1.473092721E1,-6.938955134E-1,-2.144330100E0,-7.813269995E0,8.131840540E0
1.474096421E1,-3.772535831E-1,-1.947547320E0,-7.518030043E0,7.775348003E0
1.475100121E1,5.599995375E-1,-1.672491372E0,-7.640411682E0,7.841346667E0
1.476103821E1,1.672837527E0,-1.431588280E0,-8.171563396E0,8.462994667E0
1.477107421E1,2.977219777E0,-1.377986269E0,-8.540242038E0,9.148683939E0
1.478111121E1,3.901939976E0,-1.600732880E0,-8.274734008E0,9.287556419E0
1.479114821E1,4.410082896E0,-2.328494005E0,-7.805280944E0,9.262457886E0
1.480118521E1,4.434285107E0,-3.279815234E0,-6.697662764E0,8.676333262E0
1.481122221E1,3.889177258E0,-4.155174699E0,-5.321412971E0,7.791573175E0
1.482125921E1,3.698355129E0,-4.729922084E0,-4.676302532E0,7.610374429E0
1.483129521E1,5.055606149E0,-4.151356468E0,-5.716143297E0,8.687186440E0
1.484133221E1,7.331256527E0,-3.107198703E0,-8.968247699E0,1.199297598E1
1.485136921E1,8.668737525E0,-3.903112927E0,-1.259007155E1,1.577628608E1
1.486140621E1,7.609631354E0,-8.439282843E0,-1.400101521E1,1.803209392E1
1.487144321E1,5.505235983E0,-1.280511927E1,-1.217945083E1,1.850993585E1
1.488148021E1,4.470253669E0,-1.567043036E1,-8.801265253E0,1.852047045E1
1.489151621E1,5.481658255E0,-1.704184801E1,-5.735229194E0,1.879803221E1
1.490155321E1,9.082862481E0,-1.725215131E1,-3.564112998E0,1.982014170E1
1.491159021E1,1.409744515E1,-1.679918389E1,-2.237113134E0,2.204439190E1
1.492162721E1,1.778168685E1,-1.689328079E1,-1.491187926E0,2.457223972E1
1.493166421E1,1.832661461E1,-1.820702502E1,9.783853590E-2,2.583350799E1
1.494170121E1,1.529246868E1,-1.823240661E1,4.328201412E0,2.418705390E1
1.495173821E1,1.033566118E1,-1.634926169E1,9.734902455E0,2.165392749E1
1.496177421E1,5.407440131E0,-1.305142037E1,1.416838357E1,2.000807525E1
1.497181121E1,9.503526378E-1,-9.403799191E0,1.591560060E1,1.851056325E1
1.498184821E1,-1.898310841E0,-6.557740647E0,1.505802457E1,1.653334964E1
1.499188521E1,-2.082571224E0,-5.189634272E0,1.226885008E1,1.348310383E1
1.500192221E1,-1.441446832E0,-4.516410420E0,9.057459837E0,1.022317518E1
1.501195821E1,-7.059010166E-1,-4.475946518E0,6.706804301E0,8.094048270E0
1.502199521E1,2.561805511E-1,-4.304907859E0,5.891108361E0,7.300891581E0
1.503203221E1,1.060874954E0,-3.842605355E0,6.178191447E0,7.352626819E0
1.504206921E1,1.356482695E0,-3.569433380E0,6.529072334E0,7.563708448E0
1.505210621E1,9.051559997E-1,-3.547748396E0,6.936560115E0,7.843576498E0
1.506214321E1,3.505347311E-2,-3.461082720E0,7.533029906E0,8.290166578E0
1.507217921E1,-5.502984220E-1,-3.291956100E0,7.877677660E0,8.555560100E0
1.508221621E1,-5.401119876E-1,-2.980377274E0,7.536225994E0,8.122134687E0
1.509225321E1,-3.730172753E-1,-2.658043079E0,6.583713394E0,7.109825382E0
1.510229021E1,-8.237265050E-2,-2.421813228E0,5.518866427E0,6.027424923E0
1.511232721E1,1.462534815E-1,-2.113502995E0,4.361019495E0,4.848378700E0
1.512236421E1,-6.360601187E-2,-1.930277569E0,3.257882328E0,3.787322864E0
1.513240021E1,-4.123719603E-1,-1.801758692E0,2.577259701E0,3.171537890E0
1.514243721E1,-7.683405089E-1,-1.763187534E0,2.042797001E0,2.805743575E0
1.515247421E1,-1.257163060E0,-1.742063883E0,1.953454177E0,2.903657823E0
1.516251121E1,-1.514967383E0,-1.709592540E0,2.864401552E0,3.663690636E0
1.517254821E1,-1.572552516E0,-1.709767957E0,4.270179783E0,4.861138063E0
1.518258521E1,-1.284140359E0,-1.708836495E0,5.307118868E0,5.721420217E0
1.519262121E1,-4.716510326E-1,-1.693875225E0,5.730381267E0,5.994075195E0
1.520265821E1,5.467263579E-1,-1.235610223E0,5.052450407E0,5.229999756E0
1.521269521E1,9.458169526E-1,-1.311055677E0,3.216079414E0,3.599528232E0
1.522273221E1,8.737470961E-1,-1.422653296E0,1.424115100E0,2.194420244E0
1.523276921E1,7.583277369E-1,-1.351541213E0,7.872816870E-1,1.738256904E0
1.524280621E1,4.882828528E-1,-1.386704029E0,1.452379079E0,2.066584912E0
1.525284221E1,1.456529725E-1,-1.535065432E0,2.576714449E0,3.002848318E0
1.526287921E1,-2.262685347E-1,-1.797593721E0,3.536290777E0,3.973398179E0
1.527291621E1,-4.056494164E-1,-1.639682645E0,3.757439782E0,4.119643715E0
1.528295321E1,-4.479926133E-1,-2.025985379E0,3.188574696E0,3.804250613E0
1.529299021E1,1.383310890E-1,-2.507051014E0,2.566650513E0,3.590561952E0
1.530302721E1,1.600443735E0,-2.025140457E0,1.834396681E0,3.166642575E0
1.531306338E1,3.167015135E0,-1.457022645E0,9.037773724E-1,3.601348829E0
1.532310038E1,3.863131421E0,-9.080094409E-1,-3.949804406E-1,3.988016433E0
1.533313738E1,3.302305087E0,-9.094259289E-1,-1.408474967E0,3.703522126E0
1.534317438E1,1.750410199E0,-1.119532175E0,-1.447381025E0,2.532232214E0
1.535321138E1,2.604624671E-1,-1.275041506E0,-5.688181619E-1,1.420255484E0
1.536324838E1,-7.972117209E-1,-1.909925165E0,7.226516815E-1,2.192164710E0
1.537328438E1,-9.389593381E-1,-2.466018178E0,1.929532195E0,3.268942456E0
1.538332138E1,3.107923758E-1,-2.341907810E0,2.384529773E0,3.356651058E0
1.539335838E1,1.630111923E0,-2.054300521E0,2.049002213E0,3.328036295E0
1.540339538E1,2.318309324E0,-1.964798068E0,1.557572096E0,3.414823627E0
1.541343238E1,2.812094407E0,-1.819749405E0,1.412096879E0,3.635021382E0
1.542346938E1,2.790300080E0,-1.876931666E0,1.514951449E0,3.688322777E0
1.543350538E1,2.304772435E0,-2.067554989E0,1.531929570E0,3.454499649E0
1.544354238E1,1.496431124E0,-2.372386129E0,1.427219971E0,3.147138208E0
1.545357938E1,9.021435142E-1,-2.596672457E0,1.280225648E0,3.032416278E0
1.546361638E1,6.136173356E-1,-2.646971668E0,9.020710087E-1,2.862990980E0
1.547365338E1,1.364705050E-1,-2.847528826E0,5.321890104E-1,2.900046510E0
1.548369038E1,-3.093814427E-1,-2.880675815E0,5.045667636E-1,2.940849817E0
1.549372638E1,1.644430000E-1,-2.409823950E0,2.305989460E-1,2.426410692E0
1.550376338E1,1.114306810E0,-1.777324640E0,-8.170420412E-1,2.251248596E0
1.551380038E1,1.462113231E0,-1.504410673E0,-2.160367259E0,3.011347417E0
1.552383738E1,1.456705726E0,-1.513158400E0,-2.799845660E0,3.500110803E0
1.553387438E1,1.551251695E0,-1.649056024E0,-2.567939240E0,3.423460169E0
1.554391138E1,1.683273638E0,-1.803837816E0,-1.792458111E0,3.049614252E0
1.555394738E1,1.827835520E0,-1.801229081E0,-7.654671872E-1,2.677937435E0
1.556398438E1,1.859991113E0,-1.974643025E0,3.044142695E-1,2.729734431E0
1.557402138E1,1.813679411E0,-2.308015447E0,1.492928642E0,3.293205770E0
1.558405838E1,1.494567617E0,-2.646869342E0,2.490480005E0,3.929648881E0
1.559409538E1,1.081240221E0,-2.904337158E0,2.945657676E0,4.275646605E0
1.560413238E1,9.758207703E-1,-3.023994286E0,2.466451457E0,4.022455768E0
1.561416838E1,1.109970515E0,-2.873195472E0,1.320015365E0,3.351078532E0
1.562420538E1,1.373201054E0,-2.399245606E0,-2.908446361E-1,2.779685453E0
1.563424238E1,1.403679666E0,-2.161325179E0,-1.684342509E0,3.078742084E0
1.564427938E1,1.295627798E0,-1.900653089E0,-2.740301124E0,3.577762402E0
1.565431638E1,1.309337765E0,-1.614341251E0,-3.670887249E0,4.218515883E0
1.566435338E1,1.371090794E0,-1.322649536E0,-4.468480209E0,4.857633903E0
1.567438938E1,1.336969952E0,-1.265629389E0,-5.109899885E0,5.431425526E0
1.568442638E1,1.025223895E0,-1.470623853E0,-5.370415562E0,5.661729582E0
1.569446338E1,9.677668154E-1,-1.570655972E0,-5.279919375E0,5.592949257E0
1.570450038E1,1.069449896E0,-1.570627028E0,-4.912803109E0,5.267468722E0
1.571453738E1,1.153810599E0,-1.576028101E0,-4.525134466E0,4.928690030E0
1.572457438E1,1.065489576E0,-1.481104403E0,-4.510400652E0,4.865454997E0
1.573461038E1,7.019494683E-1,-1.495942151E0,-4.755101364E0,5.034040620E0
1.574464738E1,5.082639581E-1,-1.619586642E0,-5.030499374E0,5.309172920E0
1.575468438E1,2.695145416E-1,-1.664878297E0,-5.626155233E0,5.873506664E0
1.576472138E1,-8.608797133E-2,-1.830039920E0,-6.440218629E0,6.695735452E0
1.577475838E1,-1.730962944E-1,-1.934952856E0,-6.983575237E0,7.248746648E0
1.578479538E1,-1.945403731E-1,-2.160948764E0,-7.101948025E0,7.425982175E0
1.579483138E1,-1.513083994E-2,-2.317619207E0,-6.747568164E0,7.134512167E0
1.580486838E1,6.993942350E-1,-2.224618511E0,-6.282133892E0,6.700991423E0
1.581490538E1,1.646466585E0,-1.764532979E0,-6.836322466E0,7.249809219E0
1.582494238E1,2.792695100E0,-1.183011010E0,-8.456362560E0,8.983803688E0
1.583497938E1,3.901455241E0,-8.368736771E-1,-1.023536272E1,1.098564338E1
1.584501638E1,4.872809324E0,-1.086948419E0,-1.159248276E1,1.262186136E1
1.585505238E1,5.300510929E0,-1.869999646E0,-1.107273780E1,1.241764217E1
1.586508938E1,4.923981816E0,-3.019748915E0,-9.378882451E0,1.101489521E1
1.587512638E1,4.050015450E0,-4.407486148E0,-7.599726756E0,9.673903351E0
1.588516338E1,3.340189782E0,-5.159151567E0,-6.210116075E0,8.737233792E0
1.589520038E1,3.326364625E0,-5.035268948E0,-6.320831934E0,8.739081836E0
1.590523738E1,3.991877754E0,-4.520616907E0,-8.008465841E0,1.002529752E1
1.591527338E1,5.321346313E0,-4.047241823E0,-1.065281766E1,1.257693990E1
1.592531038E1,5.770985502E0,-5.563945536E0,-1.281804630E1,1.511833571E1
1.593534738E1,4.750479140E0,-8.853505447E0,-1.332385501E1,1.668762185E1
1.594538438E1,3.715642422E0,-1.309275200E1,-1.192851991E1,1.809739596E1
1.595542138E1,3.802331488E0,-1.611970001E1,-1.019904332E1,1.945052538E1
1.596545838E1,6.326447015E0,-1.766322227E1,-8.919908182E0,2.077445823E1
1.597549438E1,1.014786381E1,-2.048325251E1,-6.536000115E0,2.377524071E1
1.598553138E1,1.348372958E1,-2.226791161E1,-2.015179140E0,2.610999421E1
1.599556838E1,1.528480649E1,-2.270938575E1,4.200063774E0,2.769444071E1
1.600560538E1,1.452741547E1,-2.126681216E1,1.083992272E1,2.794328227E1
1.601564238E1,1.270046230E1,-1.645606810E1,1.606356673E1,2.627055569E1
1.602567938E1,1.083637814E1,-1.139331022E1,1.757848442E1,2.358469256E1
1.603571538E1,8.516822770E0,-7.931653892E0,1.581235983E1,1.963359689E1
1.604575238E1,6.470732909E0,-5.649028371E0,1.199854265E1,1.475625060E1
1.605578938E1,4.417502428E0,-5.181981436E0,6.808836460E0,9.629512617E0
1.606582638E1,1.447582315E0,-6.313599513E0,3.288814391E0,7.264525688E0
1.607586338E1,-9.183864945E-1,-6.607184118E0,3.359902500E0,7.469086995E0
1.608590038E1,-1.937435145E0,-6.209277000E0,5.587704527E0,8.575034559E0
1.609593638E1,-2.082996901E0,-5.531556054E0,7.307361295E0,9.398644454E0
1.610597338E1,-1.272396226E0,-4.454828129E0,8.168800002E0,9.391154311E0
1.611601038E1,1.017550009E-1,-3.463003530E0,8.441505954E0,9.124788781E0
1.612604738E1,1.243151962E0,-2.875650718E0,8.752756752E0,9.296534010E0
1.613608438E1,1.719124086E0,-2.447420524E0,9.400101412E0,9.864439234E0
1.614612138E1,1.661241914E0,-2.205271536E0,9.587607000E0,9.977231842E0
1.615615738E1,1.602628255E0,-2.147852463E0,8.986833658E0,9.377892446E0
1.616619438E1,1.560612502E0,-1.914766075E0,7.462386770E0,7.860601555E0
1.617623138E1,1.587481043E0,-1.771570687E0,5.224305922E0,5.740377263E0
1.618626838E1,1.587467594E0,-1.743896400E0,3.001529576E0,3.817120356E0
1.619630538E1,1.079451558E0,-1.556152831E0,1.728930452E0,2.564376690E0
1.620634238E1,3.800748646E-1,-1.448993833E0,1.591677589E0,2.185744171E0
1.621637838E1,-2.403755271E-1,-1.566863176E0,2.428365617E0,2.899965548E0
1.622641538E1,-8.952069622E-1,-1.694286284E0,3.831776311E0,4.284216523E0
1.623645238E1,-1.248273538E0,-1.753528519E0,5.357323061E0,5.773556917E0
1.624648938E1,-1.262816733E0,-1.723642230E0,6.593706871E0,6.931278304E0
1.625652638E1,-1.174576986E0,-1.782842950E0,7.394497088E0,7.696541253E0
1.626656338E1,-6.947591472E-1,-1.883477039E0,7.200004077E0,7.474639439E0
1.627659938E1,8.392216265E-2,-1.965145685E0,5.524869763E0,5.864556794E0
1.628663638E1,5.522560698E-1,-2.014005019E0,2.928053757E0,3.596484643E0
1.629667338E1,7.011156553E-1,-1.795008667E0,3.938684464E-1,1.966914240E0
1.630671038E1,8.532368177E-1,-1.658066876E0,-1.114153906E0,2.172219546E0
1.631674708E1,6.789909607E-1,-1.590193566E0,-1.521082108E0,2.302918818E0
1.632678408E1,9.762277365E-2,-1.710789465E0,-7.150960556E-1,1.856796480E0
1.633682008E1,-4.864222687E-1,-2.003185331E0,1.601440393E0,2.610358103E0
1.634685708E1,-1.070828669E0,-2.383736744E0,4.119939670E0,4.878809054E0
1.635689408E1,-1.531891564E0,-3.009918284E0,5.823888770E0,6.732308686E0
1.636693108E1,-1.366442258E0,-3.641048615E0,6.772902396E0,7.810032415E0
1.637696808E1,-7.690222943E-1,-4.210468017E0,6.787289470E0,8.024134505E0
1.638700508E1,-1.284118724E-1,-4.840973573E0,6.086259184E0,7.777793106E0
1.639704108E1,9.914369291E-1,-5.157278119E0,4.922163917E0,7.197788717E0
1.640707808E1,2.430483479E0,-5.119951833E0,3.520113870E0,6.671758267E0
1.641711508E1,3.106239175E0,-4.673164916E0,2.250366286E0,6.045770469E0
1.642715208E1,2.919436423E0,-4.025835459E0,1.389418745E0,5.163423730E0
1.643718908E1,2.008351346E0,-3.889898220E0,7.030364656E-1,4.433852000E0
