"Time (s)","Linear Acceleration x (m/s^2)","Linear Acceleration y (m/s^2)","Linear Acceleration z (m/s^2)","Absolute acceleration (m/s^2)"
2.708658332E-2,-5.091116765E-2,-3.464113934E-2,2.974887908E-2,6.838823972E-2
3.706458333E-2,-2.642214684E-2,-3.800396443E-2,1.552669644E-2,4.882119886E-2
4.704258335E-2,-1.871643252E-2,6.836578245E-3,-1.057217520E-1,1.075831423E-1
5.701958336E-2,-7.770173019E-2,-8.555801259E-3,4.216719568E-2,8.881910268E-2
6.699758332E-2,-6.388856029E-2,-1.147767319E-3,-7.968000770E-2,1.021370116E-1
7.697558333E-2,-8.517821766E-2,-6.735732048E-3,-1.591436684E-2,8.691355431E-2
8.695358335E-2,-4.594995135E-2,-7.201407957E-3,-1.816086709E-2,4.993070597E-2
9.693158331E-2,-8.251619280E-3,1.995819155E-3,-4.270981729E-2,4.354539020E-2
1.069085833E-1,-8.339983042E-3,-3.253803749E-2,-6.934213042E-3,3.429814151E-2
1.168865833E-1,2.410102607E-2,-4.806401673E-2,-5.737755775E-2,7.863328364E-2
1.268645833E-1,4.878600169E-2,-3.659904753E-2,-1.621432900E-2,6.310680396E-2
1.368425833E-1,3.950916108E-2,-2.885696399E-2,3.991894126E-3,4.908801685E-2
1.468195833E-1,1.938001156E-2,-2.448779654E-2,-3.133581340E-2,4.423991669E-2
1.567975833E-1,-5.366397282E-2,-7.347761937E-3,-4.211515546E-2,6.861120830E-2
1.667755833E-1,-6.945534714E-2,1.319003943E-3,-3.568146408E-2,7.809578667E-2
1.767535833E-1,-8.569211483E-2,2.228277954E-2,-3.133990645E-2,9.392470679E-2
1.867305833E-1,-9.276141683E-2,4.494160814E-3,-3.196088076E-3,9.292520063E-2
1.967085833E-1,-8.858931882E-2,-1.208966654E-2,-2.115581095E-2,9.187924566E-2
2.066865833E-1,-4.053394501E-2,-1.365523112E-2,-2.160136878E-2,4.791748291E-2
2.166645833E-1,1.920150931E-2,-1.800560068E-2,-1.126992345E-2,2.863408441E-2
2.266415833E-1,4.885472017E-2,-4.482082203E-2,-4.830969572E-3,6.647577030E-2
2.366195833E-1,7.298136892E-2,-5.222575420E-2,-4.884003818E-2,1.021722024E-1
2.465975833E-1,2.969177964E-2,-3.496385540E-2,-1.381521642E-2,4.790546073E-2
2.565755833E-1,-9.652194165E-3,-4.538138271E-3,-2.803798378E-2,2.999813470E-2
2.665525833E-1,-4.573230245E-2,-8.449185505E-3,4.592987895E-3,4.673251289E-2
2.765305833E-1,-8.625194918E-2,-2.909592781E-3,-2.025417030E-2,8.864590167E-2
2.865085833E-1,-9.272346474E-2,6.301768147E-3,-2.998276770E-2,9.765408110E-2
2.964865833E-1,-8.594405673E-2,3.214835711E-3,-4.683619738E-3,8.613159902E-2
3.064645833E-1,-4.415370497E-2,4.530861229E-3,-2.862913728E-2,5.281766624E-2
3.164415833E-1,1.047944385E-3,-2.802706593E-2,-2.802570462E-2,3.964914541E-2
3.264195833E-1,2.762786784E-2,-3.109915649E-2,-2.592596948E-2,4.901645141E-2
3.363975833E-1,3.892632615E-2,-2.503172464E-2,-2.607507348E-2,5.312019920E-2
3.463755833E-1,3.852326113E-2,-1.585736106E-2,-1.544717431E-2,4.443098853E-2
3.563525833E-1,2.157457666E-2,-3.544165058E-2,-1.559744775E-2,4.432666613E-2
3.663305833E-1,-1.573031888E-2,-2.414599938E-2,-3.445998073E-2,4.492173738E-2
3.763085833E-1,-6.339462589E-2,1.398396798E-2,-2.742578030E-2,7.047413268E-2
3.862865833E-1,-7.511281150E-2,1.676146394E-2,9.994645715E-3,7.760653367E-2
3.962635833E-1,-8.912456746E-2,1.043000747E-2,-7.218153834E-2,1.151614000E-1
4.062415833E-1,-4.098965324E-2,-2.003459821E-2,1.553722143E-2,4.819690911E-2
4.162195833E-1,-5.023919694E-3,-8.451451301E-3,-4.418682396E-2,4.526745200E-2
4.261975833E-1,1.969908224E-2,-1.093610682E-2,-1.469697654E-2,2.690080655E-2
4.361745833E-1,5.286903472E-2,-3.190902783E-2,7.233005762E-4,6.175632804E-2
4.461525833E-1,5.723018051E-2,-3.735029140E-2,-4.103809834E-2,7.971488784E-2
4.561305833E-1,1.497019340E-2,-3.751447939E-2,-2.038397849E-2,4.524322527E-2
4.661085833E-1,-6.071584281E-3,-1.411380814E-2,-1.933791161E-2,2.469855342E-2
4.760855833E-1,-3.858726987E-2,1.288566445E-3,-2.652355492E-2,4.684161361E-2
4.860635833E-1,-6.639406479E-2,3.089750977E-4,-2.457760155E-2,7.079778106E-2
4.960415833E-1,-9.364631069E-2,1.689680414E-2,-3.430736840E-2,1.011539867E-1
5.060195833E-1,-7.881041709E-2,2.292027680E-2,-3.430736840E-2,8.895738563E-2
5.159975833E-1,-4.274126435E-2,1.067014073E-2,-2.637269676E-2,5.134380893E-2
5.259745833E-1,-2.097517995E-2,-2.643601571E-2,-7.845910907E-2,8.540874016E-2
5.359525833E-1,3.174757616E-2,-4.103779227E-2,5.850548565E-2,7.819783141E-2
5.459305833E-1,7.447551982E-2,-4.315939052E-2,-2.696560442E-2,9.020243823E-2
5.559085833E-1,6.424897718E-2,-6.189323450E-4,-7.935782611E-2,1.021076819E-1
5.658855833E-1,-6.169249227E-2,-6.703575103E-2,3.096334577E-2,9.622101797E-2
5.758635833E-1,1.343007335E-2,6.712987293E-3,-1.484491110E-2,2.111403453E-2
5.858415833E-1,-5.819642833E-2,9.061991978E-3,-1.499576926E-2,6.077678064E-2
5.958195833E-1,-6.133048110E-2,3.710762738E-2,-4.807814598E-2,8.631287299E-2
6.057965833E-1,-1.808333484E-1,-1.726659028E-2,4.165556431E-3,1.817035688E-1
6.157745833E-1,-3.576131740E-2,5.735200359E-3,-3.340397358E-2,4.927057739E-2
6.257525833E-1,-1.395781768E-2,-1.856573196E-3,-2.262287736E-2,2.664699079E-2
6.357305833E-1,5.850882496E-2,-2.506193373E-2,2.318187118E-2,6.774055116E-2
6.457085834E-1,1.447243775E-2,-3.799960643E-2,-8.623649061E-2,9.534229835E-2
6.556855833E-1,6.551708751E-2,-4.712983267E-2,2.153646469E-2,8.353160596E-2
6.656635833E-1,6.034668250E-2,-1.296792747E-2,-8.803509414E-2,1.075177522E-1
6.756415833E-1,3.278770903E-2,-2.832634287E-2,4.937564313E-2,6.569147356E-2
6.856195834E-1,-7.767778401E-2,-5.993021457E-3,-8.399583757E-2,1.145646331E-1
6.955965833E-1,-9.719654817E-2,-3.952781735E-3,1.509575665E-2,9.844122779E-2
7.055745833E-1,-1.226860413E-1,1.460948758E-2,-6.334113300E-2,1.388430804E-1
7.155525833E-1,-6.904778707E-2,3.884067815E-3,4.317584038E-3,6.929158978E-2
7.255305834E-1,-7.220364356E-2,4.441257217E-3,-3.519789934E-2,8.044863595E-2
7.355075833E-1,-1.269026809E-2,-1.916733279E-2,-8.699487448E-3,2.457866214E-2
7.454855833E-1,3.371149373E-2,-3.472927242E-2,-2.830812514E-2,5.607082236E-2
7.554635833E-1,9.665035428E-2,-2.747531261E-2,-5.703958869E-3,1.006415368E-1
7.654415834E-1,6.956064727E-2,-4.013443857E-2,-1.633419693E-2,8.195280835E-2
7.754195833E-1,2.877593894E-2,-2.729229933E-2,2.375723720E-3,3.973120093E-2
7.853965833E-1,-1.152412201E-2,1.391358669E-3,-4.073696673E-2,4.235849059E-2
7.953745833E-1,-5.054335037E-2,2.098362416E-2,-6.758211851E-3,5.514178250E-2
8.053525834E-1,-8.180285761E-2,8.927638493E-3,-2.232583880E-2,8.526343484E-2
8.153305833E-1,-9.807462637E-2,2.392246215E-2,-1.005077899E-2,1.014491729E-1
8.253075833E-1,-8.535103943E-2,2.184468148E-2,-2.965766251E-2,9.296002897E-2
8.352855833E-1,-4.564134627E-2,-3.271339000E-3,-7.351704240E-3,4.634524467E-2
8.452635834E-1,9.440754508E-3,-1.397424242E-2,-1.578748226E-5,1.686438691E-2
8.552415833E-1,4.980620834E-2,-2.393941908E-2,-2.471267223E-2,6.053486883E-2
8.652185833E-1,4.286559534E-2,-2.262698868E-2,-2.366660535E-2,5.394022701E-2
8.751965833E-1,4.361306136E-2,-2.599692636E-2,-1.139271498E-2,5.203588431E-2
8.851745834E-1,2.859834118E-2,-2.660489517E-2,-2.800874770E-2,4.806428521E-2
8.951525833E-1,-1.457309094E-2,-2.100082319E-3,-2.366894424E-2,2.787479591E-2
9.051295833E-1,-7.164046076E-2,1.396341593E-2,-1.513785660E-2,7.454184935E-2
9.151087917E-1,-8.854143561E-2,1.546978202E-2,-2.232291520E-2,9.261324159E-2
9.250867917E-1,-7.913035115E-2,1.840072628E-2,-4.462594986E-2,9.269128655E-2
9.350647916E-1,-4.965301129E-2,5.611787564E-3,-6.903222799E-3,5.044371294E-2
9.450417917E-1,-2.654949052E-2,-6.222150084E-3,-2.187092543E-2,3.495608642E-2
9.550197917E-1,-7.874753668E-3,-1.837254544E-2,-2.336664319E-2,3.074999488E-2
9.649977917E-1,4.660069163E-2,-2.857756301E-2,-1.977352917E-2,5.813169552E-2
9.749757916E-1,6.852124530E-2,-2.855416044E-2,-1.722999036E-2,7.620612642E-2
9.849537917E-1,5.652725383E-2,-3.591181240E-2,-2.501555800E-2,7.148962748E-2
9.949307917E-1,5.882033423E-3,-2.560160433E-2,-1.334159195E-2,2.946249374E-2
1.004908792E0,-2.365887607E-2,-1.512928221E-2,-2.756318986E-2,3.934929519E-2
1.014886792E0,-5.652517989E-2,7.566644233E-3,-2.382214129E-2,6.180489044E-2
1.024864792E0,-8.704098525E-2,2.608685471E-2,-4.013704240E-2,9.933599184E-2
1.034841792E0,-8.568479667E-2,2.812247604E-2,7.912452221E-3,9.052825493E-2
1.044819792E0,-2.781133336E-2,-1.437044609E-3,-2.786139786E-2,3.939280203E-2
1.054797792E0,1.742948777E-2,-3.015549811E-2,-2.711120009E-2,4.413794604E-2
1.064775792E0,1.464867763E-2,-2.781544697E-2,-3.998267591E-2,5.086154952E-2
1.074752792E0,1.716512967E-3,-2.756108852E-2,-1.273698986E-2,3.041037533E-2
1.084730792E0,2.831145074E-2,-2.294269265E-2,-1.977177501E-2,4.145875632E-2
1.094708792E0,4.707820358E-2,-5.267668873E-2,-4.117726207E-2,8.177259749E-2
1.104686792E0,1.362813407E-2,-3.398587204E-2,-3.144866467E-2,4.826783655E-2
1.114664792E0,-7.068758388E-2,2.469651930E-2,-8.398355842E-3,7.534709657E-2
1.124641792E0,-9.379030751E-2,2.427701355E-2,-2.067224622E-2,9.906228815E-2
1.134619792E0,-5.360218420E-2,1.277214624E-2,-4.522002697E-2,7.128234501E-2
1.144597792E0,-4.461880986E-2,-6.617070115E-3,-2.396247447E-2,5.107664821E-2
1.154575792E0,-4.169522031E-2,7.923621316E-3,-1.052498817E-5,4.244143355E-2
1.164552792E0,-1.243459744E-2,-5.971437008E-3,-3.338994026E-2,3.612707273E-2
1.174530792E0,1.125141678E-2,-2.304646245E-2,-2.021616340E-2,3.265619503E-2
1.184508792E0,5.887505252E-2,-2.831417335E-2,-3.652989507E-2,7.484916470E-2
1.194486792E0,3.527627030E-2,-2.120744004E-2,-1.542437017E-2,4.395545421E-2
1.204463792E0,-4.675821927E-3,-1.016982464E-2,-2.859814703E-2,3.071062777E-2
1.214441792E0,-3.861835148E-2,-9.218144612E-3,-2.949452519E-2,4.945986532E-2
1.224419792E0,-3.818466623E-2,-9.010257823E-3,-1.796849370E-2,4.315229133E-2
1.234397792E0,-4.800691959E-2,1.880518458E-2,-1.407541752E-2,5.344545512E-2
1.244375792E0,-6.519522570E-2,2.648366595E-2,-2.605051517E-2,7.503620031E-2
1.254352792E0,-5.380258381E-2,1.251231059E-3,-2.245740116E-2,5.831482205E-2
1.264330792E0,-3.627836430E-3,-1.316019579E-2,-2.574821413E-2,2.914313781E-2
1.274308792E0,1.003257039E-2,-2.002530206E-2,-1.257502198E-2,2.568650169E-2
1.284286792E0,8.340751060E-3,-1.340486065E-2,-1.242650270E-2,2.009169945E-2
1.294263792E0,1.834071237E-2,-1.860150504E-2,-2.679486573E-2,3.742141833E-2
1.304241792E0,2.150652055E-2,-2.154807690E-2,-1.257326782E-2,3.293838350E-2
1.314219792E0,3.230233188E-3,-1.582416440E-2,-2.933957398E-2,3.349103144E-2
1.324197792E0,-2.839557299E-2,8.697591671E-3,-1.631724000E-2,3.388523259E-2
1.334174792E0,-5.403032372E-2,-5.386939282E-3,-3.248362184E-2,6.327306444E-2
1.344152792E0,-6.497870970E-2,7.480050623E-3,-4.176432252E-2,7.760439747E-2
1.354130792E0,-4.770309735E-2,-4.182855967E-3,-2.065821290E-2,5.215211923E-2
1.364108792E0,-3.822283759E-2,1.754813371E-3,-2.125813723E-2,4.377182977E-2
1.374085792E0,-1.670206902E-2,9.976519346E-3,-9.431558847E-3,2.162046137E-2
1.384063792E0,4.366408859E-3,-2.102085447E-2,-1.945836425E-2,2.897533069E-2
1.394041792E0,1.053609560E-2,-1.111725630E-2,-2.304972410E-2,2.767476250E-2
1.404019792E0,3.781560186E-2,-1.154116116E-2,-2.050501585E-2,4.453845327E-2
1.413997792E0,-1.814950842E-2,-1.070251512E-2,-2.858762205E-2,3.551338649E-2
1.423974792E0,-2.655309021E-2,-9.682897758E-3,-3.322680295E-2,4.362161784E-2
1.433952792E0,-4.857564696E-3,-1.256016640E-2,-2.873555660E-2,3.173461719E-2
1.443930792E0,-2.429186914E-2,-1.142893117E-3,-4.265660763E-2,4.910180531E-2
1.453908792E0,-3.649303477E-2,9.528120132E-3,-1.643652320E-3,3.775219534E-2
1.463885792E0,-2.535115621E-2,-5.827554390E-3,-2.125229001E-2,3.359019711E-2
1.473863792E0,-8.272983315E-3,1.943093715E-3,-7.780305147E-3,1.152176264E-2
1.483841792E0,1.815386300E-2,2.314154366E-3,-1.930575192E-2,2.660131781E-2
1.493819792E0,8.567209040E-3,6.353054624E-3,-2.050326169E-2,2.311151474E-2
1.503796792E0,7.272395096E-3,-8.051323593E-3,-1.601318479E-2,1.934253419E-2
1.513774792E0,2.203832938E-2,-2.783037107E-3,-4.265602291E-2,4.809334203E-2
1.523752792E0,2.103437844E-2,-1.411351578E-2,-1.840645015E-2,3.131187972E-2
1.533730792E0,-2.245363073E-3,-1.966944873E-2,-1.855613887E-2,2.713409587E-2
1.543708792E0,-3.840870139E-2,-9.487016033E-4,-1.556411862E-2,4.145322865E-2
1.553685792E0,-3.757827342E-2,6.896672091E-3,-2.739011228E-2,4.700966890E-2
1.563663792E0,-3.373080781E-2,6.964353612E-3,-1.272003293E-2,3.671605717E-2
1.573641792E0,-2.716868096E-2,4.947402254E-3,-9.277777076E-3,2.913230444E-2
1.583619792E0,-3.924065853E-3,9.757669028E-3,-2.634170651E-2,2.836363693E-2
1.593596792E0,-1.369574707E-2,-7.284013582E-3,-1.810882688E-2,2.384449522E-2
1.603574792E0,6.095830240E-3,-1.109884671E-2,-3.038271725E-2,3.291584804E-2
1.613552792E0,2.102704658E-2,4.940897226E-4,-1.691014767E-2,2.698766212E-2
1.623530792E0,4.037826746E-3,-1.501071621E-2,-2.858528316E-2,3.253834752E-2
1.633508792E0,-1.679046932E-2,-1.426621947E-2,-5.163851559E-2,5.614250770E-2
1.643485792E0,-4.070785856E-2,-7.128952732E-3,-1.571380734E-2,4.421397355E-2
1.653463792E0,-2.712947950E-2,-1.408914020E-2,-1.676104367E-2,3.486323442E-2
1.663441792E0,-2.104420451E-2,-7.081782147E-3,-2.125170529E-2,3.073508027E-2
1.673419792E0,-2.071813544E-2,-1.060712328E-3,7.639387250E-3,2.210715912E-2
1.683396792E0,-2.657757771E-2,-9.188780626E-3,-1.286679804E-2,3.092500313E-2
1.693374792E0,-9.769838545E-3,9.607249405E-4,1.501564980E-3,9.931134628E-3
1.703352792E0,3.921688138E-3,6.873676088E-3,-3.502306759E-2,3.590602073E-2
1.713330792E0,2.117555216E-2,-8.785030385E-3,-2.918462276E-2,3.711230219E-2
1.723307792E0,-5.769238692E-3,-1.728257876E-2,-2.155049801E-2,2.822048207E-2
1.733285792E0,-7.101157901E-3,-1.990340131E-2,-1.990333736E-2,2.902954814E-2
1.743263792E0,-7.617532139E-3,-9.012350030E-3,-2.948341548E-2,3.175722024E-2
1.753241792E0,-2.650823567E-2,-7.807503836E-3,-4.475166500E-2,5.259615190E-2
1.763218792E0,-3.108941265E-2,-5.766816437E-5,-1.735804439E-2,3.560697417E-2
1.773196792E0,-4.551760913E-2,-4.066729350E-3,-3.187726557E-2,5.571849863E-2
1.783174792E0,-5.128833590E-2,5.614140155E-3,-6.431937218E-3,5.199405529E-2
1.793152792E0,-2.849384961E-2,-1.811513091E-3,-1.690956295E-2,3.318304332E-2
1.803130792E0,-2.038431881E-2,-5.662187822E-3,-1.855613887E-2,2.814091531E-2
1.813107792E0,-3.496013408E-3,-9.354932914E-3,-4.634503126E-3,1.100979104E-2
1.823085792E0,1.875675090E-2,-1.176869094E-2,-8.077343702E-3,2.357034731E-2
1.833063792E0,6.841340528E-3,-1.827349909E-2,-1.077115595E-2,2.228772105E-2
1.843041792E0,-1.020137277E-3,-2.672003964E-3,-2.633878291E-2,2.649361754E-2
1.853018792E0,-1.919723582E-2,-1.197920898E-2,-2.723691523E-2,3.541023669E-2
1.862996792E0,-3.618311407E-2,8.597042402E-3,-2.783625484E-2,4.645410601E-2
1.872974792E0,-1.371745143E-2,6.378362104E-3,-2.933197260E-2,3.300328156E-2
1.882952792E0,-7.936487475E-4,1.339158565E-3,-2.559033930E-2,2.563764205E-2
1.892929792E0,-1.639309049E-2,-1.299720922E-2,-2.544182003E-2,3.293853472E-2
1.902907792E0,-1.402675429E-2,-3.185764086E-3,-1.750890255E-2,2.265966896E-2
1.912885792E0,1.042644546E-2,-1.128867108E-2,-1.616170406E-2,2.230124521E-2
1.922859792E0,9.285683379E-3,-1.424767284E-2,-9.875947237E-3,1.966607309E-2
1.932837792E0,1.366752055E-2,-2.657203199E-3,-3.083178341E-2,3.382987903E-2
1.942814792E0,-6.667916909E-3,-9.247855777E-3,-3.472369015E-2,3.654748432E-2
1.952792792E0,-1.327603690E-2,-8.445270611E-3,-2.244746089E-2,2.741284830E-2
1.962770792E0,-2.310847320E-3,1.329055673E-2,-2.588913202E-2,2.919291130E-2
1.972748792E0,-1.466579101E-2,-5.355346045E-3,-2.573885858E-2,3.010405285E-2
1.982725792E0,-2.135398131E-2,-2.364074970E-3,-3.561831415E-2,4.159622184E-2
1.992703792E0,-3.498272637E-2,1.129941534E-2,-2.558975458E-2,4.479177906E-2
2.002681792E0,-1.424419420E-4,-2.791606933E-3,-2.169843256E-2,2.187773605E-2
2.012659792E0,-4.345022269E-3,-1.550158083E-2,-1.316559076E-2,2.079689897E-2
2.022636792E0,-9.210415324E-3,-2.134416439E-3,-2.738601923E-2,2.897208196E-2
2.032614792E0,-1.249647058E-2,-1.089707209E-2,-2.723691523E-2,3.188663526E-2
2.042592792E0,-4.381333535E-3,6.905315006E-3,-2.559033930E-2,2.686531080E-2
2.052570792E0,-6.955451454E-3,-1.271857113E-2,-5.231503844E-3,1.541132664E-2
2.062548792E0,-2.392594079E-2,1.354023283E-3,-3.442080438E-2,4.194133755E-2
2.072525792E0,-2.180073371E-2,-1.136526047E-2,-3.142702997E-2,3.990111964E-2
2.082503792E0,-3.539513095E-2,-7.995738499E-3,-2.783508539E-2,4.573334788E-2
2.092481792E0,-1.133208323E-2,-1.209247137E-2,-2.484072626E-2,2.986144094E-2
2.102459792E0,-4.444256199E-3,6.353657618E-3,-1.316500604E-2,1.527867018E-2
2.112436792E0,-1.671742938E-2,-7.199932449E-4,-1.136757195E-2,2.022900213E-2
2.122414792E0,-7.956792845E-3,-6.476695826E-3,-1.645757318E-2,1.939355192E-2
2.132392792E0,2.679679291E-3,-9.327186048E-3,-1.570796013E-2,1.846394032E-2
2.142370792E0,-1.471365595E-4,-1.094863722E-3,-3.546687126E-2,3.548407154E-2
2.152347792E0,6.322156886E-3,-1.746420790E-2,-1.630613029E-2,2.471554390E-2
2.162325792E0,-3.122837139E-3,-4.760227399E-3,-1.690488517E-2,1.783779749E-2
2.172303792E0,4.744078463E-3,-7.875450309E-3,-3.022718132E-2,3.159448509E-2
2.182281792E0,-2.499769887E-2,-5.012964159E-3,-2.962959588E-2,3.908871589E-2
2.192259792E0,-1.899123225E-2,-1.478523295E-4,-1.840235710E-2,2.644495244E-2
2.202236792E0,-8.872392584E-3,6.638279976E-3,-1.436017692E-2,1.813837899E-2
2.212214792E0,-1.665879505E-2,8.026372427E-3,-1.166519523E-2,2.186355156E-2
2.222192792E0,-1.486766042E-2,-1.409014519E-2,-2.423904777E-2,3.173501149E-2
2.232170792E0,-1.580593183E-3,-1.368556355E-2,-1.705398917E-2,2.192330886E-2
2.242147792E0,-6.537181960E-3,-1.239394102E-2,-3.082476676E-2,3.386016491E-2
2.252125792E0,-1.815999287E-3,-1.713027706E-2,-2.872853994E-2,3.349736188E-2
2.262103792E0,5.394460720E-3,-3.625191478E-3,-1.825266838E-2,1.937529671E-2
2.272081792E0,4.218284440E-3,2.151336819E-3,-2.319298089E-2,2.367142869E-2
2.282058792E0,-1.147264139E-2,-7.151565012E-3,-2.289360344E-2,2.658728006E-2
2.292036792E0,-2.714808552E-2,5.569920586E-3,-1.720543206E-2,3.262007748E-2
2.302014792E0,-5.003892981E-3,1.051677466E-2,-2.094648063E-2,2.396657141E-2
2.311992792E0,-7.834724224E-3,1.023262739E-6,-3.307009757E-2,3.398550070E-2
2.321970792E0,-1.148550983E-2,-1.186881538E-2,-1.570679069E-2,2.279230107E-2
2.331947792E0,-1.665445532E-2,-6.381322257E-4,-1.106644034E-2,2.000610399E-2
2.341925792E0,-1.633707942E-2,-2.344029984E-3,-2.663465202E-2,3.133367723E-2
2.351903792E0,-9.149008140E-3,-5.599083574E-3,-1.076706290E-2,1.519814891E-2
2.361881792E0,4.149852032E-3,3.788630292E-4,-1.914963126E-2,1.959778525E-2
2.371858792E0,-1.510553703E-2,-1.193201099E-2,-2.588620842E-2,3.225904402E-2
2.381836792E0,-1.132789539E-2,-1.814089520E-3,-1.750305533E-2,2.092771084E-2
2.391814792E0,-1.837545306E-2,-7.912369994E-3,-2.453900993E-2,3.166110993E-2
2.401792792E0,-5.695831011E-3,-1.373397667E-2,-1.900052726E-2,2.412643037E-2
2.411769792E0,-7.774755431E-3,-6.591420025E-3,-2.214399040E-2,2.437724247E-2
2.421747792E0,-1.099946346E-2,-6.234082058E-3,-3.397056878E-2,3.624708979E-2
2.431725792E0,-1.535356062E-2,-3.239832558E-3,-2.319298089E-2,2.800254812E-2
2.441703792E0,-1.413037449E-2,-7.627729364E-3,-2.588854730E-2,3.046418586E-2
2.451681792E0,-1.954727847E-2,-4.532030672E-3,-2.708664179E-2,3.370936904E-2
2.461658792E0,-2.253158542E-2,-1.035358253E-2,-2.409286737E-2,3.457362103E-2
2.471636792E0,-2.370056717E-2,-9.592293324E-3,-1.735512078E-2,3.090192862E-2
2.481614792E0,9.729371702E-3,-2.369328327E-3,-3.337181389E-2,3.484181902E-2
2.491592792E0,-4.047433538E-3,-5.245701615E-3,-3.891029656E-2,3.947037221E-2
2.501569792E0,-1.264744980E-2,-2.072609542E-3,-2.109850824E-2,2.468604356E-2
2.511547792E0,-2.040408286E-2,2.267577639E-3,-1.570971429E-2,2.585079552E-2
2.521525792E0,-1.224101692E-2,2.304871911E-3,-6.727221608E-3,1.415663944E-2
2.531503792E0,4.947000258E-3,-3.196325619E-4,-2.408935905E-2,2.459414962E-2
2.541480792E0,-1.771538749E-3,1.342382756E-2,-3.621297598E-2,3.866157169E-2
2.551458792E0,-1.483306992E-3,7.298512850E-3,-2.049566031E-2,2.180689297E-2
2.561436792E0,-1.589170888E-2,-6.186801838E-3,-8.520562649E-3,1.906365432E-2
2.571414792E0,-6.032487307E-3,-9.697040711E-3,-1.899818838E-2,2.216652123E-2
2.581391792E0,-6.032606079E-3,-1.428678523E-2,-2.408702016E-2,2.864767195E-2
2.591369792E0,-2.465306033E-2,-1.527276283E-2,-1.869764149E-2,3.450554253E-2
2.601347792E0,-1.046925005E-2,8.162219692E-3,-1.645172596E-2,2.113968576E-2
2.611325792E0,-1.537830622E-2,-5.766524076E-3,-1.839767933E-2,2.466211075E-2
2.621303792E0,-7.546052212E-3,9.237595741E-4,-3.007398427E-2,3.102000589E-2
2.631280792E0,-1.805991012E-2,-1.616162184E-2,-2.423612416E-2,3.427459829E-2
2.641258792E0,-1.549807706E-2,3.258306105E-3,-2.273865223E-2,2.771016522E-2
2.651236792E0,-1.070283147E-4,-5.171770882E-4,-2.797658801E-2,2.798157258E-2
2.661214792E0,1.998902648E-5,-1.215164702E-2,-2.468343616E-2,2.751245073E-2
2.671191792E0,-5.992860430E-3,-1.787384190E-3,-1.555183947E-2,1.676212484E-2
2.681169792E0,-1.522996624E-2,4.876513900E-3,-2.498164415E-2,2.966167231E-2
2.691147792E0,-2.242812054E-3,-1.280533832E-2,-2.782572985E-2,3.071283343E-2
2.701125792E0,-1.199051969E-2,2.948001679E-4,-3.486168444E-2,3.686728240E-2
2.711103792E0,-1.862101670E-2,1.540540326E-3,-2.034187853E-2,2.762078112E-2
2.721080792E0,-1.839795570E-2,8.832173562E-3,-1.944374621E-2,2.818778690E-2
2.731058792E0,-1.617160893E-2,4.750944944E-3,-2.138911486E-2,2.723208856E-2
2.741036792E0,-4.915039286E-3,-6.888805758E-3,-2.378354967E-2,2.524421698E-2
2.751014792E0,-1.409435702E-2,-9.836103944E-3,-1.525070786E-2,2.297790092E-2
2.760991792E0,-2.824040993E-3,6.071968004E-4,-1.495191514E-2,1.522838343E-2
2.770969792E0,-1.207973084E-2,-1.220634590E-2,-2.468109727E-2,3.006777910E-2
2.780947792E0,8.559709301E-3,-1.028168005E-2,-1.884382188E-2,2.310998034E-2
2.790925792E0,-2.843748508E-3,-4.324902194E-3,-2.528043687E-2,2.580488661E-2
2.800902792E0,-8.262211648E-3,1.060302109E-2,-3.411265612E-2,3.666553566E-2
2.810880792E0,-5.272126005E-3,-1.169733664E-2,-2.258779407E-2,2.597751793E-2
2.820858792E0,-3.190609052E-2,-5.827801069E-3,-3.067040026E-2,4.463894409E-2
2.830836792E0,-1.431761787E-2,4.535484184E-3,-1.630028307E-2,2.216447668E-2
2.840814792E0,-8.399602943E-3,9.100277536E-4,-1.674934924E-2,1.875958901E-2
2.850791792E0,-8.656660019E-4,8.128653020E-3,-2.528160632E-2,2.657035934E-2
2.860769792E0,-5.167979328E-3,7.210969068E-3,-1.764748156E-2,1.975195410E-2
2.870747792E0,-3.636971847E-3,-1.214093931E-2,-1.615234852E-2,2.053115521E-2
2.880725792E0,-9.179025369E-3,7.739575636E-3,-3.052129626E-2,3.279794297E-2
2.890702792E0,-9.300065017E-4,-2.992833378E-3,-3.561129749E-2,3.574893666E-2
2.900680792E0,2.626527016E-2,1.861068243E-3,-1.675168812E-2,3.120812469E-2
2.910658792E0,-1.080991431E-3,-7.453747289E-3,-2.408643544E-2,2.523654618E-2
2.920637458E0,-1.681125892E-3,-1.748034256E-2,-2.663114369E-2,3.189994317E-2
2.930614458E0,-1.593044326E-2,-6.273788307E-4,-1.555476308E-2,2.227382502E-2
2.940592458E0,-6.377646049E-3,-2.197922682E-3,-2.603355825E-2,2.689333353E-2
2.950570458E0,-6.919384869E-3,-7.162364088E-3,-2.318947256E-2,2.523745201E-2
2.960548458E0,-6.526412006E-5,1.588569721E-3,-3.431146145E-3,3.781610375E-3
2.970526458E0,-9.019599664E-3,-8.109549070E-3,-1.510686636E-2,1.937357415E-2
2.980503458E0,-5.637674056E-3,-4.979077717E-3,-1.211426139E-2,1.425937981E-2
2.990481458E0,-7.027107826E-3,-3.102870667E-3,-1.226336539E-2,1.447059713E-2
3.000459458E0,-1.420541985E-2,-1.486754165E-2,-3.172231436E-2,3.780400741E-2
3.010437458E0,-1.163346380E-2,3.044261467E-3,-1.840177238E-2,2.198249837E-2
3.020414458E0,-1.131549519E-2,3.523678333E-4,-1.540916741E-2,1.912085340E-2
3.030392458E0,-4.120793825E-3,-2.053925861E-3,-1.930107415E-2,1.984265649E-2
3.040370458E0,9.877264003E-3,7.595688449E-3,-2.154582024E-2,2.488929884E-2
3.050348458E0,-1.420672634E-2,4.617116796E-3,-3.292099357E-2,3.615163424E-2
3.060325458E0,-9.361728018E-3,-1.979379343E-2,-3.471725821E-2,4.104539228E-2
3.070303458E0,-5.367690293E-3,3.364935564E-3,-2.034597158E-2,2.130946856E-2
3.080281458E0,-5.760098420E-4,4.757239837E-3,-5.870604515E-4,4.827810910E-3
3.090259458E0,-1.165578715E-2,-4.604481328E-3,-4.324776113E-2,4.502696376E-2
3.100237458E0,-6.416242811E-3,-5.411040774E-3,-1.854970694E-2,2.036023481E-2
3.110214458E0,-3.562928453E-2,-2.311861161E-3,-3.067449331E-2,4.707138364E-2
3.120192458E0,-4.127258996E-2,-1.627471978E-3,-2.393908560E-2,4.774049818E-2
3.130170458E0,-2.144308968E-2,-4.435770884E-3,-1.361173332E-2,2.578296807E-2
3.140148458E0,-3.319153978E-3,-1.455936598E-2,-4.818924308E-2,5.044992635E-2
3.150125458E0,2.851341266E-2,-1.385485872E-2,-1.600616813E-2,3.551294453E-2
3.160103458E0,1.770870602E-2,-1.448806649E-2,-2.603589714E-2,3.466078879E-2
3.170081458E0,3.791387848E-2,-1.855704336E-2,-1.840177238E-2,4.604835791E-2
3.180059458E0,2.275431980E-3,-1.752275314E-2,-2.513834953E-2,3.072720432E-2
3.190036458E0,1.014505392E-2,-1.404994559E-2,-1.705457389E-2,2.431422589E-2
3.200014458E0,-1.669489818E-2,-9.566529030E-3,-2.768130362E-2,3.371190699E-2
3.209992458E0,-4.247705243E-2,1.589164493E-2,-1.525713980E-2,4.785002274E-2
3.219970458E0,-4.315044153E-2,-4.150664303E-3,-2.423846304E-2,4.966580020E-2
3.229948458E0,-2.490780707E-2,-1.336730143E-2,-1.974721670E-2,3.448240374E-2
3.239925458E0,-5.427006413E-3,4.912848864E-4,-3.486519277E-2,3.528846024E-2
3.249903458E0,6.324807547E-3,-7.021172103E-3,-1.780067861E-2,2.015351600E-2
3.259881458E0,2.373627858E-2,-4.647677634E-3,-2.498573720E-2,3.477497508E-2
3.269859458E0,1.417905142E-2,-1.843362143E-2,-1.675285757E-2,2.866185854E-2
3.279836458E0,1.588320644E-2,-2.117322469E-2,-2.483546376E-2,3.629575665E-2
3.289814458E0,-5.780301578E-3,-3.976015281E-3,-1.585414052E-2,1.733708036E-2
3.299792458E0,-3.815380161E-2,6.626996677E-3,-3.516340077E-2,5.230768984E-2
3.309770458E0,-3.604831519E-2,-1.023004183E-2,-1.690079212E-2,4.110683104E-2
3.319747458E0,-2.470819318E-2,-1.802331135E-3,-3.920382679E-2,4.637545948E-2
3.329725458E0,-4.700245016E-2,6.405898836E-4,-2.767779529E-2,5.454998652E-2
3.339703458E0,-1.958631549E-2,-1.321153709E-2,1.362401247E-3,2.366483898E-2
3.349681458E0,-1.236435320E-2,-8.140192134E-3,-1.824565172E-2,2.349561161E-2
3.359659458E0,9.065298167E-3,-8.141078353E-3,-3.306483507E-2,3.523833290E-2
3.369636458E0,9.842771140E-3,-2.950085663E-2,-2.034070909E-2,3.716080101E-2
3.379614458E0,1.311913623E-3,-3.164481134E-2,-2.872386217E-2,4.275716852E-2
3.389592458E0,2.392484215E-2,-1.429181018E-2,-3.680822253E-2,4.616816171E-2
3.399570458E0,-1.320889670E-2,3.297829628E-3,-2.588036120E-2,2.924284063E-2
3.409547458E0,-2.975221382E-2,4.498025458E-3,-4.923940301E-3,3.049051735E-2
3.419525458E0,-4.378721702E-2,-5.869983248E-3,-2.348592639E-2,5.003364684E-2
3.429503458E0,-4.534500207E-2,6.574654961E-3,-1.914436877E-2,4.965785090E-2
3.439481458E0,-3.436143002E-2,5.825928133E-4,-2.168907702E-2,4.063820061E-2
3.449458458E0,-2.240466886E-2,2.486857362E-3,-3.710759997E-2,4.341805641E-2
3.459436458E0,-2.144533492E-2,-9.382688915E-3,-2.647970080E-2,3.534277572E-2
3.469414458E0,4.676088307E-3,-1.777137858E-2,-2.378413439E-2,3.005615988E-2
3.479392458E0,3.245872777E-2,-1.713920320E-2,-3.411265612E-2,5.010982541E-2
3.489370458E0,8.607197942E-3,-2.057178374E-2,-2.348475695E-2,3.238542808E-2
3.499347458E0,-5.285364466E-3,1.347317258E-3,-3.620771348E-2,3.661623762E-2
3.509325458E0,-2.091631722E-2,1.711934094E-2,-2.318537951E-2,3.561075657E-2
3.519303458E0,-2.834498087E-2,1.378334910E-3,-4.054985583E-2,4.949372238E-2
3.529281458E0,-4.852537575E-2,1.605094501E-2,-3.306425035E-2,6.087355402E-2
3.539258458E0,-3.114305172E-2,3.594073327E-3,7.654005289E-4,3.135909551E-2
3.549236458E0,-3.628400366E-2,-8.139689639E-4,-4.773316026E-2,5.996370615E-2
3.559214458E0,-1.921204629E-3,-2.940117074E-3,1.154357314E-2,1.206604312E-2
3.569192458E0,9.061334166E-3,-1.026426631E-2,-3.171646714E-2,3.454558188E-2
3.579169458E0,2.687214148E-3,-2.296302086E-3,-3.306308091E-2,3.325148782E-2
3.589147458E0,1.683700893E-3,-2.532539648E-2,-9.862498641E-3,2.723012000E-2
3.599125458E0,7.413861170E-3,-1.579828134E-2,-4.174678087E-2,4.524759379E-2
3.609103458E0,-2.418976270E-3,-3.504007934E-3,-1.001394153E-2,1.088156894E-2
3.619081458E0,-1.701001514E-2,5.278245024E-3,-2.558215320E-2,3.117125355E-2
3.629058458E0,-3.163894357E-2,5.092385793E-3,-2.558098376E-2,4.100416897E-2
3.639036458E0,-2.706073817E-2,7.615441075E-3,-2.812569201E-2,3.976597847E-2
3.649014458E0,-1.412512570E-2,-2.881425647E-3,-2.438405871E-2,2.832673842E-2
3.658992458E0,-8.635648872E-3,6.356288865E-4,-2.917468250E-2,3.043255747E-2
3.668969458E0,1.338281197E-3,-2.434233335E-2,-1.330709338E-2,2.777442931E-2
3.678947458E0,-2.298556176E-3,-8.067631843E-3,-7.468648553E-3,1.123168533E-2
3.688925458E0,2.757895508E-3,-1.633807984E-2,-1.480339587E-2,2.221889668E-2
3.698903458E0,1.340089209E-2,-3.049514825E-3,-2.124176502E-2,2.530011918E-2
3.708880458E0,2.058702990E-2,2.957631312E-3,-3.381678700E-2,3.970073635E-2
3.718858458E0,-1.930520146E-2,-1.730980486E-2,-2.378822744E-2,3.518806491E-2
3.728836458E0,-7.286063534E-3,2.822560631E-3,-1.735102773E-2,1.902923366E-2
3.738814458E0,-2.500260048E-2,6.593347779E-3,-3.067273915E-2,4.011756713E-2
3.748792458E0,-3.745280040E-2,-5.332432268E-3,-2.648145497E-2,4.617807433E-2
3.758769458E0,-3.042859049E-2,4.877235666E-3,-2.258896351E-2,3.820926352E-2
3.768747458E0,8.123500161E-3,5.590550294E-3,-1.705106556E-2,1.969731820E-2
3.778725458E0,1.759354671E-2,-1.942906422E-2,-1.166227162E-2,2.868849946E-2
3.788703458E0,7.326782196E-3,-1.391326692E-3,-3.112239003E-2,3.200344807E-2
3.798680458E0,-5.609115204E-3,-1.317749533E-2,-1.256040394E-2,1.904920743E-2
3.808658458E0,7.057756030E-3,-1.587500777E-3,-2.139145374E-2,2.258154937E-2
3.818636458E0,-6.694245368E-3,-1.998148905E-3,-5.974684954E-3,9.192517630E-3
3.828614458E0,-3.388252250E-2,-3.977321768E-3,-5.028020740E-2,6.076136663E-2
3.838591458E0,-4.943753226E-2,1.624985084E-2,-1.330826283E-2,5.371440317E-2
3.848569458E0,-3.873653376E-2,6.552344179E-3,-3.082184315E-2,4.993433965E-2
3.858547458E0,-1.825748206E-2,1.287226154E-2,-2.827655017E-2,3.603601057E-2
3.868525458E0,-5.875204629E-2,-1.188537944E-3,-1.270892322E-2,6.012264378E-2
3.878503458E0,6.944855089E-3,1.591792085E-2,-4.878273547E-2,5.178191283E-2
3.888480458E0,1.697856694E-3,-8.268702971E-3,7.624769211E-4,8.475584772E-3
3.898458458E0,4.881088890E-2,-2.739965055E-2,-3.606036365E-2,6.658523524E-2
3.908436458E0,3.755232412E-2,-3.022613978E-2,-1.944608510E-2,5.198025393E-2
3.918418333E0,1.749255433E-2,-2.408300933E-2,-6.574024558E-3,3.048275897E-2
3.928395333E0,-2.308914256E-2,-5.612568716E-3,-2.857885122E-2,3.716665399E-2
3.938373333E0,-2.370797897E-2,3.893752266E-3,-3.726196647E-2,4.433603183E-2
3.948351333E0,-3.284867995E-2,-5.765902810E-3,-3.920733511E-2,5.147326041E-2
3.958329333E0,-3.542501570E-2,-3.142065285E-3,-2.169433951E-2,4.165871672E-2
3.968306333E0,-2.848527750E-2,1.948136025E-2,1.931978524E-2,3.954982343E-2
3.978284333E0,-1.344926181E-2,2.237272616E-3,-3.573818207E-3,1.409468724E-2
3.988262333E0,-4.277072883E-2,-2.123934391E-2,-5.326170266E-2,7.153498406E-2
3.998240333E0,1.529016058E-2,-2.571904200E-2,3.397232294E-4,2.992279305E-2
4.008218333E0,7.323272154E-3,-7.694862708E-3,-1.580560863E-2,1.904359450E-2
4.018195333E0,7.313039526E-4,3.767278818E-3,-1.055480897E-2,1.123081420E-2
4.028173333E0,8.206419161E-2,4.382446105E-2,-1.885054618E-1,2.102128066E-1
4.038151333E0,-8.441259786E-3,-5.765235862E-3,1.070291895E-1,1.075162323E-1
4.048129333E0,-2.438448812E-2,3.388736472E-2,-6.724765778E-2,7.915304306E-2
4.058106333E0,-1.494077346E-2,1.018662716E-1,-2.790145129E-1,2.974038709E-1
4.068084333E0,7.404752190E-2,8.947259557E-2,-3.322686142E-1,3.519812677E-1
4.078062333E0,5.021826345E-3,8.069404280E-2,-3.867260724E-1,3.950870820E-1
4.088040333E0,2.631178887E-1,2.041802573E-1,-3.214623749E-1,4.628808262E-1
4.098018333E0,3.623432928E-1,3.233372481E-1,-7.044497377E-1,8.556220373E-1
4.107995333E0,3.132328209E-1,2.867655089E-1,-1.320196044E-1,4.447228723E-1
4.117973333E0,1.703710899E-1,3.064425590E-1,3.527553282E0,3.544935191E0
4.127951333E0,4.431493280E-1,-7.131031783E-1,3.851364484E0,3.941815046E0
4.137929333E0,-2.884635768E-1,7.678035884E-1,1.993567246E-1,8.440833425E-1
4.147906333E0,-1.098697888E0,1.921128869E0,1.227201342E0,2.530592087E0
4.157884333E0,-1.063633816E0,2.405380213E0,-2.246633570E0,3.458978644E0
4.167862333E0,-6.182981048E-1,3.848637342E-1,-3.768158020E0,3.837893629E0
4.177840333E0,-8.420472935E-1,-1.727238999E0,-3.587769663E-1,1.954768302E0
4.187817333E0,8.301229204E-1,-2.137025174E0,4.576060206E-1,2.337816059E0
4.197795333E0,1.346668436E0,-1.464448609E0,3.399682277E-1,2.018341894E0
4.207773333E0,1.114939625E0,-4.485055969E-1,7.048678136E-1,1.393228723E0
4.217751333E0,6.238759831E-2,-3.187250740E-1,3.082172620E-1,4.477452019E-1
4.227728333E0,-3.020074459E-1,-6.829748149E-1,3.854309142E-1,8.403690170E-1
4.237706333E0,-6.924892581E-1,-1.138359771E0,1.737850964E-1,1.343728246E0
4.247684333E0,-1.148329566E0,-1.638477973E0,-8.705919385E-3,2.000836488E0
4.257662333E0,-1.555261569E0,-1.632020600E0,2.013520870E0,3.022680281E0
4.267640333E0,-2.347212404E0,-1.486505037E0,3.980792018E0,4.854462728E0
4.277617333E0,-3.058312180E0,-1.037991802E0,4.828118470E0,5.808737240E0
4.287595333E0,-3.335355304E0,-7.167902132E-1,4.626074365E0,5.747951569E0
4.297573333E0,-2.993020123E0,-6.172874866E-1,3.670513612E0,4.776178752E0
4.307551333E0,-2.475259117E0,-6.752229419E-1,2.319402169E0,3.458678959E0
4.317528333E0,-1.795284947E0,-5.521873650E-1,9.913258320E-1,2.123837525E0
4.327506333E0,-1.088874931E0,-2.821337832E-1,-3.239427638E-1,1.170549871E0
4.337484333E0,-4.746221490E-1,8.957042679E-2,-1.141985191E0,1.239927103E0
4.347462333E0,-2.170372429E-1,-8.498416319E-2,-1.276027347E0,1.297140418E0
4.357440333E0,-2.367216021E-2,-1.532992156E0,-1.029582410E0,1.846798652E0
4.367417333E0,8.887478355E-1,-1.840636683E0,-1.151215020E0,2.345871296E0
4.377395333E0,1.729180567E0,-1.043400842E0,-1.506543884E0,2.519608149E0
4.387373333E0,1.562724516E0,-4.573570754E-1,-1.568922565E0,2.261150465E0
4.397351333E0,8.239524999E-1,-7.001792237E-2,-1.148791934E0,1.415458632E0
4.407328333E0,-8.738780737E-2,2.519515523E-1,-4.088244545E-1,4.881123316E-1
4.417306333E0,-6.035419983E-1,4.502437913E-1,5.025974214E-1,9.053102139E-1
4.427284333E0,-6.663875797E-1,5.377923971E-1,1.429938927E0,1.666738853E0
4.437262333E0,-7.022620019E-1,6.630380023E-1,1.941344009E0,2.168319135E0
4.447239333E0,-7.774795608E-1,9.039798322E-1,1.782198586E0,2.144268128E0
4.457217333E0,-8.167069227E-1,9.695797446E-1,1.349828564E0,1.851791627E0
4.467195333E0,-6.913002267E-1,7.031639349E-1,1.152314882E0,1.516629523E0
4.477173333E0,-5.039626001E-1,5.611417910E-1,1.292177941E0,1.496189241E0
4.487151333E0,-3.559834591E-1,6.738237762E-1,1.508748284E0,1.690291126E0
4.497128333E0,-3.549482095E-1,8.788455757E-1,1.556513019E0,1.822385952E0
4.507106333E0,-5.327722701E-1,1.058094895E0,1.603894762E0,1.993963266E0
4.517084333E0,-8.309637500E-1,1.162419747E0,1.730113928E0,2.243883827E0
4.527062333E0,-9.632692833E-1,1.162993067E0,1.920474127E0,2.443084415E0
4.537039333E0,-6.888614993E-1,8.800813848E-1,2.111559965E0,2.389091646E0
4.547017333E0,-2.417433371E-1,6.286400020E-1,2.223514849E0,2.323283533E0
4.556995333E0,2.692584336E-1,6.127086782E-1,2.088209109E0,2.192835906E0
4.566973333E0,6.555032802E-1,7.277587858E-1,1.835625765E0,2.080586300E0
4.576950333E0,8.073189256E-1,7.299269333E-1,1.571736830E0,1.911782895E0
4.586928333E0,9.364517596E-1,8.868337494E-1,1.509586190E0,1.985514156E0
4.596906333E0,8.427112448E-1,1.025990173E0,1.652472260E0,2.119783632E0
4.606884333E0,6.169470325E-1,1.080494701E0,1.880823573E0,2.255125219E0
4.616862333E0,5.815861420E-1,1.089649687E0,2.127191911E0,2.459781354E0
4.626839333E0,7.488020378E-1,1.014173242E0,2.461193056E0,2.765270893E0
4.636817333E0,1.091576198E0,9.184163153E-1,2.803477950E0,3.145554918E0
4.646795333E0,1.673704816E0,6.241738987E-1,3.135217391E0,3.608388693E0
4.656773333E0,2.302139434E0,4.048693979E-1,3.181890451E0,3.948188451E0
4.666750333E0,2.732744182E0,3.145848799E-1,2.857956458E0,3.966707644E0
4.676728333E0,2.860001230E0,1.953455347E-1,2.440879828E0,3.765057934E0
4.686706333E0,2.699865873E0,1.764783239E-1,2.197456148E0,3.485575111E0
4.696684333E0,2.395813583E0,3.707777917E-2,2.204782124E0,3.256126795E0
4.706661333E0,2.123494717E0,-9.572593689E-2,2.380797933E0,3.191644101E0
4.716639333E0,1.894141191E0,-2.089584374E-1,2.567477894E0,3.197401636E0
4.726617333E0,1.725237935E0,-4.223689449E-1,2.662613263E0,3.200679747E0
4.736595333E0,1.765082324E0,-7.264528102E-1,2.615399335E0,3.237833068E0
4.746573333E0,2.180346318E0,-1.127043216E0,2.405647430E0,3.436753706E0
4.756550333E0,2.736610946E0,-1.510180852E0,2.158559300E0,3.798560770E0
4.766528333E0,3.223111275E0,-1.935460541E0,1.808332132E0,4.171872349E0
4.776506333E0,3.539888276E0,-2.066618266E0,1.316926281E0,4.305347244E0
4.786484333E0,3.466252535E0,-2.112297299E0,8.127898729E-1,4.139726307E0
4.796461333E0,3.029893250E0,-2.346595815E0,4.135601145E-1,3.854581299E0
4.806439333E0,2.467081494E0,-2.655077371E0,4.427277803E-2,3.624622328E0
4.816417333E0,2.007892632E0,-2.904958132E0,-2.830982083E-1,3.542676836E0
4.826395333E0,1.801350849E0,-3.051783471E0,-4.711657137E-1,3.574946764E0
4.836372333E0,1.946612058E0,-3.198014148E0,-5.266265541E-1,3.780731216E0
4.846350333E0,2.331314994E0,-3.358988580E0,-4.411899626E-1,4.112478871E0
4.856328333E0,2.830975651E0,-3.499838650E0,-3.012292546E-1,4.511544389E0
4.866306333E0,2.898750728E0,-3.791341061E0,-1.105690938E-1,4.773808579E0
4.876284333E0,2.499033604E0,-4.219553713E0,-1.902450085E-1,4.907748532E0
4.886261333E0,2.252377729E0,-4.430179777E0,-6.543288669E-1,5.012768153E0
4.896239333E0,1.715445895E0,-4.575245104E0,-9.625908601E-1,4.980181075E0
4.906217333E0,1.615046864E0,-4.440859716E0,-1.287330307E0,4.897635216E0
4.916195333E0,1.784684530E0,-4.359199256E0,-1.487287833E0,4.939609512E0
4.926168292E0,1.651554540E0,-4.435687269E0,-1.506960790E0,4.967281426E0
4.936146292E0,1.136958558E0,-4.581161901E0,-1.467250010E0,4.942928456E0
4.946124292E0,7.455893583E-1,-4.574188512E0,-1.515131105E0,4.875933377E0
4.956102292E0,6.663460645E-1,-4.533117085E0,-1.506776311E0,4.823229461E0
4.966079292E0,7.194620984E-1,-4.547204781E0,-1.467287140E0,4.831938388E0
4.976057292E0,8.184553132E-1,-4.522021993E0,-1.378241939E0,4.797718504E0
4.986035292E0,8.128420593E-1,-4.388338856E0,-1.235424866E0,4.630821172E0
4.996013292E0,5.426564035E-1,-4.387520245E0,-1.135400349E0,4.564421522E0
5.005991292E0,-5.514582172E-3,-4.474571253E0,-1.158944162E0,4.622225642E0
5.015968292E0,-4.936892615E-1,-4.501175500E0,-1.236164831E0,4.693869774E0
5.025946292E0,-7.959873140E-1,-4.426425864E0,-1.401272075E0,4.710669290E0
5.035924292E0,-7.848667869E-1,-4.363898079E0,-1.532752274E0,4.691369933E0
5.045902292E0,-4.183225255E-1,-4.379315432E0,-1.515119410E0,4.652846894E0
5.055879292E0,7.919410408E-2,-4.421297856E0,-1.386240930E0,4.634200077E0
5.065857292E0,2.207594343E-1,-4.440398371E0,-1.240714550E0,4.615760502E0
5.075835292E0,-3.020426023E-1,-4.373312096E0,-1.204564431E0,4.546214237E0
5.085813292E0,-1.308018048E0,-4.269092494E0,-1.218829006E0,4.628348094E0
5.095790292E0,-2.228545793E0,-4.135252651E0,-1.253718757E0,4.861948330E0
5.105768292E0,-2.853533917E0,-3.982830942E0,-1.332182837E0,5.077431362E0
5.115746292E0,-2.980136368E0,-3.779741939E0,-1.231900457E0,4.968424362E0
5.125724292E0,-2.733072211E0,-3.616551413E0,-8.648651755E-1,4.614880237E0
5.135702292E0,-2.491658511E0,-3.514984108E0,-3.516573966E-1,4.322862285E0
5.145679292E0,-2.504460697E0,-3.385595165E0,5.475800514E-2,4.211600224E0
5.155657292E0,-2.968578762E0,-3.214733677E0,7.997412264E-2,4.376456139E0
5.165635292E0,-3.701428426E0,-2.930233891E0,-2.130204982E-1,4.725697915E0
5.175613292E0,-4.436203578E0,-2.547635368E0,-4.793208253E-1,5.138102433E0
5.185590292E0,-4.880303700E0,-2.352072902E0,-5.332350773E-1,5.443707449E0
5.195568292E0,-4.801668005E0,-2.333802692E0,-2.410359702E-1,5.344225760E0
5.205546292E0,-4.416911275E0,-2.392408165E0,2.527266008E-1,5.029571828E0
5.215524292E0,-3.894363154E0,-2.345612898E0,7.287405333E-1,4.604240111E0
5.225501292E0,-3.679193804E0,-2.079106749E0,1.040609089E0,4.352243007E0
5.235479292E0,-4.078821173E0,-1.467599089E0,1.014495424E0,4.451946789E0
5.245457292E0,-4.840682382E0,-6.770473462E-1,8.895240533E-1,4.968083340E0
5.255435292E0,-5.535888256E0,6.334698021E-2,9.478406739E-1,5.616802789E0
5.265413292E0,-6.078982324E0,2.737011480E-1,1.356385632E0,6.234478358E0
5.275390292E0,-6.298772144E0,2.321175045E-1,1.967390431E0,6.602956471E0
5.285368292E0,-5.983209025E0,2.600478995E-1,2.472754170E0,6.479269120E0
5.295346292E0,-5.473968582E0,3.106631523E-1,2.721354391E0,6.120997741E0
5.305324292E0,-5.063463637E0,2.891787279E-1,2.689254931E0,5.740590599E0
5.315301292E0,-4.781251867E0,6.021369123E-1,2.517539164E0,5.436997491E0
5.325279292E0,-4.544391101E0,1.438391662E0,2.208026744E0,5.253174579E0
5.335257292E0,-4.420403817E0,2.127766108E0,1.849048634E0,5.242741588E0
5.345235292E0,-4.371053024E0,2.502420019E0,1.697063127E0,5.314906749E0
5.355212292E0,-4.242658401E0,2.662109233E0,1.947118134E0,5.373848240E0
5.365190292E0,-3.816610388E0,2.607236622E0,2.612055312E0,5.309145940E0
5.375168292E0,-3.216368851E0,2.488151643E0,3.487813266E0,5.357309825E0
5.385146292E0,-2.654425114E0,2.425856577E0,4.159235591E0,5.498180928E0
5.395124292E0,-2.229266170E0,2.316328872E0,4.321608092E0,5.386214218E0
5.405101292E0,-1.830953548E0,2.229376683E0,3.923755937E0,4.870151121E0
5.415079292E0,-1.301087636E0,2.260371603E0,3.164604328E0,4.100832766E0
5.425057292E0,-8.243680908E-1,2.371493259E0,2.284649827E0,3.394582134E0
5.435035292E0,-3.397362395E-1,2.642012352E0,1.517128513E0,3.065506305E0
5.445012292E0,1.291523492E-1,2.860284235E0,1.079839228E0,3.060058658E0
5.454990292E0,3.742230077E-1,2.842492912E0,1.117016995E0,3.076936103E0
5.464968292E0,6.389989293E-1,2.638068405E0,1.439501463E0,3.072440236E0
5.474946292E0,8.961350615E-1,2.287985664E0,1.822742010E0,3.059464803E0
5.484923292E0,1.066531989E0,2.107833534E0,2.149986112E0,3.194196765E0
5.494901292E0,1.076685240E0,2.036463590E0,2.358878476E0,3.297080940E0
5.504879292E0,9.120565912E-1,1.929782310E0,2.481190533E0,3.272951794E0
5.514857292E0,8.057356457E-1,1.854714001E0,2.554696466E0,3.258166354E0
5.524835292E0,7.642334247E-1,1.893831874E0,2.549308257E0,3.266439113E0
5.534812292E0,6.026204040E-1,2.021293573E0,2.478852232E0,3.254763808E0
5.544790292E0,4.207713394E-1,2.059950686E0,2.482512589E0,3.253200593E0
5.554768292E0,4.015424784E-1,2.039154478E0,2.607079332E0,3.334104076E0
5.564746292E0,5.773545121E-1,2.025964329E0,2.823316383E0,3.522638939E0
5.574723292E0,9.545409983E-1,1.998055569E0,2.988542325E0,3.719510694E0
5.584701292E0,1.404476203E0,2.111468748E0,3.027535068E0,3.949281234E0
5.594679292E0,1.846824060E0,2.194721990E0,2.887408884E0,4.069974666E0
5.604657292E0,2.214029788E0,2.191734062E0,2.912252533E0,4.264603255E0
5.614634292E0,2.284009119E0,2.160292414E0,3.176032711E0,4.468863922E0
5.624612292E0,2.193121899E0,2.048553877E0,3.529537827E0,4.632924986E0
5.634590292E0,2.158278341E0,1.864939612E0,3.863134344E0,4.802079978E0
5.644568292E0,2.179963764E0,1.676344687E0,4.018215952E0,4.869130616E0
5.654546292E0,2.500539554E0,1.636702319E0,3.902007219E0,4.914992663E0
5.664523292E0,2.982362403E0,1.686607720E0,3.648028729E0,5.004722241E0
5.674501292E0,3.423211473E0,1.750887916E0,3.540194378E0,5.226563069E0
5.684479292E0,3.667121642E0,1.649115958E0,3.525286902E0,5.347430441E0
5.694457292E0,3.629468497E0,1.372473076E0,3.488290399E0,5.217747965E0
5.704434292E0,3.291686836E0,1.145525680E0,3.308697848E0,4.805716674E0
5.714412292E0,2.780820867E0,1.037045796E0,3.123487292E0,4.308665865E0
5.724390292E0,2.451631688E0,9.542001057E-1,2.931306855E0,3.938725131E0
5.734368292E0,2.434046187E0,8.590980667E-1,2.631223070E0,3.685914429E0
5.744345292E0,2.598197996E0,7.616501248E-1,2.279166309E0,3.539116105E0
5.754323292E0,2.833043227E0,6.688869721E-1,2.006277631E0,3.535349154E0
5.764301292E0,3.058290545E0,5.527027971E-1,1.952938745E0,3.670502851E0
5.774279292E0,3.096563203E0,3.642756879E-1,2.028576865E0,3.719747914E0
5.784257292E0,3.088996029E0,1.993742663E-1,2.224794220E0,3.812001559E0
5.794234292E0,3.179535778E0,6.623550475E-2,2.561816036E0,4.083715992E0
5.804212292E0,3.391834145E0,-2.179467773E-1,3.000215122E0,4.533578106E0
5.814190292E0,3.680877802E0,-5.914207202E-1,3.367920494E0,5.024094776E0
5.824168292E0,4.036338812E0,-8.361559314E-1,3.439699160E0,5.368679359E0
5.834145292E0,4.343599470E0,-1.108909246E0,3.256424032E0,5.540833290E0
5.844123292E0,4.515079301E0,-1.511318720E0,2.848092498E0,5.548121867E0
5.854101292E0,4.636006738E0,-1.844163870E0,2.285714313E0,5.487985857E0
5.864079292E0,4.654578079E0,-2.113155085E0,1.681127125E0,5.381143923E0
5.874056292E0,4.472434096E0,-2.423625280E0,1.246284169E0,5.237351474E0
5.884034292E0,4.055679063E0,-2.639966996E0,1.003441848E0,4.942150741E0
5.894012292E0,3.627558796E0,-2.726861883E0,7.380604103E-1,4.597792049E0
5.903990292E0,3.328735963E0,-2.829657689E0,4.507008974E-1,4.392103943E0
5.913968292E0,3.132658650E0,-3.004494699E0,2.047757779E-1,4.345396614E0
5.923945208E0,3.154011512E0,-3.134633254E0,5.175268248E-2,4.447065616E0
5.933923208E0,3.090292941E0,-3.373038855E0,7.973701805E-3,4.574643719E0
5.943901208E0,2.905179741E0,-3.692782148E0,-4.568765804E-2,4.698808007E0
5.953879208E0,2.761673574E0,-3.880437425E0,-1.724775128E-1,4.765960977E0
5.963856208E0,2.623607072E0,-4.010380098E0,-2.462747830E-1,4.798657507E0
5.973834208E0,2.437266541E0,-4.085332632E0,-1.761309993E-1,4.760381606E0
5.983812208E0,2.102071688E0,-4.084999341E0,-5.899255872E-3,4.594122310E0
5.993790208E0,1.716400015E0,-4.196425636E0,2.175127678E-3,4.533874928E0
6.003767208E0,1.418039550E0,-4.370718271E0,-1.560984385E-1,4.597649518E0
6.013745208E0,1.205808426E0,-4.533908798E0,-3.980269861E-1,4.708367915E0
6.023723208E0,1.026121808E0,-4.584566150E0,-6.590782678E-1,4.744002204E0
6.033701208E0,9.350748865E-1,-4.542793057E0,-8.739184195E-1,4.719646937E0
6.043679208E0,1.023470462E0,-4.599187698E0,-9.309387124E-1,4.802776921E0
6.053656208E0,1.124398739E0,-4.750741680E0,-8.089529300E-1,4.948557758E0
6.063634208E0,1.010288937E0,-4.917597241E0,-6.309742105E-1,5.059799879E0
6.073612208E0,8.625955787E-1,-5.075541646E0,-5.159302060E-1,5.174106503E0
6.083590208E0,6.832462719E-1,-5.198167114E0,-6.295311177E-1,5.280537495E0
6.093567208E0,4.462975420E-1,-5.274579697E0,-8.409079635E-1,5.359803978E0
6.103545208E0,3.344811275E-1,-5.171242440E0,-9.896576214E-1,5.275703574E0
6.113523208E0,3.174633180E-1,-4.904552688E0,-9.755751872E-1,5.010705237E0
6.123501208E0,4.219076727E-1,-4.831275966E0,-7.897717237E-1,4.913549931E0
6.133478208E0,7.625190941E-1,-4.826466631E0,-4.662254012E-1,4.908521329E0
6.143456208E0,9.806882849E-1,-4.899439883E0,-1.421692379E-1,4.998647094E0
6.153434208E0,9.978285205E-1,-5.151886986E0,1.047844068E-1,5.248674218E0
6.163412208E0,8.404768775E-1,-5.376945148E0,1.841907648E-1,5.445352765E0
6.173389208E0,3.377110563E-1,-5.378161368E0,-5.211626966E-2,5.389005898E0
6.183367208E0,-3.815619577E-1,-5.282117928E0,-4.685455763E-1,5.316567905E0
6.193345208E0,-9.371367610E-1,-5.084546358E0,-7.421309495E-1,5.223178661E0
6.203323208E0,-1.249689441E0,-4.781320864E0,-8.449565756E-1,5.013651815E0
6.213301208E0,-1.102002515E0,-4.638286859E0,-6.842616409E-1,4.816256692E0
6.223278208E0,-6.915116036E-1,-4.837639491E0,-1.593448857E-1,4.889410490E0
6.233256208E0,-4.578282148E-1,-4.947838456E0,3.916447502E-1,4.984385386E0
6.243234208E0,-5.545702516E-1,-4.695797149E0,6.604036854E-1,4.774326346E0
6.253212208E0,-1.069934045E0,-4.158711680E0,8.179698481E-1,4.371351779E0
6.263189208E0,-1.809585629E0,-3.616322202E0,8.123910928E-1,4.124604915E0
6.273167208E0,-2.353585723E0,-3.306975258E0,7.532389051E-1,4.128295043E0
6.283145208E0,-2.433897668E0,-3.191757043E0,5.944244349E-1,4.057648493E0
6.293123208E0,-2.102400886E0,-3.067328879E0,4.334554119E-1,3.743858909E0
6.303100208E0,-1.530465866E0,-2.936223194E0,4.856837654E-1,3.346583502E0
6.313078208E0,-1.367459089E0,-2.741667033E0,7.479723179E-1,3.153750952E0
6.323056208E0,-2.171873994E0,-2.398330225E0,1.168466061E0,3.440107186E0
6.333034208E0,-3.765146704E0,-1.904628173E0,1.717871905E0,4.555767999E0
6.343012208E0,-5.429646687E0,-1.455713453E0,2.145844529E0,6.017043589E0
6.352989208E0,-6.264180016E0,-1.234755945E0,2.315605572E0,6.791656843E0
6.362967208E0,-5.847395747E0,-1.107969598E0,2.279939603E0,6.373206276E0
6.372945208E0,-4.546116614E0,-1.001479522E0,2.037442414E0,5.081467219E0
6.382923208E0,-3.461287957E0,-1.271227368E0,1.743781503E0,4.078885542E0
6.392900208E0,-3.337896504E0,-1.607543424E0,1.186134592E0,3.890072519E0
6.402878208E0,-4.105024008E0,-1.474101192E0,7.038363647E-1,4.418097108E0
6.412856208E0,-5.510917722E0,-1.013389131E0,4.968613029E-1,5.625303798E0
6.422834208E0,-6.668944749E0,-8.385415953E-1,5.708373517E-1,6.745652774E0
6.432811208E0,-7.044146544E0,-6.405572122E-1,1.059396485E0,7.152107031E0
6.442789208E0,-6.517298380E0,-4.814942354E-1,1.799618904E0,6.778321553E0
6.452767208E0,-5.303024063E0,-5.892818087E-1,2.398877524E0,5.850122275E0
6.462745208E0,-4.297341562E0,-8.244316792E-1,2.339299367E0,4.961769203E0
6.472723208E0,-4.067089904E0,-1.071694642E0,1.685640006E0,4.531129210E0
6.482700208E0,-4.353695857E0,-8.518399179E-1,9.151322266E-1,4.529654054E0
6.492678208E0,-4.655320383E0,-3.279095149E-1,4.323024872E-1,4.686834535E0
6.502656208E0,-4.492308782E0,-8.959805489E-2,3.797012275E-1,4.509217119E0
6.512634208E0,-3.886942452E0,1.563165396E-1,6.825524998E-1,3.949510654E0
6.522611208E0,-3.279615551E0,4.431294841E-1,1.060398698E0,3.475152846E0
6.532589208E0,-2.833501648E0,5.722576404E-1,1.438439024E0,3.228825982E0
6.542567208E0,-2.911803467E0,4.200902849E-1,1.826214672E0,3.462677477E0
6.552545208E0,-3.291649121E0,2.566828269E-1,2.127441587E0,3.927702600E0
6.562523208E0,-3.570123936E0,5.975065023E-1,2.167444144E0,4.219077275E0
6.572500208E0,-3.672539672E0,1.388416679E0,2.105926757E0,4.455353637E0
6.582478208E0,-3.723512190E0,1.586328557E0,1.921093639E0,4.480131928E0
6.592456208E0,-3.776407272E0,1.666709061E0,1.597844648E0,4.426316583E0
6.602434208E0,-3.688293241E0,2.135646985E0,1.247345585E0,4.440761881E0
6.612411208E0,-3.349074041E0,2.489182507E0,1.274158577E0,4.363004305E0
6.622389208E0,-2.799296021E0,2.445112043E0,1.791333107E0,4.125955092E0
6.632367208E0,-2.205421079E0,2.266152161E0,2.385754618E0,3.961205984E0
6.642345208E0,-1.651569158E0,2.376134779E0,2.899752941E0,4.096616199E0
6.652322208E0,-1.356584729E0,2.772086588E0,3.205461747E0,4.449693382E0
6.662300208E0,-1.167480805E0,3.213800461E0,3.427822587E0,4.841641512E0
6.672278208E0,-1.077009030E0,3.430197726E0,3.582857417E0,5.075733658E0
6.682256208E0,-9.658940984E-1,3.468609256E0,3.615976047E0,5.102889804E0
6.692233208E0,-5.720965496E-1,3.390002212E0,3.667950777E0,5.027252964E0
6.702211208E0,-5.470947325E-3,3.281938065E0,3.786149318E0,5.010596178E0
6.712189208E0,6.470368773E-1,3.069202327E0,3.801125207E0,4.928205807E0
6.722167208E0,1.016474414E0,2.873118289E0,3.625343286E0,4.736152751E0
6.732145208E0,8.549728560E-1,2.808087895E0,3.255826154E0,4.383690244E0
6.742122208E0,3.111850163E-1,2.624808090E0,2.692000784E0,3.772707495E0
6.752100208E0,-1.698595682E-1,2.527679406E0,2.263549565E0,3.397303649E0
6.762078208E0,-5.519050907E-1,2.513756016E0,2.300418599E0,3.451882713E0
6.772056208E0,-9.346492092E-1,2.474016584E0,2.793592647E0,3.846880175E0
6.782033208E0,-1.265646054E0,2.169174920E0,3.392620595E0,4.221025263E0
6.792011208E0,-1.383479729E0,1.837526110E0,3.873901992E0,4.505289670E0
6.801989208E0,-1.326300538E0,1.826254433E0,4.286227174E0,4.844174002E0
6.811967208E0,-1.091358170E0,1.942415219E0,4.510928071E0,5.031154102E0
6.821944208E0,-9.083485794E-1,2.029549842E0,4.403470865E0,4.933023957E0
6.831922208E0,-1.340737313E-2,1.806480319E0,3.951303924E0,4.344692579E0
6.841900208E0,6.652557050E-1,1.960739808E0,3.543425842E0,4.104014187E0
6.851878208E0,1.395154864E0,2.092606800E0,3.293036373E0,4.143615434E0
6.861856208E0,2.245862030E0,2.021380697E0,3.297087909E0,4.472210288E0
6.871833208E0,2.879289732E0,2.048613519E0,3.479493263E0,4.959233820E0
6.881811208E0,3.434868482E0,2.096312765E0,4.085955068E0,5.734795334E0
6.891789208E0,3.730639654E0,2.118765489E0,4.933940209E0,6.538394712E0
6.901767208E0,3.986812603E0,2.283157618E0,5.614144467E0,7.254384987E0
6.911744208E0,4.262190733E0,2.384074128E0,5.776018785E0,7.563892668E0
6.921721792E0,4.292699457E0,2.346881159E0,5.354438045E0,7.252939169E0
6.931699792E0,4.186880057E0,2.397194695E0,4.664772115E0,6.710931821E0
6.941677792E0,3.999450775E0,2.381311319E0,4.067893604E0,6.181748011E0
6.951654792E0,4.034884317E0,2.310513816E0,3.796250968E0,6.002523383E0
6.961632792E0,4.396882807E0,2.072183061E0,3.949100693E0,6.262740402E0
6.971610792E0,4.838863021E0,1.683789947E0,4.326152255E0,6.705619826E0
6.981588792E0,5.492066883E0,1.431160995E0,4.680314599E0,7.356382616E0
6.991566792E0,6.054271406E0,1.201247306E0,4.953861673E0,7.914413612E0
7.001543792E0,6.204713833E0,7.281210208E-1,5.055568142E0,8.036628846E0
7.011521792E0,6.150851036E0,3.407119936E-1,4.741827600E0,7.773929645E0
7.021499792E0,5.971311110E0,7.266978085E-2,4.005314071E0,7.190575643E0
7.031477792E0,5.781352031E0,-5.274434102E-1,3.477503163E0,6.767219230E0
7.041454792E0,5.703539624E0,-9.443674278E-1,3.002246445E0,6.514267249E0
7.051432792E0,5.584739989E0,-1.168304678E0,2.489845582E0,6.225237954E0
7.061410792E0,5.417066402E0,-1.552234027E0,2.062105531E0,6.000526485E0
7.071388792E0,5.216285881E0,-1.923499476E0,1.649218284E0,5.799086961E0
7.081365792E0,4.969229910E0,-2.171398031E0,1.241947435E0,5.563330723E0
7.091343792E0,4.740584482E0,-2.444386404E0,9.307825917E-1,5.414288721E0
7.101321792E0,4.435879935E0,-2.757152799E0,7.984770584E-1,5.283605584E0
7.111299792E0,4.057298449E0,-3.075405638E0,6.736085256E-1,5.135517402E0
7.121277792E0,3.851441959E0,-3.343122745E0,6.316735375E-1,5.138977166E0
7.131254792E0,3.870070311E0,-3.571778113E0,7.173440176E-1,5.315037681E0
7.141232792E0,3.981241668E0,-3.916910017E0,9.148232013E-1,5.659449690E0
7.151210792E0,4.120470597E0,-4.206335497E0,1.208673854E0,6.011025599E0
7.161188792E0,4.231755975E0,-4.434747037E0,1.530073664E0,6.317900389E0
7.171165792E0,4.175745496E0,-4.765520518E0,1.753915604E0,6.574439611E0
7.181143792E0,3.933329876E0,-5.151903943E0,1.730967622E0,6.708908038E0
7.191121792E0,3.506103356E0,-5.379375835E0,1.440537590E0,6.580698570E0
7.201099792E0,3.072535824E0,-5.506994240E0,1.055061214E0,6.393795126E0
7.211076792E0,2.643771487E0,-5.590097793E0,6.461208379E-1,6.217410486E0
7.221054792E0,2.254992165E0,-5.596183575E0,2.461607623E-1,6.038448094E0
7.231032792E0,1.857775018E0,-5.465829257E0,-6.219800234E-2,5.773256107E0
7.241010792E0,1.484814753E0,-5.396981217E0,-1.686581846E-1,5.600047025E0
7.250987792E0,1.120684953E0,-5.449350634E0,-2.567395449E-1,5.569315245E0
7.260965792E0,7.249217167E-1,-5.460543959E0,-4.742839607E-1,5.528833249E0
7.270943792E0,3.644228916E-1,-5.309784613E0,-7.699882543E-1,5.377685245E0
7.280921792E0,1.089502922E-1,-5.135293758E0,-9.637041700E-1,5.226072892E0
7.290899792E0,-2.211207922E-1,-5.030888799E0,-1.012584335E0,5.136541983E0
7.300876792E0,-3.497112970E-1,-4.952538448E0,-9.092924662E-1,5.047449639E0
7.310854792E0,-3.180560794E-1,-4.691446236E0,-7.295206980E-1,4.758469071E0
7.320832792E0,-6.422046652E-1,-4.509332365E0,-6.460962065E-1,4.600428841E0
7.330810792E0,-1.288731008E0,-4.402292651E0,-5.184549972E-1,4.616254302E0
7.340787792E0,-1.984312712E0,-4.229472930E0,-3.064129575E-1,4.681861500E0
7.350765792E0,-2.270676298E0,-4.139236944E0,-1.224102902E-1,4.722736241E0
7.360743792E0,-1.861421927E0,-4.158956094E0,-5.487158731E-2,4.556843016E0
7.370721792E0,-1.067369895E0,-4.154288262E0,9.797134079E-2,4.290336564E0
7.380698792E0,-2.238822860E-1,-4.124011964E0,2.093081740E-1,4.135384851E0
7.390676792E0,1.503642203E-1,-4.101731148E0,-4.756052122E-3,4.104489059E0
7.400654792E0,-4.741083249E-2,-4.093697074E0,-4.282279281E-1,4.116306922E0
7.410632792E0,-4.500596040E-1,-3.960015691E0,-7.885543334E-1,4.062769481E0
7.420610792E0,-8.172008662E-1,-3.832396116E0,-9.631545317E-1,4.035188211E0
7.430587792E0,-9.675799969E-1,-3.800536392E0,-8.366324794E-1,4.010017684E0
7.440565792E0,-7.391550091E-1,-3.740806500E0,-4.230203247E-1,3.836525719E0
7.450543792E0,-5.758675651E-1,-3.827284480E0,-6.986954471E-2,3.870996215E0
7.460521792E0,-5.487910098E-1,-3.940009443E0,1.274108291E-2,3.978065901E0
7.470498792E0,-8.071590042E-1,-4.069112456E0,-2.298844163E-1,4.154759762E0
7.480476792E0,-1.275319834E0,-4.031321316E0,-6.640033776E-1,4.280057560E0
7.490454792E0,-1.791350648E0,-3.742109259E0,-9.580405569E-1,4.257952626E0
7.500432792E0,-2.261226466E0,-3.574926839E0,-9.709027503E-1,4.340034468E0
7.510409792E0,-2.378390927E0,-3.492780476E0,-8.856863795E-1,4.317487605E0
7.520387792E0,-2.501925052E0,-3.465923045E0,-8.730683074E-1,4.362854546E0
7.530365792E0,-2.876702339E0,-3.636115612E0,-8.249475498E-1,4.709277179E0
7.540343792E0,-3.321305029E0,-3.767948105E0,-5.217565544E-1,5.049824742E0
7.550321792E0,-3.804763345E0,-3.996675979E0,-6.016799524E-2,5.518447533E0
7.560298792E0,-4.096618635E0,-3.978868284E0,2.060842386E-1,5.714555781E0
7.570276792E0,-4.037972232E0,-3.504445086E0,2.742475703E-1,5.353649861E0
7.580254792E0,-3.605888138E0,-2.799557977E0,4.769369155E-1,4.589926247E0
7.590232792E0,-3.113592049E0,-2.200476819E0,7.382504448E-1,3.883499375E0
7.600209792E0,-2.960903414E0,-1.806710114E0,9.184616312E-1,3.588136318E0
7.610187792E0,-3.276888995E0,-1.412317758E0,1.178291137E0,3.757793626E0
7.620165792E0,-4.020623835E0,-1.163980662E0,1.601276379E0,4.481556989E0
7.630143792E0,-4.762195206E0,-7.431278998E-1,2.533496801E0,5.445121514E0
7.640120792E0,-5.159131102E0,-1.824728894E-1,4.055918798E0,6.565090051E0
7.650098792E0,-5.173679559E0,8.917471647E-2,5.258279414E0,7.377290472E0
7.660076792E0,-4.730609717E0,2.319151908E-1,5.667483353E0,7.385988120E0
7.670054792E0,-4.076496904E0,2.105371857E-1,5.322865419E0,6.707834911E0
7.680032792E0,-3.607734396E0,-4.415407956E-2,4.654114103E0,5.888843277E0
7.690009792E0,-3.383466779E0,1.221167600E-1,3.956157113E0,5.207104671E0
7.699987792E0,-3.480427063E0,6.732530880E-1,3.216373821E0,4.786617054E0
7.709965792E0,-4.064145246E0,9.913866431E-1,2.598247113E0,4.924531665E0
7.719943792E0,-4.678287077E0,1.457474050E0,2.491066480E0,5.496909385E0
7.729920792E0,-4.872321081E0,1.473905895E0,2.709524889E0,5.766579266E0
7.739898792E0,-4.728270246E0,1.133435977E0,2.963721187E0,5.694283090E0
7.749876792E0,-4.614630779E0,7.717254621E-1,3.214126151E0,5.676353084E0
7.759854792E0,-4.734323868E0,3.216863233E-1,3.417671821E0,5.847887247E0
7.769831792E0,-4.749973356E0,-1.105275786E-1,3.279137834E0,5.772972212E0
7.779809792E0,-4.592952227E0,-1.211952388E-2,3.047847126E0,5.512234496E0
7.789787792E0,-4.385595634E0,5.685657084E-1,2.802402062E0,5.235472601E0
7.799765792E0,-3.897078601E0,1.258541833E0,2.365936065E0,4.729566854E0
7.809743792E0,-3.292377976E0,2.007647926E0,1.856510558E0,4.279840463E0
7.819720792E0,-2.919063370E0,2.492694930E0,1.198871582E0,4.021411698E0
7.829698792E0,-2.732964622E0,2.702411166E0,7.061714503E-1,3.907787079E0
7.839676792E0,-2.798847540E0,2.419747991E0,9.364111215E-1,3.816489707E0
7.849654792E0,-3.138690345E0,1.844916406E0,1.858926920E0,4.087872664E0
7.859631792E0,-3.418340743E0,1.361450490E0,2.752490230E0,4.595084693E0
7.869609792E0,-3.549018703E0,9.195407349E-1,3.349887974E0,4.966169385E0
7.879587792E0,-3.369755935E0,6.792827368E-1,3.916741617E0,5.211290147E0
7.889565792E0,-2.631603724E0,7.007542974E-1,4.454084948E0,5.220657762E0
7.899542792E0,-1.399293085E0,7.585078311E-1,4.562102317E0,4.831783606E0
7.909520792E0,8.209518185E-2,9.191980880E-1,4.065268496E0,4.168701559E0
7.919498792E0,1.298185663E0,1.154698207E0,3.292821488E0,3.723074981E0
7.929477667E0,2.331784233E0,1.558398162E0,2.778016834E0,3.947556215E0
7.939454667E0,2.909973873E0,1.920641357E0,2.696276268E0,4.407574943E0
7.949432667E0,3.173892045E0,2.290343261E0,2.580085076E0,4.687867529E0
7.959410667E0,3.035729941E0,2.637055668E0,2.395950408E0,4.680843644E0
7.969388667E0,2.630674016E0,2.741979859E0,2.311050006E0,4.447454492E0
7.979366667E0,2.209448641E0,2.777815105E0,2.331696817E0,4.246731696E0
7.989343667E0,1.605929885E0,2.672473422E0,2.274934094E0,3.859591963E0
7.999321667E0,1.042444896E0,2.308066757E0,2.151557844E0,3.323110692E0
8.009299667E0,5.119433916E-1,1.922381489E0,1.852738811E0,2.718506525E0
8.019277667E0,3.417244390E-2,1.735524357E0,1.251216149E0,2.139802421E0
8.029254667E0,-4.434021836E-1,1.636879490E0,6.321524245E-1,1.809860947E0
8.039232667E0,-8.898180221E-1,1.637264822E0,4.576001734E-1,1.918804348E0
8.049210667E0,-1.283605338E0,1.549460108E0,9.492749959E-1,2.224767922E0
8.059188667E0,-1.144999649E0,1.330012350E0,1.870468739E0,2.564880183E0
8.069165667E0,-8.508339775E-1,1.471245997E0,2.790169687E0,3.267036903E0
8.079143667E0,-3.263214842E-1,1.635748054E0,3.557922551E0,3.929500005E0
8.089121667E0,6.193293343E-1,1.641254961E0,4.107998486E0,4.466871191E0
8.099099667E0,1.566767720E0,1.504200320E0,4.412363018E0,4.917959647E0
8.109077667E0,2.378998014E0,1.505782576E0,4.625755692E0,5.415221919E0
8.119054667E0,3.051899246E0,1.530756034E0,4.841082332E0,5.923966677E0
8.129032667E0,3.470670691E0,1.404455007E0,4.918833928E0,6.181664511E0
8.139010667E0,3.680357400E0,1.269331115E0,4.682228100E0,6.089293231E0
8.148988667E0,3.794013239E0,1.210568937E0,4.166103145E0,5.763369589E0
8.158965667E0,3.958920507E0,1.117118737E0,3.598077135E0,5.465085994E0
8.168943667E0,4.354672927E0,1.015577744E0,3.159231321E0,5.474971871E0
8.178921667E0,4.931548113E0,9.504941404E-1,2.932980328E0,5.816010618E0
8.188899667E0,5.739233952E0,8.750188655E-1,2.836310943E0,6.461356215E0
8.198876667E0,6.385195745E0,9.038076317E-1,2.657333227E0,6.974884430E0
8.208854667E0,6.618088006E0,9.450550604E-1,2.511316850E0,7.141353530E0
8.218832667E0,6.552993878E0,7.900751942E-1,2.560354816E0,7.079644367E0
8.228810667E0,6.570774676E0,6.064328617E-1,2.744907853E0,7.146842644E0
8.238788667E0,6.673418453E0,4.594332755E-1,2.824027112E0,7.260903657E0
8.248765667E0,6.986056795E0,3.847760260E-1,2.779645284E0,7.528576893E0
8.258743667E0,7.340596869E0,3.002796668E-1,2.836296617E0,7.875221189E0
8.268721667E0,7.445633327E0,1.158222324E-1,2.929334882E0,8.001991832E0
8.278699667E0,7.136816726E0,-1.866980875E-1,2.855074658E0,7.688983057E0
8.288676667E0,6.477335585E0,-5.213412559E-1,2.588200427E0,6.994744772E0
8.298654667E0,5.760488580E0,-7.798320419E-1,2.309300958E0,6.254937059E0
8.308632667E0,5.110427889E0,-1.035185797E0,2.323579420E0,5.708511554E0
8.318610667E0,4.657844919E0,-1.279514626E0,2.705911310E0,5.536662621E0
8.328587667E0,4.406525450E0,-1.512509213E0,3.176524462E0,5.638746165E0
8.338565667E0,4.288245341E0,-1.841232660E0,3.481549729E0,5.822402797E0
8.348543667E0,4.145780270E0,-2.223021929E0,3.650299788E0,5.954326921E0
8.358521667E0,3.930419132E0,-2.666306949E0,3.654636667E0,5.992808729E0
8.368499667E0,3.764705240E0,-3.065816789E0,3.563471559E0,6.022505099E0
8.378476667E0,3.744554857E0,-3.397652709E0,3.546457915E0,6.176009938E0
8.388454667E0,3.887375731E0,-3.731584271E0,3.665954538E0,6.517333344E0
8.398432667E0,4.171837510E0,-4.044091635E0,3.775971070E0,6.929420097E0
8.408410667E0,4.427941462E0,-4.283250942E0,3.632609037E0,7.151835613E0
8.418387667E0,4.505456538E0,-4.525598735E0,3.312834753E0,7.194098736E0
8.428365667E0,4.425324249E0,-4.718571469E0,2.958256087E0,7.113345942E0
8.438343667E0,4.270805143E0,-4.808971177E0,2.589883840E0,6.933504068E0
8.448321667E0,4.030187541E0,-4.831667730E0,2.272285305E0,6.689596787E0
8.458298667E0,3.834954858E0,-4.894641657E0,1.966129771E0,6.521507647E0
8.468276667E0,3.605005209E0,-4.971402735E0,1.715017587E0,6.375907232E0
8.478254667E0,3.271955406E0,-5.192435088E0,1.543542141E0,6.328475066E0
8.488232667E0,2.827789796E0,-5.457292323E0,1.433566539E0,6.311382388E0
8.498210667E0,2.228864174E0,-5.611992107E0,1.279747345E0,6.172523324E0
8.508187667E0,1.549256771E0,-5.717126214E0,1.068876868E0,6.018988823E0
8.518165667E0,8.878279953E-1,-5.775049317E0,7.158360207E-1,5.886582571E0
8.528143667E0,4.399330305E-1,-5.706686010E0,3.795883763E-1,5.736191561E0
8.538121667E0,3.848698007E-1,-5.418070369E0,3.830604529E-1,5.445213182E0
8.548098667E0,3.745072921E-1,-5.328625512E0,6.614077985E-1,5.382561270E0
8.558076667E0,1.803776128E-1,-5.414991226E0,8.278020144E-1,5.480868748E0
8.568054667E0,-1.129681150E-1,-5.697801751E0,6.408513272E-1,5.734840626E0
8.578032667E0,-3.768068923E-1,-5.984938046E0,2.175900972E-1,6.000734314E0
8.588009667E0,-3.502663074E-1,-5.983976179E0,-1.607832277E-1,5.996374625E0
8.597987667E0,-1.946843608E-1,-6.122575071E0,-4.978892434E-1,6.145870255E0
8.607965667E0,-8.326332763E-2,-6.180518639E0,-6.710404285E-1,6.217398064E0
8.617943667E0,-3.177020305E-1,-5.838284031E0,-6.899259849E-1,5.887486125E0
8.627921667E0,-1.304381373E0,-5.736009797E0,-5.681249745E-1,5.909821075E0
8.637898667E0,-2.462524174E0,-5.907132656E0,-4.078280890E-1,6.412843774E0
8.647876667E0,-3.384711066E0,-6.155673820E0,-2.796126831E-1,7.030417657E0
8.657854667E0,-3.895615627E0,-6.545612352E0,-3.302754445E-1,7.624299578E0
8.667832667E0,-3.643059765E0,-6.783025095E0,-5.697269654E-1,7.720485912E0
8.677809667E0,-2.615322737E0,-6.557058862E0,-8.046716718E-1,7.105098904E0
8.687787667E0,-1.500721080E0,-6.294244060E0,-1.089543267E0,6.561766270E0
8.697765667E0,-9.020047890E-1,-5.960348750E0,-1.297423478E0,6.166253121E0
8.707743667E0,-1.629079889E0,-5.799905246E0,-1.137994466E0,6.130891742E0
8.717720667E0,-3.257865956E0,-5.579263487E0,-4.673480666E-1,6.477675961E0
8.727698667E0,-4.495514225E0,-5.409294868E0,6.133688289E-1,7.060194080E0
8.737676667E0,-4.827194317E0,-5.406309865E0,1.712301555E0,7.447279231E0
8.747654667E0,-3.685550312E0,-4.827279394E0,2.567942163E0,6.593954383E0
8.757631667E0,-1.687101079E0,-3.745983624E0,2.870170122E0,5.011644430E0
8.767609667E0,-5.457038261E-1,-2.756822432E0,2.603587375E0,3.830995928E0
8.777587667E0,-1.332197601E0,-2.009724272E0,2.162355897E0,3.238753637E0
8.787565667E0,-3.581082203E0,-1.804051970E0,1.911930029E0,4.442322556E0
8.797543667E0,-5.709838244E0,-1.565410727E0,2.153456435E0,6.300010963E0
8.807520667E0,-6.765060695E0,-1.352573832E0,2.875492843E0,7.474219776E0
8.817498667E0,-6.161536823E0,-8.846410435E-1,3.759881287E0,7.272127136E0
8.827476667E0,-4.580244181E0,1.167589563E-1,3.983808596E0,6.071490784E0
8.837454667E0,-3.711106737E0,8.884961128E-1,3.237632543E0,5.004398369E0
8.847431667E0,-4.314337371E0,1.315424132E0,2.035342094E0,4.948380042E0
8.857409667E0,-5.786291174E0,1.555683299E0,1.220808289E0,6.114874402E0
8.867387667E0,-7.276999628E0,1.342115502E0,1.299017429E0,7.512885191E0
8.877365667E0,-8.329904827E0,1.015233927E0,2.077613955E0,8.644911457E0
8.887343667E0,-8.450510666E0,7.175586104E-1,2.891075673E0,8.960152868E0
8.897320667E0,-7.607625759E0,5.240625501E-1,3.011248526E0,8.198672388E0
8.907298667E0,-6.107937736E0,5.975339842E-1,2.694089409E0,6.702392707E0
8.917276667E0,-4.599945497E0,6.630292314E-1,2.009852911E0,5.063458804E0
8.927253958E0,-3.483782780E0,9.902388346E-1,1.330950536E0,3.858593622E0
8.937230958E0,-3.000958888E0,1.255248681E0,1.107021765E0,3.436117094E0
8.947208958E0,-3.333009986E0,1.393882656E0,1.296203457E0,3.838229778E0
8.957186958E0,-3.846865928E0,1.649324119E0,1.401515904E0,4.413943175E0
8.967164958E0,-4.182363083E0,1.719762018E0,1.219047984E0,4.683569188E0
8.977141958E0,-4.618189394E0,1.555687392E0,8.546948209E-1,4.947558972E0
8.987119958E0,-5.155530971E0,1.283487809E0,3.982561970E-1,5.327799597E0
8.997097958E0,-5.583335488E0,1.141548988E0,1.532759875E-1,5.700900174E0
9.007075958E0,-5.508487619E0,1.020998697E0,3.324428612E-1,5.612164685E0
9.017052958E0,-4.956123376E0,1.270227494E0,7.725961125E-1,5.174315564E0
9.027030958E0,-4.146157123E0,1.387137893E0,1.138498496E0,4.517847856E0
9.037008958E0,-3.326915433E0,1.414132733E0,1.643938249E0,3.971230370E0
9.046986958E0,-2.640379225E0,1.522700910E0,2.335861789E0,3.840113385E0
9.056964958E0,-2.091577836E0,1.565321850E0,2.980593621E0,3.963441518E0
9.066941958E0,-1.834259271E0,1.572822073E0,3.315983478E0,4.102928561E0
9.076919958E0,-1.752693829E0,1.681591394E0,3.229428899E0,4.040902905E0
9.086897958E0,-1.682113989E0,1.842664059E0,3.008343337E0,3.908330582E0
9.096875958E0,-1.469509520E0,2.027182304E0,2.770126309E0,3.733969214E0
9.106852958E0,-1.276897559E0,2.119975863E0,2.375462934E0,3.430391987E0
9.116830958E0,-9.945249899E-1,2.228061059E0,2.115514437E0,3.229355566E0
9.126808958E0,-7.840682034E-1,2.285135731E0,2.394754360E0,3.401684392E0
9.136786958E0,-5.381679346E-1,2.337074794E0,3.034710186E0,3.867946384E0
9.146763958E0,-3.491658980E-1,2.486472323E0,3.628589368E0,4.412609459E0
9.156741958E0,-2.699510363E-1,2.558367348E0,4.047659899E0,4.796005390E0
9.166719958E0,-2.598838851E-1,2.635352374E0,4.225906421E0,4.987073976E0
9.176697958E0,-4.829781125E-1,2.622770920E0,4.031338273E0,4.833620116E0
9.186675958E0,-6.842100392E-1,2.531338009E0,3.612845448E0,4.464131239E0
9.196652958E0,-5.860140923E-1,2.330695481E0,3.279143973E0,4.065506013E0
9.206630958E0,-1.967395840E-1,2.164600058E0,2.930363992E0,3.648456249E0
9.216608958E0,1.289095435E-1,2.051714298E0,2.521800323E0,3.253555916E0
9.226586958E0,4.270242787E-1,1.986410839E0,2.234778340E0,3.020333092E0
9.236563958E0,7.151855911E-1,1.930642435E0,2.097874264E0,2.939378688E0
9.246541958E0,9.233026873E-1,1.723060432E0,2.228943404E0,2.964728285E0
9.256519958E0,9.700954691E-1,1.533117725E0,2.531141542E0,3.114195351E0
9.266497958E0,9.510543767E-1,1.390328134E0,2.776004515E0,3.247109147E0
9.276474958E0,1.084485280E0,1.259230635E0,3.048441203E0,3.471997103E0
9.286452958E0,1.268854860E0,1.188341331E0,3.234575326E0,3.672141789E0
9.296430958E0,1.283908516E0,9.969584548E-1,3.229347623E0,3.615388404E0
9.306408958E0,1.390071149E0,8.645704758E-1,3.220624747E0,3.612783368E0
9.316386958E0,1.492423443E0,8.242966086E-1,3.314321992E0,3.727133335E0
9.326363958E0,1.639009046E0,1.018506029E0,3.331333589E0,3.849868656E0
9.336341958E0,1.860222955E0,1.298647301E0,3.223912051E0,3.942147025E0
9.346319958E0,2.026340305E0,1.405966512E0,2.964771640E0,3.856509787E0
9.356297958E0,2.303650501E0,1.522991517E0,2.592473280E0,3.787773290E0
9.366274958E0,2.493984826E0,1.522915503E0,2.324681620E0,3.734083097E0
9.376252958E0,2.659507806E0,1.522560577E0,2.208392195E0,3.777322937E0
9.386230958E0,2.876775430E0,1.614995116E0,2.166004852E0,3.946596396E0
9.396208958E0,3.116154591E0,1.765991274E0,2.146852882E0,4.175897737E0
9.406185958E0,3.432184903E0,1.899184415E0,2.236640094E0,4.515457181E0
9.416163958E0,3.597894117E0,1.905203539E0,2.508874176E0,4.782163969E0
9.426141958E0,3.653672462E0,1.773471617E0,2.798193821E0,4.931978578E0
9.436119958E0,3.687166482E0,1.588082721E0,3.036864885E0,5.033860519E0
9.446096958E0,3.747806494E0,1.388180451E0,3.209228816E0,5.125646113E0
9.456074958E0,3.823385849E0,1.195233445E0,3.279523165E0,5.177077798E0
9.466052958E0,4.030600647E0,1.056653849E0,3.325575836E0,5.331201888E0
9.476030958E0,4.340206915E0,9.874292475E-1,3.391140080E0,5.595734414E0
9.486008958E0,4.640503539E0,8.143095642E-1,3.537478054E0,5.891614731E0
9.495985958E0,4.783888961E0,5.843344796E-1,3.724839216E0,6.091097402E0
9.505963958E0,4.769620878E0,3.347682989E-1,3.813990251E0,6.116197738E0
9.515941958E0,4.717108788E0,1.471510291E-1,3.713709918E0,6.005365109E0
9.525919958E0,4.660310105E0,-5.160518646E-2,3.373104928E0,5.753172188E0
9.535896958E0,4.576248486E0,-2.648432010E-1,2.944914495E0,5.448367968E0
9.545874958E0,4.443319347E0,-5.915487742E-1,2.525220652E0,5.144876686E0
9.555852958E0,4.403671717E0,-9.908381742E-1,2.161534363E0,5.004629425E0
9.565830958E0,4.403567929E0,-1.422227034E0,1.937793580E0,5.016889893E0
9.575807958E0,4.375477905E0,-1.773420746E0,1.644486133E0,4.999416234E0
9.585785958E0,4.317487266E0,-2.064776393E0,1.194951609E0,4.932738306E0
9.595763958E0,4.147147934E0,-2.347729005E0,1.014362692E0,4.872329950E0
9.605741958E0,3.982651432E0,-2.640503186E0,1.095945969E0,4.902536800E0
9.615719958E0,3.883766245E0,-2.922529600E0,1.195494815E0,5.005399820E0
9.625696958E0,3.729870160E0,-3.160077413E0,1.274210032E0,5.051893890E0
9.635674958E0,3.524097870E0,-3.391459338E0,1.282721239E0,5.056346113E0
9.645652958E0,3.283804789E0,-3.585234311E0,1.280088823E0,5.027514928E0
9.655630958E0,3.048348817E0,-3.737663621E0,1.163622666E0,4.961509605E0
9.665607958E0,2.799786895E0,-3.825715672E0,8.984831572E-1,4.825161039E0
9.675585958E0,2.661345001E0,-3.815055614E0,6.568528175E-1,4.697750757E0
9.685563958E0,2.537387830E0,-3.821590462E0,6.494079964E-1,4.632992705E0
9.695541958E0,2.389238535E0,-3.895108674E0,8.534350383E-1,4.648514141E0
9.705518958E0,2.228742260E0,-3.952801981E0,1.141229292E0,4.679138794E0
9.715496958E0,1.947160527E0,-3.979362373E0,1.357670996E0,4.633576324E0
9.725474958E0,1.530715396E0,-3.966456399E0,1.424042594E0,4.483722036E0
9.735452958E0,1.072615944E0,-3.903890022E0,1.426268045E0,4.292447181E0
9.745430958E0,5.688509063E-1,-3.840543627E0,1.328369282E0,4.103404885E0
9.755407958E0,1.188339870E-1,-3.894560789E0,1.248664863E0,4.091563173E0
9.765385958E0,-2.690691300E-1,-4.044216181E0,1.139082340E0,4.210177110E0
9.775363958E0,-6.567906909E-1,-4.160779840E0,1.003700733E0,4.330228407E0
9.785341958E0,-1.059608447E0,-4.220331978E0,8.346644528E-1,4.430647448E0
9.795318958E0,-1.406849003E0,-4.217617115E0,6.775290106E-1,4.497395225E0
9.805296958E0,-1.617876624E0,-4.241943287E0,5.321109501E-1,4.571077519E0
9.815274958E0,-1.642988076E0,-4.401810256E0,4.154236221E-1,4.716770095E0
9.825252958E0,-1.387946709E0,-4.527858683E0,2.643947196E-1,4.743185100E0
9.835229958E0,-8.760773577E-1,-4.611066316E0,9.911118239E-2,4.694599785E0
9.845207958E0,-2.825970288E-1,-4.631350307E0,-4.347287893E-2,4.640167739E0
9.855185958E0,1.019923614E-1,-4.473276680E0,-8.994070172E-2,4.475343118E0
9.865163958E0,-4.803321378E-2,-4.253575737E0,-6.687489778E-2,4.254372574E0
9.875141958E0,-4.908241258E-1,-4.173741363E0,-1.722355843E-2,4.202537560E0
9.885118958E0,-1.030271943E0,-4.253228998E0,2.089941055E-2,4.376283122E0
9.895096958E0,-1.455962106E0,-4.424732510E0,-2.071069166E-2,4.658166203E0
9.905074958E0,-1.651508931E0,-4.468636914E0,-2.058876260E-1,4.768499484E0
9.915052958E0,-1.389678070E0,-4.193340061E0,-5.484664893E-1,4.451530242E0
9.925030208E0,-1.286854344E0,-3.788563049E0,-7.382193084E-1,4.068681829E0
9.935008208E0,-1.721951361E0,-3.502725420E0,-7.868750131E-1,3.981629584E0
9.944986208E0,-2.485891402E0,-3.397173822E0,-7.957113254E-1,4.284110474E0
9.954964208E0,-3.280138000E0,-3.542635006E0,-7.227730843E-1,4.881799772E0
9.964941208E0,-3.766716974E0,-3.635219818E0,-4.488391440E-1,5.253992431E0
9.974919208E0,-3.666483126E0,-3.531615928E0,-1.588805437E-2,5.090742776E0
9.984897208E0,-3.149316782E0,-3.283972896E0,2.633001939E-1,4.557631092E0
9.994875208E0,-2.575206159E0,-2.897024630E0,3.616619825E-1,3.892972882E0
1.000485221E1,-2.097017647E0,-2.295173646E0,3.272686601E-1,3.126085388E0
1.001483021E1,-2.091451975E0,-1.705668474E0,4.296627617E-1,2.732779976E0
1.002480821E1,-2.964986525E0,-1.513386880E0,8.856777549E-1,3.444693024E0
1.003478621E1,-3.950755748E0,-1.457140174E0,1.640607090E0,4.519216756E0
1.004476421E1,-4.599898719E0,-1.349177769E0,2.396236922E0,5.359225715E0
1.005474121E1,-4.686286945E0,-1.217722421E0,2.809908718E0,5.598189013E0
1.006471921E1,-4.089790549E0,-9.524827784E-1,2.747939926E0,5.018444382E0
1.007469721E1,-3.352129211E0,-8.826728708E-1,2.119377108E0,4.062959632E0
1.008467521E1,-2.765649973E0,-1.065751532E0,1.106800740E0,3.163803720E0
1.009465221E1,-2.509748627E0,-1.140335106E0,3.254629668E-1,2.775811317E0
1.010463021E1,-2.649013224E0,-1.141708617E0,1.057371010E-1,2.886511729E0
1.011460821E1,-2.975698916E0,-1.062824416E0,5.415872401E-1,3.205884670E0
1.012458621E1,-3.108719564E0,-7.184123039E-1,1.325918276E0,3.455186368E0
1.013456421E1,-3.044667702E0,-4.751517606E-1,1.903870958E0,3.622222417E0
1.014454121E1,-3.050496499E0,-3.981152791E-1,1.934678622E0,3.634144471E0
1.015451921E1,-3.173515484E0,-2.845336998E-1,1.481313148E0,3.513751357E0
1.016449721E1,-3.343746058E0,-3.118238246E-1,9.623851843E-1,3.493430555E0
1.017447521E1,-3.568214528E0,-2.923830020E-1,8.329076569E-1,3.675782624E0
1.018445221E1,-3.615632523E0,-9.359053373E-2,1.016213336E0,3.756893301E0
1.019443021E1,-3.468592006E0,1.513352966E-1,1.261486783E0,3.693965590E0
1.020440821E1,-3.057418140E0,4.652436537E-1,1.513893688E0,3.443273361E0
1.021438621E1,-2.648834299E0,1.004337056E0,1.640707516E0,3.273673352E0
1.022436321E1,-2.541399897E0,1.404967223E0,1.452195037E0,3.246770205E0
1.023434121E1,-2.756042413E0,1.503617937E0,9.584065926E-1,3.282556912E0
1.024431921E1,-3.299299033E0,1.426962109E0,4.643595546E-1,3.624530972E0
1.025429721E1,-3.950510457E0,1.476356463E0,3.570140308E-1,4.232448499E0
1.026427421E1,-4.352070916E0,1.636233957E0,5.321442792E-1,4.679846189E0
1.027425221E1,-4.522119057E0,1.558939029E0,7.920316726E-1,4.848418900E0
1.028423021E1,-4.450033705E0,1.669288852E0,1.185901581E0,4.898539354E0
1.029420821E1,-4.098476003E0,1.863708773E0,1.707244883E0,4.815142888E0
1.030418621E1,-3.590325481E0,1.828276400E0,2.130749942E0,4.557754598E0
1.031416321E1,-3.040750360E0,1.751310670E0,2.401935326E0,4.252357596E0
1.032414121E1,-2.450200875E0,1.675172321E0,2.722020974E0,4.027292491E0
1.033411921E1,-1.930741838E0,1.653224797E0,3.136613414E0,4.037234199E0
1.034409721E1,-1.478000993E0,1.854380125E0,3.448262115E0,4.184940166E0
1.035407421E1,-1.130482621E0,2.228626485E0,3.537304392E0,4.330968636E0
1.036405221E1,-1.053684267E0,2.604522929E0,3.347462841E0,4.370274327E0
1.037403021E1,-1.265095100E0,2.806516748E0,2.689361351E0,4.087745876E0
1.038400821E1,-1.507023209E0,2.911541512E0,2.117261585E0,3.902690040E0
1.039398521E1,-1.768454121E0,2.896053992E0,2.108156886E0,3.994857214E0
1.040396321E1,-2.078868182E0,2.686112053E0,2.482101529E0,4.206865684E0
1.041394121E1,-2.251242053E0,2.491514377E0,2.981868898E0,4.490799127E0
1.042391921E1,-2.270959011E0,2.413372772E0,3.500496461E0,4.820279913E0
1.043389621E1,-2.037427065E0,2.464052929E0,3.868844150E0,5.019025895E0
1.044387421E1,-1.514020134E0,2.514070011E0,3.857425708E0,4.846910158E0
1.045385221E1,-1.074898624E0,2.540318162E0,3.306732599E0,4.306170444E0
1.046383021E1,-5.640457742E-1,2.655755063E0,2.555453973E0,3.728475238E0
1.047380821E1,-1.206821822E-1,2.741738369E0,1.826473119E0,3.296619106E0
1.048378521E1,2.816451752E-1,2.775393189E0,1.693663555E0,3.263529929E0
1.049376321E1,6.707163466E-1,2.775298464E0,2.292658174E0,3.661751423E0
1.050374121E1,1.123309695E0,2.808935741E0,3.163608547E0,4.377255271E0
1.051371921E1,1.607073016E0,2.852627891E0,3.978198193E0,5.152303409E0
1.052369621E1,2.056145610E0,2.807425990E0,4.562154357E0,5.737824312E0
1.053367421E1,2.305817918E0,2.659707781E0,4.719849378E0,5.887938510E0
1.054365221E1,2.678167733E0,2.514824887E0,4.506763684E0,5.814451437E0
1.055363021E1,3.222787632E0,2.420176007E0,4.178343414E0,5.805356640E0
1.056360721E1,3.729126686E0,2.297859272E0,3.865337283E0,5.841864034E0
1.057358521E1,4.027489928E0,2.132130470E0,3.666371152E0,5.848840303E0
1.058356321E1,4.132966682E0,1.937787148E0,3.545291396E0,5.779751180E0
1.059354121E1,4.184525675E0,1.702707444E0,3.469343081E0,5.696122293E0
1.060351921E1,4.245389051E0,1.514828804E0,3.395529000E0,5.643372368E0
1.061349621E1,4.247103454E0,1.276964656E0,3.222156717E0,5.481862858E0
1.062347421E1,4.170428916E0,1.075422826E0,3.046670081E0,5.275529374E0
1.063345221E1,4.058705289E0,8.801772791E-1,3.055640295E0,5.156039010E0
1.064343021E1,3.927829108E0,5.746900821E-1,3.167093487E0,5.078246877E0
1.065340721E1,3.872099295E0,3.701977479E-1,3.174282054E0,5.020584218E0
1.066338521E1,3.997153696E0,2.740321004E-1,3.067795486E0,5.046156994E0
1.067336321E1,4.254204313E0,2.451749218E-1,2.861306913E0,5.132781150E0
1.068334121E1,4.592870366E0,2.359714043E-1,2.471007607E0,5.220729767E0
1.069331821E1,4.992864355E0,2.474857414E-1,2.035639132E0,5.397570781E0
1.070329621E1,5.275659093E0,1.386509317E-1,1.569980911E0,5.506055122E0
1.071327421E1,5.428777791E0,9.728655875E-2,1.136532077E0,5.547323511E0
1.072325221E1,5.196308284E0,1.661193967E-2,9.416345854E-1,5.280963116E0
1.073323021E1,4.726077540E0,-1.847550577E-1,1.074222247E0,4.850143996E0
1.074320721E1,4.204048651E0,-4.408017075E-1,1.265548405E0,4.412475946E0
1.075318521E1,3.874569452E0,-7.171726942E-1,1.315012049E0,4.154019956E0
1.076316321E1,3.850558738E0,-9.189326245E-1,1.170115487E0,4.128003151E0
1.077314121E1,3.845783901E0,-1.045634771E0,1.061348505E0,4.124301946E0
1.078311821E1,3.857885299E0,-1.173495251E0,1.094758399E0,4.178380791E0
1.079309621E1,3.801154443E0,-1.293159689E0,1.037515985E0,4.146984025E0
1.080307421E1,3.574206462E0,-1.529784812E0,8.295602721E-1,3.975344469E0
1.081305221E1,3.298831548E0,-1.781005170E0,6.213613880E-1,3.800047233E0
1.082302921E1,2.957478992E0,-1.973828800E0,6.338650739E-1,3.611712482E0
1.083300721E1,2.565069426E0,-2.166864685E0,7.099291635E-1,3.432037753E0
1.084298521E1,2.279854380E0,-2.348672161E0,8.819636035E-1,3.389964116E0
1.085296321E1,2.102466668E0,-2.495433766E0,1.226716608E0,3.486027740E0
1.086294021E1,2.131794986E0,-2.749283617E0,1.591317986E0,3.825624550E0
1.087291821E1,2.229909364E0,-3.001541271E0,1.711104630E0,4.112131421E0
1.088289621E1,2.282703874E0,-3.143492371E0,1.427900587E0,4.138983130E0
1.089287421E1,2.276328363E0,-3.157964230E0,9.471928024E-1,4.006442698E0
1.090285221E1,2.310400819E0,-3.265654739E0,5.089241087E-1,4.032549636E0
1.091282921E1,2.295413967E0,-3.456018446E0,2.695157111E-1,4.157598766E0
1.092280721E1,2.286495063E0,-3.550258021E0,3.207688221E-1,4.235007004E0
1.093278504E1,2.340044448E0,-3.637945206E0,5.873188253E-1,4.365248760E0
1.094276304E1,2.385796279E0,-3.767194984E0,8.594823018E-1,4.541199375E0
1.095274004E1,2.348271188E0,-3.738384583E0,8.110463063E-1,4.488618159E0
1.096271804E1,2.090651491E0,-3.602699944E0,5.423818767E-1,4.200529567E0
1.097269604E1,1.706622009E0,-3.520016806E0,2.649852884E-1,3.920879263E0
1.098267404E1,1.311690392E0,-3.554504269E0,6.217227459E-2,3.789313615E0
1.099265104E1,8.642453706E-1,-3.573106016E0,-3.468465999E-2,3.676303808E0
1.100262904E1,5.850481322E-1,-3.542792881E0,-9.569903970E-2,3.592049696E0
1.101260704E1,3.786746027E-1,-3.502790909E0,-1.451524508E-1,3.526188855E0
1.102258504E1,1.042827523E-1,-3.472046834E0,-2.667816992E-1,3.483842215E0
1.103256304E1,-2.505562605E-1,-3.481749703E0,-4.486135876E-1,3.519462116E0
1.104254004E1,-5.886573992E-1,-3.511820179E0,-5.617898087E-1,3.604858707E0
1.105251804E1,-9.410393389E-1,-3.537481270E0,-6.594864035E-1,3.719442309E0
1.106249604E1,-1.184703194E0,-3.380189999E0,-7.327683878E-1,3.655975328E0
1.107247404E1,-1.038409220E0,-3.286879547E0,-6.163759057E-1,3.501683898E0
1.108245104E1,-4.629153655E-1,-3.253005458E0,-2.562412159E-1,3.295754042E0
1.109242904E1,-1.026191463E-1,-3.336906570E0,6.552053645E-2,3.339126995E0
1.110240704E1,4.467126578E-2,-3.405900791E0,2.756038320E-1,3.417325445E0
1.111238504E1,1.949496782E-1,-3.514576557E0,3.723927927E-1,3.539622881E0
1.112236204E1,6.488658864E-2,-3.761409164E0,3.786573534E-1,3.780977461E0
1.113234004E1,-2.310435171E-1,-3.843514597E0,3.158629350E-1,3.863386462E0
1.114231804E1,-4.310598808E-1,-3.742537860E0,2.638475664E-1,3.776508678E0
1.115229604E1,-6.073353063E-1,-3.656337038E0,3.803438365E-1,3.725898300E0
1.116227404E1,-9.488895913E-1,-3.632600266E0,6.005874002E-1,3.802220584E0
1.117225104E1,-1.487176736E0,-3.699508785E0,7.781065285E-1,4.062451189E0
1.118222904E1,-1.913490505E0,-3.797302297E0,7.921235470E-1,4.325321995E0
1.119220704E1,-2.169042773E0,-3.821755353E0,5.637383933E-1,4.430390672E0
1.120218504E1,-2.281139159E0,-3.779788717E0,1.523562936E-1,4.417421312E0
1.121216204E1,-2.226381593E0,-3.707477955E0,-1.863120981E-1,4.328611785E0
1.122214004E1,-2.154283231E0,-3.640928455E0,-4.014872953E-1,4.249528009E0
1.123211804E1,-2.264914305E0,-3.495196545E0,-5.150519542E-1,4.196607465E0
1.124209604E1,-2.281628279E0,-3.059587165E0,-4.532854398E-1,3.843483955E0
1.125207304E1,-2.361087846E0,-2.666009325E0,-3.059274924E-1,3.574343740E0
1.126205104E1,-2.622803957E0,-2.503028129E0,-1.594699430E-1,3.629005521E0
1.127202904E1,-2.856245563E0,-2.344865624E0,-8.368067265E-2,3.696422049E0
1.128200704E1,-3.051539642E0,-2.274375100E0,-1.382235003E-1,3.808383124E0
1.129198404E1,-3.217338319E0,-2.333226156E0,-2.885565841E-1,3.984780428E0
1.130196204E1,-3.107547490E0,-2.033089746E0,-3.807899791E-1,3.733002321E0
1.131194004E1,-2.815339027E0,-1.816912336E0,-4.041016950E-1,3.374996660E0
1.132191804E1,-2.399741304E0,-1.610748868E0,-4.232179971E-1,2.921024429E0
1.133189604E1,-1.898274588E0,-1.242232195E0,-5.311985651E-1,2.329969775E0
1.134187304E1,-1.695614625E0,-1.206454836E0,-5.509251704E-1,2.152710099E0
1.135185104E1,-1.898981663E0,-1.171924104E0,-2.865034805E-1,2.249804815E0
1.136182904E1,-2.454983312E0,-1.016676435E0,2.821269127E-1,2.672109585E0
1.137180704E1,-3.062413124E0,-1.146324409E0,7.578394943E-1,3.356598650E0
1.138178404E1,-3.731347751E0,-1.424616206E0,1.091551201E0,4.140527913E0
1.139176204E1,-4.392174044E0,-1.246671985E0,1.473488404E0,4.797556873E0
1.140174004E1,-4.735949979E0,-9.188624579E-1,1.550502520E0,5.067305841E0
1.141171804E1,-4.684456767E0,-6.704347301E-1,1.403429405E0,4.935912481E0
1.142169504E1,-4.375924047E0,-4.039297503E-1,1.188948857E0,4.552523465E0
1.143167304E1,-4.055346941E0,-2.599110746E-1,8.911938719E-1,4.160242672E0
1.144165104E1,-3.919625464E0,-5.493459105E-3,7.040192364E-1,3.982353204E0
1.145162904E1,-3.987592622E0,2.976618683E-1,8.456031315E-1,4.087119054E0
1.146160704E1,-4.088977202E0,1.618538529E-1,1.079179955E0,4.232087026E0
1.147158404E1,-4.243305103E0,-1.526824951E-2,1.329667949E0,4.446784026E0
1.148156204E1,-4.398682580E0,5.447909296E-2,1.640196615E0,4.694850514E0
1.149154004E1,-4.405494002E0,-8.718198538E-4,1.929552222E0,4.809526997E0
1.150151804E1,-4.290413196E0,2.510502040E-1,1.888467638E0,4.694356358E0
1.151149504E1,-4.120594851E0,7.381846637E-1,1.572647826E0,4.471849696E0
1.152147304E1,-3.959671290E0,9.900026071E-1,1.232478746E0,4.263578983E0
1.153145104E1,-3.751532632E0,1.219022841E0,1.002938695E0,4.070122824E0
1.154142904E1,-3.645289893E0,1.514076852E0,9.862869939E-1,4.068578272E0
1.155140604E1,-3.512420104E0,1.421751071E0,1.218713524E0,3.980418790E0
1.156138404E1,-3.489675604E0,1.150957158E0,1.626595407E0,4.018501066E0
1.157136204E1,-3.641703211E0,8.521685314E-1,2.098587332E0,4.288620090E0
1.158134004E1,-3.834734710E0,5.711302972E-1,2.429570144E0,4.575389732E0
1.159131704E1,-3.976553079E0,6.707914102E-1,2.592799847E0,4.794324410E0
1.160129504E1,-3.912347435E0,9.664576238E-1,2.571633511E0,4.780564998E0
1.161127304E1,-3.607904258E0,1.331506314E0,2.457371315E0,4.563831283E0
1.162125104E1,-3.309597442E0,1.935771028E0,2.365239077E0,4.504997291E0
1.163122904E1,-2.995587343E0,2.527739632E0,2.406976210E0,4.599624512E0
1.164120604E1,-2.921431200E0,2.886897252E0,2.490872937E0,4.803476240E0
1.165118404E1,-2.934214383E0,3.059063255E0,2.609660293E0,4.977731299E0
1.166116204E1,-2.784957187E0,3.372693869E0,2.807855176E0,5.197605329E0
1.167114004E1,-2.553150170E0,3.847696525E0,2.956312473E0,5.482985298E0
1.168111704E1,-2.398847265E0,4.121840892E0,3.158305122E0,5.720046485E0
1.169109504E1,-2.721950807E0,4.378797369E0,3.605594900E0,6.291517876E0
1.170107304E1,-3.348436402E0,4.754143590E0,4.065129333E0,7.095011213E0
1.171105104E1,-3.680234608E0,4.993634434E0,4.595816193E0,7.720235625E0
1.172102804E1,-3.431403715E0,5.126036446E0,5.127267870E0,8.021200466E0
1.173100604E1,-2.556611429E0,5.138344835E0,5.834165837E0,8.183907419E0
1.174098404E1,-1.545085075E0,4.923491235E0,6.690011097E0,8.448923145E0
1.175096204E1,-4.469204898E-1,4.594173710E0,7.367263681E0,8.693833685E0
1.176094004E1,8.344729565E-1,4.250099568E0,8.028216566E0,9.122058577E0
1.177091704E1,2.278997324E0,3.942814352E0,8.791913216E0,9.901381309E0
1.178089504E1,3.863758242E0,3.698998908E0,9.258296492E0,1.069239331E1
1.179087304E1,5.220575398E0,3.605887846E0,9.180732592E0,1.115986942E1
1.180085104E1,6.150347006E0,3.424094403E0,8.840403591E0,1.130061620E1
1.181082804E1,6.715617224E0,2.996964070E0,8.340112896E0,1.111929815E1
1.182080604E1,7.065503499E0,2.559204669E0,7.476755133E0,1.060060072E1
1.183078404E1,7.224358315E0,1.991671579E0,6.365259079E0,9.832325863E0
1.184076204E1,7.126641401E0,1.399082585E0,5.109471869E0,8.879929759E0
1.185073904E1,6.947787353E0,9.922596323E-1,4.141602142E0,8.149183799E0
1.186071704E1,6.599366391E0,4.864374715E-1,3.794585681E0,7.628049466E0
1.187069504E1,6.363195012E0,3.334082365E-3,3.773949687E0,7.398172620E0
1.188067304E1,6.369627534E0,-3.374480778E-1,3.803529582E0,7.426497385E0
1.189065004E1,6.521343484E0,-6.752352941E-1,3.717650649E0,7.536895242E0
1.190062804E1,6.786082605E0,-9.750594628E-1,3.497538063E0,7.696390750E0
1.191060604E1,7.002660549E0,-1.251839170E0,3.231611665E0,7.813300840E0
1.192058404E1,7.093345016E0,-1.595923837E0,3.010664389E0,7.869346636E0
1.193056204E1,7.155463496E0,-1.917452286E0,2.747534130E0,7.901026826E0
1.194053904E1,7.087192576E0,-2.255837088E0,2.397044276E0,7.814276731E0
1.195051704E1,6.908781163E0,-2.433041636E0,2.062985244E0,7.609655503E0
1.196049504E1,6.637903050E0,-2.529658688E0,1.888896677E0,7.350432684E0
1.197047304E1,6.336448093E0,-2.747916538E0,1.914092914E0,7.166963891E0
1.198045004E1,5.960936396E0,-3.001821352E0,1.997709852E0,6.966673438E0
1.199042804E1,5.605964797E0,-3.330386925E0,1.953946513E0,6.807071716E0
1.200040604E1,5.388738981E0,-3.601569677E0,1.663764403E0,6.691630888E0
1.201038404E1,5.104336844E0,-3.860873226E0,1.270975353E0,6.525026822E0
1.202036104E1,4.692451957E0,-4.074334019E0,8.943129230E-1,6.278463082E0
1.203033904E1,4.330965683E0,-4.225987989E0,4.765440192E-1,6.069870875E0
1.204031704E1,3.994968884E0,-4.356924105E0,-6.160626411E-3,5.911226776E0
1.205029504E1,3.742538737E0,-4.463027680E0,-3.461867416E-1,5.834814267E0
1.206027204E1,3.590397402E0,-4.540917270E0,-4.138051128E-1,5.803629712E0
1.207025004E1,3.537934429E0,-4.504159918E0,-2.911364122E-1,5.734910375E0
1.208022804E1,3.475304025E0,-4.480360581E0,-2.146232200E-1,5.674278115E0
1.209020604E1,3.403044134E0,-4.525110492E0,-1.168506845E-1,5.663125323E0
1.210018404E1,3.290518270E0,-4.620052902E0,1.083724045E-1,5.673107074E0
1.211016104E1,3.014349889E0,-4.699666252E0,2.610455076E-1,5.589392891E0
1.212013904E1,2.481215968E0,-4.603925697E0,1.703914455E-1,5.232742851E0
1.213011704E1,1.879216027E0,-4.473926305E0,-1.407529327E-1,4.854614387E0
1.214009504E1,1.403539625E0,-4.461192824E0,-5.466292942E-1,4.708605789E0
1.215007204E1,1.170266126E0,-4.532838172E0,-9.004162467E-1,4.767273237E0
1.216005004E1,1.081096453E0,-4.608107625E0,-1.031058247E0,4.844224038E0
1.217002804E1,9.702993907E-1,-4.580859016E0,-9.060108626E-1,4.769340197E0
1.218000604E1,6.503179693E-1,-4.560944569E0,-7.091584273E-1,4.661333982E0
1.218998304E1,1.426486731E-1,-4.673712800E0,-5.631032395E-1,4.709673581E0
1.219996104E1,-4.431552849E-1,-4.805636510E0,-5.386455059E-1,4.855992984E0
1.220993904E1,-9.884587229E-1,-4.850546635E0,-4.850149901E-1,4.973941379E0
1.221991704E1,-1.171473649E0,-4.907947581E0,-2.138149886E-1,5.050348188E0
1.222989504E1,-9.216035595E-1,-4.939298598E0,2.144770396E-1,5.029117632E0
1.223987204E1,-5.391998950E-1,-4.964863209E0,4.819647901E-1,5.017259538E0
1.224985004E1,-4.126431249E-2,-4.930150629E0,5.214220206E-1,4.957818965E0
1.225982804E1,2.180971239E-1,-4.919752525E0,4.016382996E-1,4.940935598E0
1.226980604E1,-2.388594903E-2,-4.901392853E0,1.753450605E-1,4.904586458E0
1.227978304E1,-6.524610469E-1,-4.826498206E0,3.478501283E-2,4.870523622E0
1.228976104E1,-1.271988529E0,-4.827257760E0,9.930911064E-3,4.992040757E0
1.229973904E1,-1.648501123E0,-4.758147764E0,6.951871634E-2,5.036105534E0
1.230971704E1,-1.947558137E0,-4.636307577E0,3.003807871E-1,5.037713694E0
1.231969404E1,-2.100548196E0,-4.529597645E0,4.888166670E-1,5.016821632E0
1.232967204E1,-1.983553305E0,-4.392614340E0,3.931410527E-1,4.835711358E0
1.233965004E1,-1.605501723E0,-4.096546422E0,2.021136868E-1,4.404563351E0
1.234962804E1,-1.221014988E0,-4.077935320E0,-1.246018267E-1,4.258633547E0
1.235960604E1,-1.236113230E0,-4.078168039E0,-6.486345559E-1,4.310470654E0
1.236958304E1,-1.218801817E0,-3.920880861E0,-1.040870460E0,4.235822932E0
1.237956104E1,-1.393839679E0,-3.892700205E0,-1.210425096E0,4.308251716E0
1.238953904E1,-1.863819724E0,-3.720741194E0,-1.058891578E0,4.294064552E0
1.239951704E1,-2.480899926E0,-3.333436248E0,-6.570937228E-1,4.206950656E0
1.240949404E1,-2.617837916E0,-3.042161878E0,-2.002016473E-1,4.018445588E0
1.241947204E1,-2.068027883E0,-2.680350206E0,4.695717627E-1,3.417823020E0
1.242945004E1,-1.428436338E0,-2.354022363E0,1.200709947E0,3.003923441E0
1.243942804E1,-1.074279842E0,-2.109098287E0,1.607489630E0,2.861187808E0
1.244940504E1,-1.428960834E0,-1.948869376E0,1.688460118E0,2.948036377E0
1.245938304E1,-2.372117596E0,-1.860714998E0,1.816365914E0,3.519714097E0
1.246936104E1,-3.513630477E0,-1.769503697E0,2.198426201E0,4.506641790E0
1.247933904E1,-4.221087730E0,-1.674691095E0,2.645994599E0,5.255802442E0
1.248931604E1,-4.281535369E0,-1.318608525E0,3.033310655E0,5.410290850E0
1.249929404E1,-4.018372073E0,-8.021064252E-1,3.256541269E0,5.234094942E0
1.250927204E1,-3.658820643E0,-2.902095920E-1,2.941385116E0,4.703502578E0
1.251925004E1,-3.626311585E0,1.487940967E-1,2.274285638E0,4.283065556E0
1.252922804E1,-4.137820163E0,3.584308112E-1,1.716222698E0,4.493934657E0
1.253920504E1,-4.774877232E0,3.605890185E-1,1.499061202E0,5.017635052E0
1.254918304E1,-5.340323451E0,2.571710694E-1,1.770992982E0,5.632193859E0
1.255916104E1,-5.732733017E0,1.647067094E-1,2.255660794E0,6.162739794E0
1.256913904E1,-5.719149351E0,3.155976176E-1,2.710555461E0,6.336827444E0
1.257911604E1,-5.298032295E0,6.026923978E-1,2.866031756E0,6.053637117E0
1.258909404E1,-4.731073401E0,1.247945509E0,2.652161072E0,5.565463311E0
1.259907204E1,-4.554837152E0,2.113545679E0,2.195285076E0,5.480227494E0
1.260905004E1,-4.727479410E0,2.525831686E0,1.681848087E0,5.617606275E0
1.261902704E1,-4.900184526E0,2.681869898E0,1.714659737E0,5.843311779E0
1.262900504E1,-4.714744759E0,2.702413505E0,2.447541561E0,5.960060116E0
1.263898304E1,-4.271806479E0,2.514084045E0,3.768384892E0,6.226529842E0
1.264896104E1,-3.649643145E0,2.319184653E0,5.082354237E0,6.672993116E0
1.265893904E1,-2.756345299E0,2.145400141E0,5.817874324E0,6.785856086E0
1.266891604E1,-1.661367044E0,1.994619160E0,5.883370156E0,6.430605760E0
1.267889404E1,-6.808266941E-1,1.906391108E0,5.241773894E0,5.619078714E0
1.268887204E1,-3.265561038E-1,2.013327327E0,4.294804455E0,4.754521124E0
1.269885004E1,-6.677538548E-1,2.156060200E0,3.583020555E0,4.234681463E0
1.270882704E1,-1.283085229E0,2.262715167E0,3.340837653E0,4.234074144E0
1.271880504E1,-1.949021988E0,2.173866726E0,3.487454247E0,4.548265645E0
1.272878304E1,-2.427175124E0,2.002101257E0,3.743704380E0,4.890287416E0
1.273876104E1,-2.716736845E0,1.840013516E0,3.678194515E0,4.929038822E0
1.274873804E1,-3.117937115E0,1.556541671E0,3.233058266E0,4.753632251E0
1.275871604E1,-3.583418165E0,1.340918577E0,2.425888737E0,4.530329408E0
1.276869404E1,-3.731584564E0,1.301292581E0,1.672246959E0,4.291211440E0
1.277867204E1,-3.286984212E0,1.319630619E0,1.393020192E0,3.806073493E0
1.278865004E1,-2.391743044E0,1.504488587E0,1.447136757E0,3.174606352E0
1.279862704E1,-1.913844554E0,1.446844981E0,1.695155180E0,2.937637224E0
1.280860504E1,-1.530771383E0,1.537000861E0,2.384776379E0,3.223785205E0
1.281858304E1,-1.099631103E0,1.554751838E0,3.496136193E0,3.981131763E0
1.282856104E1,-5.798639543E-1,1.582679894E0,4.600867603E0,4.899908219E0
1.283853804E1,2.606023617E-2,1.822036836E0,5.289690657E0,5.594758673E0
1.284851604E1,4.415494933E-1,2.009912553E0,5.477834761E0,5.851614144E0
1.285849404E1,5.744464725E-1,2.152269450E0,5.285885289E0,5.736099356E0
1.286847204E1,6.827952323E-1,2.296013891E0,5.031664140E0,5.572749154E0
1.287844904E1,1.075917355E0,2.424550894E0,5.019359259E0,5.677148277E0
1.288842704E1,2.042206286E0,2.583243157E0,5.220861912E0,6.172612966E0
1.289840504E1,3.428147108E0,2.643353704E0,5.403408476E0,6.923607048E0
1.290838304E1,4.882507808E0,2.737024929E0,5.481652992E0,7.834456426E0
1.291836004E1,5.759041979E0,2.745993973E0,5.578482884E0,8.475052726E0
1.292834017E1,6.031350905E0,2.562719430E0,5.798927007E0,8.750558785E0
1.293831817E1,5.967008729E0,2.212066001E0,5.904886156E0,8.681365657E0
1.294829617E1,5.816154073E0,1.889940552E0,5.741869292E0,8.388598599E0
1.295827417E1,5.620195751E0,1.512043190E0,5.358038760E0,7.910844092E0
1.296825117E1,5.577383022E0,1.066291230E0,4.819542651E0,7.447964133E0
1.297822917E1,5.871922477E0,7.515315181E-1,4.233209008E0,7.277659769E0
1.298820717E1,6.311474050E0,4.879863989E-1,3.689231426E0,7.326886374E0
1.299818517E1,6.739484974E0,2.730205321E-1,3.207943305E0,7.469009183E0
1.300816217E1,7.090124370E0,2.732754707E-2,2.810997762E0,7.627077998E0
1.301814017E1,7.442249544E0,-2.830069917E-1,2.520945752E0,7.862718278E0
1.302811817E1,7.919102844E0,-5.598364002E-1,2.313882105E0,8.269199299E0
1.303809617E1,8.338019008E0,-7.577962250E-1,2.049221630E0,8.619520021E0
1.304807317E1,8.689407433E0,-9.456123000E-1,1.786764970E0,8.921463625E0
1.305805117E1,8.858391380E0,-1.295144234E0,1.541293302E0,9.084276607E0
1.306802917E1,8.936072225E0,-1.703215567E0,1.325168517E0,9.192953915E0
1.307800717E1,8.952387711E0,-2.063232143E0,1.020678124E0,9.243590019E0
1.308798417E1,8.866589761E0,-2.360094697E0,6.341884249E-1,9.197209138E0
1.309796217E1,8.553961945E0,-2.709216741E0,3.866303243E-1,8.981069163E0
1.310794017E1,8.106005584E0,-3.106017566E0,2.489310269E-1,8.684275347E0
1.311791817E1,7.596706084E0,-3.553648821E0,1.056738049E-1,8.387462681E0
1.312789617E1,7.017528264E0,-3.838872492E0,3.748547629E-2,7.999003070E0
1.313787317E1,6.559748581E0,-4.180627629E0,9.275080048E-2,7.779238493E0
1.314785117E1,6.192459238E0,-4.515770150E0,2.976139212E-1,7.669896056E0
1.315782917E1,5.802829438E0,-4.654630412E0,6.131811333E-1,7.464208254E0
1.316780717E1,5.428818721E0,-4.827228523E0,8.532174488E-1,7.314518982E0
1.317778417E1,5.164546208E0,-5.161509749E0,8.515721154E-1,7.351115255E0
1.318776217E1,4.916328980E0,-5.507581885E0,6.513961228E-1,7.411347096E0
1.319774017E1,4.577729586E0,-5.744428033E0,3.174389058E-1,7.352198926E0
1.320771817E1,4.190200691E0,-5.930468309E0,4.518845201E-2,7.261561691E0
1.321769517E1,3.763991587E0,-6.131143581E0,-1.623631636E-1,7.196173710E0
1.322767317E1,3.283906238E0,-6.245630894E0,-4.189857459E-1,7.068768952E0
1.323765117E1,2.783033161E0,-6.297086391E0,-6.523621559E-1,6.915500486E0
1.324762917E1,2.322619453E0,-6.430787070E0,-7.726744652E-1,6.880887246E0
1.325760717E1,1.855042468E0,-6.620376606E0,-8.154281366E-1,6.923546202E0
1.326758417E1,1.470564796E0,-6.901241178E0,-9.615114641E-1,7.121389956E0
1.327756217E1,1.189711846E0,-7.173399830E0,-1.268761597E0,7.381248905E0
1.328754017E1,9.322080698E-1,-7.432798689E0,-1.699599649E0,7.681415703E0
1.329751817E1,7.229686005E-1,-7.647832384E0,-2.095842065E0,7.962699148E0
1.330749517E1,6.055282243E-1,-7.869724277E0,-2.305180571E0,8.222717440E0
1.331747317E1,4.806637115E-1,-7.939773336E0,-2.086624514E0,8.223444539E0
1.332745117E1,3.303092122E-1,-7.778044029E0,-1.661995035E0,7.960483691E0
1.333742917E1,2.873102501E-2,-7.662474396E0,-1.299979881E0,7.772019495E0
1.334740617E1,-3.444283377E-1,-7.510337446E0,-9.747980922E-1,7.581162890E0
1.335738417E1,-8.157422782E-1,-7.332807208E0,-5.623840686E-1,7.399444091E0
1.336736217E1,-1.601002875E0,-7.250958468E0,-1.076823600E-1,7.426385689E0
1.337734017E1,-2.289430365E0,-6.966603693E0,3.301221013E-1,7.340574842E0
1.338731817E1,-2.835501981E0,-6.516667466E0,5.803852701E-1,7.130489002E0
1.339729517E1,-3.323091646E0,-5.970715864E0,5.644059992E-1,6.856452446E0
1.340727317E1,-3.493605518E0,-5.186190847E0,2.813272329E-1,6.259472823E0
1.341725117E1,-3.382617763E0,-4.478690616E0,-1.406935103E-1,5.614318056E0
1.342722917E1,-3.144954175E0,-3.751833764E0,-3.435462852E-1,4.907648867E0
1.343720617E1,-3.309156269E0,-3.203961936E0,-3.088046148E-2,4.606174216E0
1.344718417E1,-3.983390520E0,-2.984148143E0,4.957474083E-1,5.001830232E0
1.345716217E1,-5.156558912E0,-2.923731202E0,6.854416090E-1,5.967255161E0
1.346714017E1,-6.302652941E0,-2.481668835E0,6.938598454E-1,6.809078923E0
1.347711717E1,-6.906704816E0,-1.541880362E0,9.805118452E-1,7.144324317E0
1.348709517E1,-6.666718129E0,-8.890077442E-1,1.492523722E0,6.889346300E0
1.349707317E1,-5.779801934E0,-5.094544512E-1,2.026651085E0,6.145971758E0
1.350705117E1,-4.448162888E0,-1.071309310E-1,2.133028602E0,4.934312630E0
1.351702817E1,-3.640746899E0,4.691150951E-1,1.796152382E0,4.086718774E0
1.352700617E1,-4.366351278E0,5.423403615E-1,1.462562589E0,4.636620092E0
1.353698417E1,-5.795040947E0,4.547747988E-1,1.669417491E0,6.047832211E0
1.354696217E1,-6.653320988E0,5.201577795E-1,2.497900121E0,7.125780610E0
1.355693917E1,-6.650090402E0,3.294426548E-1,3.606431344E0,7.572224367E0
1.356691717E1,-5.999086554E0,-8.303046227E-2,4.250793048E0,7.352902493E0
1.357689517E1,-5.113652628E0,-5.922551179E-1,4.036393191E0,6.541611370E0
1.358687317E1,-4.055670584E0,-1.150586445E0,3.186130852E0,5.284292087E0
1.359685117E1,-2.666575921E0,-1.326905724E0,2.042465172E0,3.611505215E0
1.360682817E1,-1.404053011E0,-9.601461393E-1,8.794419917E-1,1.914853436E0
1.361680617E1,-1.296879833E0,-5.044369555E-1,6.696816087E-2,1.393139863E0
1.362678417E1,-2.079624227E0,-3.501189941E-1,-2.060751754E-1,2.118935397E0
1.363676217E1,-2.835356385E0,-2.283220768E-1,-6.819490671E-2,2.845351885E0
1.364673917E1,-3.401038831E0,-1.534367859E-2,5.769400907E-1,3.449660915E0
1.365671717E1,-3.575139093E0,1.912232476E-1,1.506046286E0,3.884116538E0
1.366669517E1,-3.294500516E0,3.810571969E-1,2.073273274E0,3.911189116E0
1.367667317E1,-2.906704111E0,5.695954031E-1,1.978593696E0,3.562050073E0
1.368665017E1,-2.637542741E0,8.845808172E-1,1.464838033E0,3.144020578E0
1.369662817E1,-2.737726595E0,1.269990097E0,9.420092458E-1,3.161550754E0
1.370660617E1,-2.875597216E0,1.597217826E0,9.128497660E-1,3.413716278E0
1.371658417E1,-3.088815642E0,1.742198369E0,1.507102877E0,3.853231931E0
1.372656217E1,-3.375193554E0,1.742383726E0,2.335777881E0,4.459113239E0
1.373653917E1,-3.563769182E0,1.803898188E0,3.093988089E0,5.052451064E0
1.374651717E1,-3.473629090E0,1.803973618E0,3.548780429E0,5.283394970E0
1.375649517E1,-3.080585101E0,1.823803865E0,3.494979029E0,5.003113382E0
1.376647317E1,-2.597253963E0,2.028510207E0,3.304075624E0,4.666636641E0
1.377645017E1,-2.303910994E0,2.248621624E0,3.310733848E0,4.617928506E0
1.378642817E1,-1.933813234E0,2.327192414E0,3.405702571E0,4.555685257E0
1.379640617E1,-1.610825759E0,2.530925195E0,3.608651825E0,4.692836025E0
1.380638417E1,-1.592391388E0,2.784592028E0,3.859651158E0,5.018622337E0
1.381636117E1,-1.529115452E0,3.017826936E0,4.173534372E0,5.372509901E0
1.382633917E1,-1.385086690E0,3.168550614E0,4.474182998E0,5.654776002E0
1.383631717E1,-1.452428926E0,3.209360670E0,4.530844272E0,5.739172023E0
1.384629517E1,-1.619421166E0,3.151551588E0,4.336056561E0,5.599659707E0
1.385627217E1,-1.796712107E0,3.119806470E0,3.951452444E0,5.345591007E0
1.386625017E1,-1.971796308E0,3.058344047E0,3.423007990E0,4.995841540E0
1.387622817E1,-1.890046386E0,3.123311875E0,3.004457862E0,4.728014325E0
1.388620617E1,-1.482297088E0,3.134654304E0,3.171999301E0,4.699451227E0
1.389618417E1,-6.901589233E-1,3.228821958E0,3.703383735E0,4.961518081E0
1.390616117E1,2.171036819E-1,3.241180049E0,4.222148123E0,5.327186583E0
1.391613917E1,1.109007187E0,3.370438598E0,4.764858028E0,5.940843821E0
1.392611846E1,1.976537231E0,3.564649188E0,5.367807704E0,6.739939377E0
1.393609646E1,2.509934276E0,3.574667807E0,6.060019219E0,7.470063784E0
1.394607346E1,2.948946151E0,3.499000744E0,6.737824364E0,8.144787705E0
1.395605146E1,3.596914124E0,3.401694304E0,7.575591788E0,9.049801451E0
1.396602946E1,4.341086921E0,3.244021211E0,8.188935474E0,9.819744063E0
1.397600746E1,5.028055238E0,3.037242031E0,8.176263388E0,1.006764429E1
1.398598446E1,5.788328344E0,2.819712744E0,7.680961538E0,1.002260920E1
1.399596246E1,6.361332673E0,2.435615580E0,7.038603383E0,9.794933089E0
1.400594046E1,6.692989669E0,2.066459806E0,6.321873908E0,9.435701169E0
1.401591846E1,6.873916554E0,1.740613189E0,5.643447204E0,9.062502933E0
1.402589546E1,6.980874993E0,1.347361039E0,5.114147887E0,8.757996691E0
1.403587346E1,7.075311618E0,9.214884424E-1,4.704346363E0,8.546347182E0
1.404585146E1,7.087514758E0,4.725292844E-1,4.448093891E0,8.381031478E0
1.405582946E1,6.795375000E0,9.068446755E-3,4.462710761E0,8.129759588E0
1.406580746E1,6.426888732E0,-3.551832676E-1,4.488176554E0,7.846960093E0
1.407578446E1,6.080072830E0,-6.823238736E-1,4.284912136E0,7.469492854E0
1.408576246E1,5.628733270E0,-9.883595395E-1,3.831290700E0,6.880282061E0
1.409574046E1,5.198720845E0,-1.309981543E0,3.128775514E0,6.207413816E0
1.410571846E1,4.942187122E0,-1.560855162E0,2.290517508E0,5.666387989E0
1.411569546E1,4.863977397E0,-1.841903336E0,1.451310354E0,5.399739416E0
1.412567346E1,5.072318661E0,-2.155035768E0,7.283157331E-1,5.559050239E0
1.413565146E1,5.516982454E0,-2.413430074E0,2.756364302E-1,6.028077269E0
1.414562946E1,5.993941589E0,-2.710207259E0,3.353978978E-1,6.586732947E0
1.415560646E1,6.405989029E0,-3.037354882E0,8.212950866E-1,7.136998370E0
1.416558446E1,6.610034051E0,-3.396834099E0,1.328294438E0,7.549529665E0
1.417556246E1,6.533166554E0,-3.773873089E0,1.797625880E0,7.756019734E0
1.418554046E1,6.192055196E0,-4.189669763E0,2.086335077E0,7.761937537E0
1.419551846E1,5.608458050E0,-4.555445262E0,1.977793797E0,7.491231644E0
1.420549546E1,5.073752983E0,-4.845688183E0,1.615237191E0,7.199489876E0
1.421547346E1,4.804154241E0,-5.142939577E0,1.244086931E0,7.146850898E0
1.422545146E1,4.806069204E0,-5.420408671E0,9.400404882E-1,7.304985111E0
1.423542946E1,4.960921601E0,-5.648354187E0,7.222433996E-1,7.552236999E0
1.424540646E1,4.931078582E0,-5.787344257E0,5.694527310E-1,7.624510866E0
1.425538446E1,4.694696118E0,-5.843723695E0,5.081475985E-1,7.513154614E0
1.426536246E1,4.327842978E0,-5.878943229E0,5.221399856E-1,7.318799662E0
1.427534046E1,4.042471372E0,-6.042186381E0,5.842889078E-1,7.293214969E0
1.428531746E1,3.569573421E0,-6.237973965E0,6.423808857E-1,7.215734668E0
1.429529546E1,2.982981039E0,-6.227180005E0,5.211108756E-1,6.924413566E0
1.430527346E1,2.410972782E0,-6.277796427E0,1.484363202E-1,6.726481329E0
1.431525146E1,1.708688707E0,-6.319683541E0,-2.344428691E-1,6.550799998E0
1.432522846E1,9.225921775E-1,-6.262336974E0,-4.557436824E-1,6.346317279E0
1.433520646E1,1.480357494E-1,-6.187011387E0,-4.132928967E-1,6.202566848E0
1.434518446E1,-4.877292311E-1,-6.195845945E0,-2.666494060E-1,6.220730559E0
1.435516246E1,-1.012690096E0,-6.213627913E0,-3.127102625E-1,6.303372175E0
1.436514046E1,-1.398999555E0,-6.159411360E0,-5.572723961E-1,6.340828067E0
1.437511746E1,-1.472206110E0,-5.977085820E0,-1.000498286E0,6.236500826E0
1.438509546E1,-1.512981376E0,-6.011192629E0,-1.360890473E0,6.346303834E0
1.439507346E1,-1.420622558E0,-5.891555673E0,-1.547593238E0,6.254889410E0
1.440505146E1,-1.064371223E0,-5.668500184E0,-1.573105809E0,5.978247429E0
1.441502846E1,-5.886363492E-1,-5.532666441E0,-1.454907853E0,5.750969271E0
1.442500646E1,-4.101076991E-1,-5.311351667E0,-1.184961641E0,5.457360071E0
1.443498446E1,-6.578621200E-1,-5.079513075E0,-8.693908473E-1,5.195197406E0
1.444496246E1,-1.187253749E0,-4.594298256E0,-5.113507032E-1,4.772696038E0
1.445493946E1,-1.857996043E0,-4.379437639E0,-3.898209306E-1,4.773215236E0
1.446491746E1,-2.281945490E0,-4.293464858E0,-3.438537025E-1,4.874356478E0
1.447489546E1,-2.259080246E0,-4.059744047E0,-2.267526476E-1,4.651492454E0
1.448487346E1,-1.936236466E0,-3.898949125E0,-4.176373780E-1,4.373241008E0
1.449485046E1,-1.420581043E0,-3.639644406E0,-9.267953753E-1,4.015471526E0
1.450482846E1,-1.395324872E0,-3.544202060E0,-1.546327754E0,4.110891541E0
1.451480646E1,-1.769223615E0,-3.579384171E0,-1.954703143E0,4.445560440E0
1.452478446E1,-2.389087239E0,-3.617205716E0,-2.108531107E0,4.820562048E0
1.453476246E1,-2.779794388E0,-3.559627599E0,-1.986723665E0,4.934093271E0
1.454473946E1,-3.044562744E0,-3.256188097E0,-1.619319132E0,4.742817483E0
1.455471746E1,-3.738149525E0,-3.029854658E0,-1.283158026E0,4.979987514E0
1.456469546E1,-4.593317386E0,-2.703776491E0,-9.919667599E-1,5.421528380E0
1.457467346E1,-5.480368359E0,-2.307381463E0,-6.872069565E-1,5.985875038E0
1.458465046E1,-6.247882072E0,-2.209628296E0,-4.990933312E-1,6.645869525E0
1.459462846E1,-6.399821970E0,-2.178497720E0,-4.954673266E-1,6.778573703E0
1.460460646E1,-5.963663537E0,-2.084491450E0,-5.747130324E-1,6.343554402E0
1.461458446E1,-5.346715043E0,-2.022652466E0,-5.140240502E-1,5.739573631E0
1.462456146E1,-4.485677747E0,-1.881814676E0,-2.600642717E-1,4.871361693E0
1.463453946E1,-4.299486321E0,-1.842509692E0,-1.969663829E-2,4.677693079E0
1.464451746E1,-4.621395715E0,-1.634475700E0,3.531931677E-1,4.914626596E0
1.465449546E1,-5.288791355E0,-1.297417046E0,1.010151528E0,5.538502604E0
1.466447346E1,-5.974076843E0,-9.535615897E-1,1.675536602E0,6.277443488E0
1.467445046E1,-6.138608721E0,-6.220870274E-1,2.049189762E0,6.501437378E0
1.468442846E1,-5.933958512E0,-3.280235356E-1,2.154601612E0,6.321532343E0
1.469440646E1,-5.642034516E0,-4.074205381E-1,2.144232452E0,6.049485746E0
1.470438446E1,-5.194007989E0,-6.260672271E-1,2.176150063E0,5.666154627E0
1.471436146E1,-4.461393968E0,-7.955937964E-1,2.382635421E0,5.119956755E0
1.472433946E1,-3.445547252E0,-9.267328101E-1,2.884608067E0,4.588201529E0
1.473431746E1,-2.720804460E0,-8.165227354E-1,3.562437479E0,4.556363361E0
1.474429546E1,-2.624455210E0,-2.710570371E-1,4.143698954E0,4.912380084E0
1.475427246E1,-3.041751111E0,2.938927531E-1,4.412476454E0,5.367361664E0
1.476425046E1,-3.549356965E0,7.737217015E-1,4.565592520E0,5.834484998E0
1.477422846E1,-3.937949468E0,1.210543209E0,4.790315636E0,6.318226394E0
1.478420646E1,-4.188167029E0,1.363771250E0,5.022359465E0,6.680172878E0
1.479418346E1,-4.166399599E0,1.510543964E0,5.275956717E0,6.890308263E0
1.480416146E1,-3.907379348E0,1.673753201E0,5.502636895E0,6.953278072E0
1.481413946E1,-3.538523828E0,1.884636542E0,5.767319298E0,7.023886222E0
1.482411746E1,-3.098064183E0,2.260570409E0,5.805555995E0,6.957920714E0
1.483409546E1,-2.534325936E0,2.700033689E0,5.540245017E0,6.663880605E0
1.484407246E1,-1.819987387E0,3.246685202E0,5.310111473E0,6.484643610E0
1.485405046E1,-1.238064299E0,3.829245636E0,5.154626407E0,6.539579402E0
1.486402846E1,-1.115050138E0,4.116436896E0,5.075058081E0,6.629072639E0
1.487400646E1,-1.329005752E0,4.158947323E0,5.224522853E0,6.808725150E0
1.488398346E1,-1.644634506E0,4.259558609E0,5.585826402E0,7.214576827E0
1.489396146E1,-1.815200272E0,4.436107684E0,5.790908135E0,7.517221590E0
1.490393946E1,-1.763615843E0,4.610355295E0,5.740507475E0,7.570940685E0
1.491391746E1,-1.378509595E0,4.680118425E0,5.344990114E0,7.236899647E0
1.492389446E1,-9.110787175E-1,4.646643115E0,4.632905667E0,6.624588409E0
1.493386971E1,-5.188162089E-1,4.482847987E0,4.100389212E0,6.097400104E0
1.494384771E1,-1.044481188E-1,4.228592339E0,4.053307432E0,5.858430141E0
1.495382571E1,3.957047644E-1,4.042245085E0,4.207200301E0,5.847808304E0
1.496380271E1,6.896288002E-1,3.901530671E0,4.444539953E0,5.954113272E0
1.497378071E1,7.588760595E-1,3.725945216E0,4.631977714E0,5.992810540E0
1.498375871E1,8.099156009E-1,3.546650873E0,4.798844969E0,6.021927328E0
1.499373671E1,5.075117138E-1,3.156343966E0,4.918726923E0,5.866340420E0
1.500371471E1,1.290553128E-1,2.705877396E0,4.925459408E0,5.621261258E0
1.501369171E1,3.506684131E-1,2.439664192E0,5.059279954E0,5.627720974E0
1.502366971E1,1.419605435E0,2.098493777E0,5.619098813E0,6.163864631E0
1.503364771E1,3.043945863E0,1.817031620E0,6.293342419E0,7.223113534E0
1.504362571E1,4.632443152E0,1.656720262E0,6.661696540E0,8.281452311E0
1.505360271E1,6.023157202E0,1.404983010E0,6.602109320E0,9.046559976E0
1.506358071E1,6.914259419E0,9.824240309E-1,6.258380163E0,9.377604308E0
1.507355871E1,7.353762460E0,5.879445505E-1,5.735408703E0,9.344432251E0
1.508353671E1,7.673536159E0,3.170038730E-1,5.141162024E0,9.242034169E0
1.509351371E1,7.738368917E0,1.148597807E-1,4.587923914E0,8.996921257E0
1.510349171E1,7.632545423E0,-8.601020336E-2,3.976695458E0,8.606814402E0
1.511346971E1,7.543382986E0,-3.767483836E-1,3.197835516E0,8.201872847E0
1.512344771E1,7.571698127E0,-6.850779122E-1,2.462806887E0,7.991580697E0
1.513342471E1,7.600720782E0,-1.061690640E0,2.065352343E0,7.947567158E0
1.514340271E1,7.481534062E0,-1.452913806E0,1.957734632E0,7.868737849E0
1.515338071E1,7.282427014E0,-1.669583552E0,2.207717426E0,7.790716827E0
1.516335871E1,7.019263133E0,-2.019970933E0,2.569056058E0,7.742763494E0
1.517333671E1,7.029218602E0,-2.378141543E0,2.724443767E0,7.904939291E0
1.518331371E1,6.974345992E0,-2.714144774E0,2.595849462E0,7.921269992E0
1.519329171E1,6.667062530E0,-2.967230394E0,2.260527578E0,7.639644227E0
1.520326971E1,6.276851517E0,-3.049731098E0,1.801123538E0,7.207202699E0
1.521324771E1,5.833572929E0,-3.230990691E0,1.302638171E0,6.794611112E0
1.522322471E1,5.436227143E0,-3.430752043E0,7.517180443E-1,6.472071164E0
1.523320271E1,4.945551025E0,-3.665553419E0,3.858864123E-1,6.167954696E0
1.524318071E1,4.526690117E0,-3.840282256E0,2.742016697E-1,5.942548088E0
1.525315871E1,4.013768852E0,-4.045257570E0,3.520000068E-1,5.709496756E0
1.526313571E1,3.464886041E0,-4.226668020E0,3.288596509E-1,5.475244881E0
1.527311371E1,3.045471694E0,-4.284787005E0,1.783090872E-1,5.259856619E0
1.528309171E1,2.736857114E0,-4.296735790E0,3.781979084E-3,5.094343885E0
1.529306971E1,2.720179101E0,-4.382737223E0,-8.227149367E-2,5.158927069E0
1.530304671E1,2.936606771E0,-4.499670426E0,-1.473124305E-1,5.375164577E0
1.531302471E1,3.008592136E0,-4.523497830E0,-1.474866958E-1,5.434649168E0
1.532300271E1,2.873291658E0,-4.374385645E0,-1.322313102E-1,5.235316594E0
1.533298071E1,2.655040534E0,-4.157757999E0,-4.550884288E-2,4.933382498E0
1.534295871E1,2.286299327E0,-3.827587951E0,9.319292307E-2,4.459403442E0
1.535293571E1,2.003003337E0,-3.849515594E0,6.804412164E-2,4.339979571E0
1.536291371E1,1.613488581E0,-4.060970208E0,-1.307425725E-1,4.371717975E0
1.537289171E1,1.136996054E0,-4.238751876E0,-3.854086947E-1,4.405487187E0
1.538286971E1,8.004855770E-1,-4.223610511E0,-6.309554994E-1,4.344855320E0
1.539284671E1,5.779315957E-1,-4.094551937E0,-6.650647203E-1,4.188277877E0
1.540282471E1,4.202584655E-1,-3.973508726E0,-5.718308667E-1,4.036381958E0
1.541280271E1,5.266943087E-1,-3.993647121E0,-5.540306266E-1,4.066149795E0
1.542278071E1,7.249872056E-1,-4.072895604E0,-4.944430406E-1,4.166360399E0
1.543275771E1,8.367850918E-1,-4.247215136E0,-3.776879581E-1,4.345307112E0
1.544273571E1,7.369739246E-1,-4.519462082E0,-2.910977110E-1,4.588399062E0
1.545271371E1,2.245567075E-1,-4.657209619E0,-9.008571267E-2,4.663490386E0
1.546269171E1,-3.463722811E-1,-4.832719059E0,1.596045021E-1,4.847743894E0
1.547266971E1,-8.742325611E-1,-4.976186927E0,4.447522326E-1,5.071934882E0
1.548264671E1,-1.399269842E0,-5.039088934E0,7.149169115E-1,5.278397443E0
1.549262471E1,-1.590650965E0,-5.131155099E0,7.656331750E-1,5.426335531E0
1.550260271E1,-1.489900077E0,-5.380609598E0,4.939248312E-1,5.604883908E0
1.551258071E1,-1.346663174E0,-5.646490095E0,-4.411497630E-2,5.805023533E0
1.552255771E1,-1.114990350E0,-5.635497914E0,-5.772838338E-1,5.773672734E0
1.553253571E1,-1.031308654E0,-5.425606846E0,-9.606624484E-1,5.605682788E0
1.554251371E1,-1.396911221E0,-5.218620089E0,-1.057598759E0,5.504895252E0
1.555249171E1,-2.142517171E0,-4.957853567E0,-8.432117665E-1,5.466415453E0
1.556246871E1,-3.170593631E0,-4.842825971E0,-3.388391304E-1,5.798313489E0
1.557244671E1,-3.843464895E0,-4.845426228E0,1.110994363E-1,6.185686770E0
1.558242471E1,-3.725235949E0,-4.727761538E0,1.587922508E-1,6.021156618E0
1.559240271E1,-3.196511999E0,-4.692884651E0,-2.806996622E-1,5.685037168E0
1.560237971E1,-2.399447628E0,-4.553746061E0,-9.611033285E-1,5.236188663E0
1.561235771E1,-2.038864456E0,-4.379388523E0,-1.660570069E0,5.108180210E0
1.562233571E1,-2.178770785E0,-3.931437424E0,-1.919390638E0,4.887463839E0
1.563231371E1,-2.392668220E0,-3.250816260E0,-1.569458755E0,4.330804584E0
1.564229171E1,-3.000856854E0,-2.973455340E0,-7.610601407E-1,4.292527350E0
1.565226871E1,-3.602855187E0,-2.500189306E0,1.570069496E-1,4.388184505E0
1.566224671E1,-3.937844511E0,-2.035577152E0,8.922884707E-1,4.521766519E0
1.567222471E1,-4.412432308E0,-1.848196694E0,1.338245230E0,4.967523546E0
1.568220271E1,-4.705936221E0,-1.601136630E0,1.504605386E0,5.193583694E0
1.569217971E1,-5.040149619E0,-1.406124972E0,1.404516987E0,5.417837538E0
1.570215771E1,-5.431976802E0,-9.518723291E-1,1.215426219E0,5.647096051E0
1.571213571E1,-5.456954938E0,-2.266146898E-1,1.137937163E0,5.578943664E0
1.572211371E1,-5.154471456E0,1.650382465E-1,1.217916548E0,5.298974838E0
1.573209071E1,-4.674408326E0,3.068291330E-1,1.367138661E0,4.879887851E0
1.574206871E1,-4.121238629E0,6.309110606E-1,1.623290561E0,4.474117662E0
1.575204671E1,-3.654253675E0,8.545366538E-1,1.863882143E0,4.190209953E0
1.576202471E1,-3.470968022E0,7.722528809E-1,1.964105465E0,4.062228921E0
1.577200171E1,-3.629231100E0,7.560590172E-1,2.072043312E0,4.246917365E0
1.578197971E1,-4.105683281E0,8.084711194E-1,2.394927730E0,4.821404317E0
1.579195771E1,-4.528707114E0,6.903550243E-1,2.828066369E0,5.383654667E0
1.580193571E1,-4.800976864E0,6.932593364E-1,3.144148428E0,5.780627708E0
1.581191371E1,-4.782412539E0,9.448954314E-1,3.198378138E0,5.830430497E0
1.582189071E1,-4.720392585E0,1.174245449E0,2.780763564E0,5.602999601E0
1.583186871E1,-4.668346226E0,1.363180681E0,2.089604255E0,5.293218680E0
1.584184671E1,-4.735424899E0,1.390848536E0,1.628568258E0,5.197205325E0
1.585182471E1,-4.801409266E0,1.399381378E0,1.629480423E0,5.259943500E0
1.586180171E1,-4.691156506E0,1.146318562E0,1.802110987E0,5.154473748E0
1.587177971E1,-4.557227494E0,9.343143100E-1,2.177211041E0,5.136293758E0
1.588175771E1,-4.354311569E0,8.899509001E-1,2.651415845E0,5.175137469E0
1.589173571E1,-4.101842245E0,1.030391080E0,2.955023746E0,5.159358577E0
1.590171271E1,-3.838045111E0,1.050468079E0,2.829372929E0,4.882563326E0
1.591169071E1,-3.601253927E0,1.152198522E0,2.522012284E0,4.545012348E0
1.592166871E1,-3.342305597E0,1.275029227E0,2.321954479E0,4.264760114E0
1.593164921E1,-2.994805278E0,1.218758547E0,2.394027259E0,4.023132805E0
1.594162621E1,-2.623488081E0,1.122422161E0,2.643754238E0,3.889981708E0
1.595160421E1,-2.169810951E0,1.257767077E0,3.168619026E0,4.041064725E0
1.596158221E1,-1.547710913E0,1.431596028E0,3.801504691E0,4.346989093E0
1.597156021E1,-7.535083155E-1,1.752147991E0,4.293910416E0,4.698453365E0
1.598153821E1,1.155977541E-1,2.245239009E0,4.595426184E0,5.115897073E0
1.599151521E1,8.275333348E-1,2.652974712E0,4.826827404E0,5.569681233E0
1.600149321E1,1.126711459E0,3.091491913E0,5.039274291E0,6.018395661E0
1.601147121E1,9.348885796E-1,3.374359156E0,5.220620422E0,6.286111195E0
1.602144921E1,6.523051456E-1,3.463500543E0,5.408034208E0,6.455088846E0
1.603142621E1,8.042975961E-1,3.536850355E0,5.603434707E0,6.674929631E0
1.604140421E1,1.378913053E0,3.676701136E0,5.700836456E0,6.922360056E0
1.605138221E1,2.060355898E0,3.863585165E0,5.716532137E0,7.200770543E0
1.606136021E1,2.720194303E0,4.074735138E0,5.729041670E0,7.538225385E0
1.607133721E1,3.271703099E0,4.223723363E0,5.662776344E0,7.785301288E0
1.608131521E1,3.586431236E0,4.203331198E0,5.489522760E0,7.788795947E0
1.609129321E1,3.725647301E0,4.024142105E0,5.503639108E0,7.769440837E0
1.610127121E1,3.833384003E0,3.998614331E0,5.774726551E0,8.001950776E0
1.611124821E1,3.438294366E0,3.761160073E0,6.229075672E0,8.047954831E0
1.612122621E1,3.686042940E0,3.451512582E0,6.554085553E0,8.273807412E0
1.613120421E1,4.476570708E0,2.922551234E0,6.445293428E0,8.373935657E0
1.614118221E1,5.694218577E0,2.489087198E0,5.893768260E0,8.564822507E0
1.615116021E1,7.147130045E0,2.133698108E0,5.251276204E0,9.121953588E0
1.616113721E1,8.426213731E0,1.833773952E0,4.678174810E0,9.810663806E0
1.617111521E1,9.175773568E0,1.521601633E0,4.233877053E0,1.021938389E1
1.618109321E1,9.429714051E0,1.249851701E0,4.073801630E0,1.034782567E1
1.619107121E1,9.213150140E0,8.200790119E-1,4.154249085E0,1.013964746E1
1.620104821E1,8.675887501E0,3.934088552E-1,4.396206869E0,9.734085950E0
1.621102621E1,7.870109024E0,-8.490741849E-2,4.461557690E0,9.047172063E0
1.622100421E1,6.999970829E0,-6.061323148E-1,3.996670132E0,8.083338428E0
1.623098221E1,6.148663008E0,-1.082786225E0,3.162917406E0,6.998751983E0
1.624095921E1,5.463761097E0,-1.367396523E0,2.232692054E0,6.058660940E0
1.625093721E1,5.146340902E0,-1.535841358E0,1.440866788E0,5.560551273E0
1.626091521E1,5.137923836E0,-1.717694442E0,9.581917074E-1,5.501533139E0
1.627089321E1,5.311527668E0,-1.904765582E0,7.952224982E-1,5.698494267E0
1.628087021E1,5.698721518E0,-2.266158008E0,7.335402203E-1,6.176486081E0
1.629084821E1,6.160861470E0,-2.640652875E0,7.893498471E-1,6.749246983E0
1.630082621E1,6.632029522E0,-3.114444573E0,9.299607655E-1,7.385689379E0
1.631080421E1,6.952826484E0,-3.724836584E0,1.267644486E0,7.988937742E0
1.632078121E1,7.010655447E0,-4.287977246E0,1.597303196E0,8.371822750E0
1.633075921E1,6.894868298E0,-4.688049003E0,1.648010250E0,8.498997005E0
1.634073721E1,6.555538586E0,-4.983525767E0,1.456088260E0,8.362464245E0
1.635071521E1,5.895620073E0,-5.291658829E0,1.030906658E0,7.988914679E0
1.636069321E1,4.926366311E0,-5.466908069E0,6.232090350E-1,7.385428786E0
