"Time (s)","Linear Acceleration x (m/s^2)","Linear Acceleration y (m/s^2)","Linear Acceleration z (m/s^2)","Absolute acceleration (m/s^2)"
5.014720833E-2,2.166073630E-4,1.298078677E-2,3.113291502E-2,3.373138215E-2
6.018420833E-2,5.411619100E-2,-7.292601680E-3,2.093303204E-3,5.464545805E-2
7.022220833E-2,1.717733253E-1,9.464869704E-3,-6.796160281E-2,1.849714532E-1
8.025920833E-2,1.170108982E-1,5.393135046E-2,3.427520871E-2,1.333226567E-1
9.029620833E-2,-1.535698101E-2,5.335916386E-2,3.158081174E-2,6.387789057E-2
1.003342083E-1,-2.573046234E-2,-7.153419675E-3,3.247894406E-2,4.204889907E-2
1.103712083E-1,-3.257550992E-2,-6.165983923E-2,-1.537817717E-4,6.973609731E-2
1.204082083E-1,-1.231944384E-1,-6.151764682E-2,8.828710914E-3,1.379827404E-1
1.304462083E-1,-1.626557254E-1,-6.037472629E-2,5.223843992E-2,1.811928453E-1
1.404832083E-1,-9.482891919E-2,-1.790259375E-2,3.667081296E-2,1.032365018E-1
1.505202083E-1,3.856899275E-2,-1.095877849E-3,1.077583373E-2,4.006103772E-2
1.605582083E-1,1.072160446E-1,2.778014441E-2,3.787007689E-2,1.170519515E-1
1.705952083E-1,1.169016741E-1,7.914151568E-2,3.218190551E-2,1.447931488E-1
1.806322083E-1,1.108169244E-1,7.813957701E-2,3.068443358E-2,1.390241659E-1
1.906702083E-1,1.092656581E-1,2.734607544E-2,1.495133042E-3,1.126455827E-1
2.007072083E-1,5.446513273E-2,1.316283161E-2,1.855789304E-2,5.902631797E-2
2.107442083E-1,-7.436868936E-2,-4.998848615E-3,3.890561879E-2,8.407935310E-2
2.207822083E-1,-1.256909345E-1,-2.367410623E-2,4.144506454E-2,1.344483831E-1
2.308192083E-1,-9.637963733E-2,-4.286782916E-2,2.647853136E-2,1.087556798E-1
2.408562083E-1,-5.706262581E-2,-3.491069142E-2,7.175118327E-3,6.727839149E-2
2.508942083E-1,-1.794554795E-2,-2.643590150E-3,2.439867675E-2,3.040274144E-2
2.609312083E-1,2.403387902E-2,3.771893551E-2,2.815025032E-2,5.284677880E-2
2.709682083E-1,1.107815305E-1,4.681184920E-2,3.189948499E-2,1.244245710E-1
2.810062083E-1,1.245788215E-1,4.975090647E-2,2.366835952E-2,1.362175712E-1
2.910432083E-1,8.536245978E-2,4.305702313E-2,1.408535779E-2,9.663878147E-2
3.010802083E-1,1.880001345E-2,2.110340071E-2,3.458686531E-2,4.466592973E-2
3.111182083E-1,-2.053025481E-2,-4.584431774E-3,2.215626955E-2,3.055173739E-2
3.211552083E-1,-6.373467802E-2,-4.277275709E-2,2.454719603E-2,8.058649244E-2
3.311922083E-1,-9.705369338E-2,-4.706525748E-2,1.421808958E-2,1.087966541E-1
3.412292083E-1,-1.037563932E-1,-3.383456163E-2,3.682401001E-2,1.151788801E-1
3.512672083E-1,-5.948107074E-2,-1.904761562E-2,3.518328130E-2,7.168453614E-2
3.613042083E-1,1.894396916E-2,1.396580050E-2,1.558166027E-2,2.822597541E-2
3.713412083E-1,6.562409612E-2,4.261465842E-2,2.142478287E-2,8.112676763E-2
3.813792083E-1,1.018616030E-1,3.794576179E-2,3.175388932E-2,1.132429975E-1
3.914162083E-1,9.485748832E-2,4.508827276E-2,3.848871231E-2,1.118582872E-1
4.014532083E-1,6.347582452E-2,2.980683960E-2,1.423329234E-2,7.155567481E-2
4.114912083E-1,4.323595706E-3,8.237086893E-3,1.183067143E-2,1.505017830E-2
4.215282083E-1,-5.884104731E-2,3.532092841E-3,3.367879272E-2,6.788965759E-2
4.315652083E-1,-8.605933825E-2,-3.065703389E-2,3.202870846E-2,9.680858222E-2
4.416032083E-1,-7.649874779E-2,-3.973659949E-2,2.065295041E-2,8.864310528E-2
4.516402083E-1,-5.704428017E-2,-2.907305972E-2,2.350112915E-2,6.820260825E-2
4.616772083E-1,-6.698684455E-3,3.291100762E-3,1.991444707E-2,2.126708536E-2
4.717152083E-1,4.414799023E-2,2.527052858E-2,2.006881356E-2,5.468456760E-2
4.817522083E-1,7.878984220E-2,4.150913724E-2,1.782699108E-2,9.082207507E-2
4.917892083E-1,9.596534383E-2,5.121227641E-2,3.279586315E-2,1.136116768E-1
5.018272083E-1,5.183235536E-2,4.278926176E-2,3.399103403E-2,7.531868546E-2
5.118642083E-1,2.718699006E-2,8.994799247E-4,3.907577276E-2,4.761152707E-2
5.219012083E-1,-4.425770318E-2,1.972393747E-3,1.991210818E-2,4.857084187E-2
5.319392083E-1,-5.883314900E-2,-3.067727988E-2,2.065704346E-2,6.949207413E-2
5.419762083E-1,-6.377850930E-2,-2.573247689E-2,1.796264648E-2,7.108104729E-2
5.520132083E-1,-6.095556494E-2,-2.451082909E-2,3.937105715E-2,7.659270058E-2
5.620512083E-1,-3.715323566E-2,6.510340157E-3,3.638137579E-2,5.240564811E-2
5.720882083E-1,2.296469736E-2,2.145019085E-2,3.653691173E-2,4.819163756E-2
5.821252083E-1,4.484172582E-2,2.437816125E-2,3.070197523E-2,5.956245800E-2
5.921632083E-1,6.844436812E-2,4.002492204E-2,2.172182143E-2,8.220987433E-2
6.022002083E-1,6.580244534E-2,2.610790925E-2,3.115162611E-2,7.734344540E-2
6.122372083E-1,3.605806131E-2,2.623779053E-2,4.671399057E-2,6.458174937E-2
6.222752083E-1,-5.013882355E-3,7.119743368E-3,2.949569464E-2,3.075428042E-2
6.323122083E-1,-4.492626377E-2,-9.374530222E-3,4.311444461E-2,6.296909025E-2
6.423492083E-1,-7.803277396E-2,-4.062685178E-2,2.545000613E-2,9.158251858E-2
6.523872083E-1,-5.567244572E-2,-3.706634056E-2,1.722005010E-2,6.906420882E-2
6.624237917E-1,-6.329247777E-2,-2.427464726E-2,2.785028815E-2,7.328597950E-2
6.724607917E-1,-2.581079761E-2,-3.609148180E-3,3.488916636E-2,4.354856086E-2
6.824987917E-1,1.082805667E-2,1.497425334E-2,2.905422986E-2,3.443288177E-2
6.925357917E-1,7.294056632E-2,3.074419852E-2,1.079337537E-2,7.988760173E-2
7.025727917E-1,8.390626553E-2,3.872844815E-2,2.157096326E-2,9.489710506E-2
7.126107917E-1,9.504338410E-2,5.046857910E-2,3.339461803E-2,1.126744108E-1
7.226477917E-1,5.788151465E-2,4.316364802E-2,2.800114632E-2,7.744310456E-2
7.326847917E-1,2.039446236E-2,2.191967202E-2,3.802795172E-2,4.839970277E-2
7.427227917E-1,-3.557177853E-2,-3.066809792E-3,3.637903690E-2,5.097245409E-2
7.527597917E-1,-6.507123275E-2,-1.355708469E-2,2.425249636E-2,7.075481225E-2
7.627967917E-1,-8.842830112E-2,-3.098254565E-2,3.772506595E-2,1.010082332E-1
7.728347917E-1,-6.303639256E-2,-3.447879232E-2,2.440627813E-2,7.588175222E-2
7.828717917E-1,-1.125828383E-2,-1.144172652E-2,3.608667612E-2,3.949569919E-2
7.929087917E-1,2.675922512E-2,1.976254280E-2,4.028263807E-2,5.224275220E-2
8.029467917E-1,5.241546437E-2,4.279269244E-2,3.414832413E-2,7.579382212E-2
8.129837917E-1,8.072645830E-2,4.211448851E-2,3.070665300E-2,9.609000859E-2
8.230207917E-1,7.267536768E-2,2.003685031E-2,2.950972795E-2,8.095683098E-2
8.330587917E-1,4.747099486E-2,3.373742932E-3,2.172474504E-2,5.231483577E-2
8.430957917E-1,-2.463445659E-3,1.415011113E-2,2.516407728E-2,2.897455772E-2
8.531327917E-1,-4.877771508E-2,-5.438860729E-3,1.572959483E-2,5.153898377E-2
8.631707917E-1,-5.968685162E-2,-2.544063688E-2,2.545877695E-2,6.969860533E-2
8.732077917E-1,-7.849203620E-2,-1.077314766E-2,3.414364636E-2,8.627194819E-2
8.832447917E-1,-7.716733122E-2,-6.091665812E-3,2.291991591E-2,8.072934997E-2
8.932827917E-1,-1.794156453E-2,-2.686539777E-3,2.037754655E-2,2.728299172E-2
9.033197917E-1,4.281309374E-2,2.428637824E-2,2.756552875E-2,5.641495846E-2
9.133567917E-1,6.956438400E-2,2.122304936E-2,3.879452169E-2,8.242958364E-2
9.233947917E-1,7.304573398E-2,3.580599150E-2,2.532370627E-2,8.519999048E-2
9.334317917E-1,5.799759102E-2,1.986614359E-2,2.083187521E-2,6.474836870E-2
9.434687917E-1,2.519849363E-2,1.971090001E-2,2.771287858E-2,4.232596484E-2
9.535067917E-1,-2.247591125E-2,3.076457698E-3,2.815843642E-2,3.615976659E-2
9.635437917E-1,-6.671542868E-2,-1.694266367E-2,4.162866712E-2,8.044220411E-2
9.735807917E-1,-7.213477432E-2,-2.904912268E-2,2.471267223E-2,8.159652789E-2
9.836187917E-1,-5.305909663E-2,-2.661272039E-2,1.663123548E-2,6.164497235E-2
9.936557917E-1,-3.054282133E-2,-5.352554913E-3,3.758999527E-2,4.872906240E-2
1.003692792E0,-9.409494745E-4,6.176162646E-3,3.100661516E-2,3.162974162E-2
1.013730792E0,4.598038884E-2,2.882814361E-3,2.651653826E-2,5.315668893E-2
1.023767792E0,7.900496492E-2,1.678732873E-2,3.041019917E-2,8.630399238E-2
1.033804792E0,5.916039665E-2,4.167191824E-2,2.217615008E-2,7.568542088E-2
1.043842792E0,3.426797735E-2,1.970983107E-2,2.606513321E-2,4.735148236E-2
1.053879792E0,8.673161273E-3,-1.150940347E-2,2.097220838E-2,2.544648540E-2
1.063916792E0,-2.203686301E-2,-3.590467697E-2,2.336488903E-2,4.817351138E-2
1.073954792E0,-5.095702718E-2,-1.852047543E-2,3.324492931E-2,6.359915057E-2
1.083991792E0,-4.979056704E-2,-1.538622622E-2,4.716598034E-2,7.028845015E-2
1.094028792E0,-3.115190477E-2,3.543367004E-3,3.055111706E-2,4.377633349E-2
1.104066792E0,-2.223734028E-2,-1.217067788E-2,3.684038222E-2,4.471955350E-2
1.114103792E0,3.267044951E-2,2.722880679E-2,2.920801163E-2,5.159335358E-2
1.124140792E0,5.330342345E-2,4.158110367E-2,3.429918230E-2,7.580684033E-2
1.134178792E0,5.628873768E-2,3.665287846E-2,3.834019303E-2,7.734226458E-2
1.144215792E0,5.501588106E-2,2.981121588E-2,4.297878921E-2,7.591200223E-2
1.154252792E0,2.061823713E-2,5.275691436E-3,2.052372694E-2,2.956633204E-2
1.164290792E0,-1.671997611E-2,-3.202565694E-3,4.102991223E-2,4.442147821E-2
1.174327792E0,-3.494252677E-2,-7.467214158E-3,3.369458020E-2,4.911277022E-2
1.184364792E0,-4.554930287E-2,-2.605383164E-2,4.803487659E-3,5.269359191E-2
1.194402792E0,-3.578239707E-2,-3.396993381E-2,2.022376478E-2,5.332295007E-2
1.204439792E0,-1.605175814E-2,-1.897059683E-2,3.175213516E-2,4.032047334E-2
1.214476792E0,1.344514249E-2,1.096764524E-2,3.534641862E-2,3.937550518E-2
1.224514792E0,3.628485562E-2,2.075773434E-2,2.172708392E-2,4.711199909E-2
1.234551792E0,4.162745656E-2,2.327477338E-2,3.654743671E-2,6.008556687E-2
1.244588792E0,6.197107555E-2,2.367727652E-2,1.993257344E-2,6.927001597E-2
1.254626792E0,4.628703876E-2,2.323229884E-2,2.247611225E-2,5.645711017E-2
1.264663792E0,1.507319005E-2,8.563123983E-3,3.370218158E-2,3.789940888E-2
1.274700792E0,-1.305765482E-2,-6.444042781E-3,2.112540543E-2,2.565756791E-2
1.284738792E0,-3.730396135E-2,-2.092349377E-2,3.833902359E-2,5.743917525E-2
1.294775792E0,-5.799624799E-2,-2.457229338E-2,4.687186539E-2,7.851327370E-2
1.304812792E0,-4.404376361E-2,-2.178775335E-2,3.085575700E-2,5.802272873E-2
1.314850792E0,1.199234237E-2,3.062981693E-4,2.771580219E-2,3.020059247E-2
1.324887792E0,2.825871617E-2,-3.633889211E-3,2.292927146E-2,3.657200678E-2
1.334924792E0,3.579060144E-2,2.912368838E-2,1.814157128E-2,4.958097402E-2
1.344962792E0,6.254138008E-2,2.731759310E-2,2.068627954E-2,7.131337375E-2
1.354999792E0,4.030036245E-2,1.337151325E-2,2.038690209E-2,4.710140504E-2
1.365036792E0,2.547571104E-2,1.999862870E-2,3.146269798E-2,4.515371931E-2
1.375074792E0,-2.419509315E-3,1.349349165E-2,3.250934958E-2,3.528152707E-2
1.385111792E0,-2.501206338E-2,-1.841413833E-2,3.984117329E-2,5.051735241E-2
1.395148792E0,-3.831969580E-2,-2.954953470E-2,1.963436544E-2,5.222147445E-2
1.405185792E0,-3.768061797E-2,-1.866736388E-2,3.669946432E-2,5.581352996E-2
1.415223792E0,-3.232358172E-2,-1.383723028E-2,3.625332177E-2,5.050332876E-2
1.425260792E0,2.498412008E-2,8.985329499E-3,2.308363795E-2,3.518233568E-2
1.435298792E0,1.423489119E-2,9.934145305E-3,2.922262967E-2,3.398943152E-2
1.445335792E0,3.514380346E-2,1.155662431E-2,1.695049345E-2,4.069350950E-2
1.455372792E0,4.439058573E-2,1.326447266E-2,2.683053374E-2,5.353828422E-2
1.465410792E0,2.729504478E-2,-2.609763094E-3,3.206788480E-2,4.219217426E-2
1.475447792E0,9.779637200E-3,-6.210926170E-3,2.173702419E-2,2.463158802E-2
1.485484792E0,-2.765261572E-2,-1.500797989E-2,2.278309107E-2,3.884553842E-2
1.495521792E0,-3.241023014E-2,-2.782095614E-2,2.412970483E-2,4.905783601E-2
1.505559792E0,-3.992640103E-2,-2.159140568E-2,2.607624292E-2,5.234765270E-2
1.515596792E0,-2.560171396E-2,-2.360086986E-2,8.562077880E-3,3.585746775E-2
1.525633792E0,-2.570129479E-2,6.280649649E-3,2.038748682E-2,3.340138818E-2
1.535671792E0,3.753505885E-3,1.109197623E-2,3.505873561E-2,3.696262552E-2
1.545708792E0,4.487091622E-2,1.708378256E-2,2.667616725E-2,5.492606529E-2
1.555745792E0,4.658948599E-2,1.014713470E-2,1.515072048E-2,5.003087925E-2
1.565783792E0,4.589855523E-2,1.012898549E-2,2.802278101E-2,5.472248144E-2
1.575820792E0,1.842917664E-2,1.010463275E-2,2.203347802E-2,3.045016106E-2
1.585857792E0,-1.771136239E-2,1.281629272E-2,1.694172263E-2,2.765812146E-2
1.595895792E0,-2.722506091E-2,4.443175835E-3,3.640008688E-2,4.567178646E-2
1.605932792E0,-4.190566525E-2,-1.023548705E-2,3.624922872E-2,5.634586549E-2
1.615969792E0,-5.091290811E-2,-1.137450181E-2,1.963319600E-2,5.574016405E-2
1.626007792E0,-2.321399432E-2,-1.940284768E-2,3.774787009E-2,4.837625168E-2
1.636044792E0,-5.768739623E-3,-1.135182101E-4,3.146211326E-2,3.198680688E-2
1.646081792E0,3.421546661E-2,5.191094102E-3,1.604475975E-2,3.814550995E-2
1.656120042E0,4.847074540E-2,1.781138176E-2,3.984702051E-2,6.522609541E-2
1.666157042E0,5.590894275E-2,1.922098557E-3,2.847126245E-2,6.277035230E-2
1.676194042E0,2.959776053E-2,4.074782976E-3,4.673270166E-2,5.546689724E-2
1.686232042E0,3.041446124E-2,7.119304826E-4,3.161238670E-2,4.387356027E-2
1.696269042E0,-1.175597782E-2,-7.495719334E-4,2.801868796E-2,3.039427163E-2
1.706306042E0,-3.611084613E-2,-1.725284019E-2,3.370627463E-2,5.232367201E-2
1.716344042E0,-4.452800900E-2,-2.852486498E-3,3.205852926E-2,5.494205641E-2
1.726381042E0,-2.654483787E-2,-6.647484773E-3,3.295783103E-2,4.283732131E-2
1.736418042E0,-1.127203393E-2,-1.143287347E-2,1.604534447E-2,2.269851149E-2
1.746456042E0,-1.294712417E-2,3.395674559E-3,1.275336206E-2,1.848801974E-2
1.756493042E0,1.245567483E-2,1.617124233E-2,2.682410181E-2,3.370734863E-2
1.766530042E0,4.116423831E-2,2.760488782E-3,1.155760646E-2,4.284498898E-2
1.776568042E0,4.469706205E-2,-2.978238179E-3,2.173527002E-2,4.979075438E-2
1.786605042E0,1.549061730E-2,2.483833255E-2,2.068511009E-2,3.584376888E-2
1.796642042E0,3.937336863E-3,1.178433225E-2,3.565281272E-2,3.775574344E-2
1.806680042E0,-1.704204349E-2,1.508622752E-3,3.610246360E-2,3.995115852E-2
1.816717042E0,-3.664308894E-2,-1.217644744E-2,3.999378562E-2,5.559212829E-2
1.826754042E0,-2.421133745E-2,-1.597884610E-2,3.505347311E-2,4.550009188E-2
1.836792042E0,-4.307703157E-3,-3.506447319E-3,2.472612083E-2,2.534230713E-2
1.846829042E0,2.996615795E-3,-1.436676417E-2,1.110444725E-2,1.840359660E-2
1.856866042E0,1.171580105E-2,-4.237161982E-3,1.544717431E-2,1.984511855E-2
1.866904042E0,2.964727457E-2,1.776646783E-2,1.844211817E-2,3.917550243E-2
1.876941042E0,3.931042427E-2,1.182121082E-2,2.368180811E-2,4.739070074E-2
1.886978042E0,3.101175432E-2,4.635718251E-3,1.514779687E-2,3.482347684E-2
1.897016042E0,8.927711584E-3,7.480964251E-3,2.727141380E-2,2.965466019E-2
1.907053042E0,-1.550422121E-2,-9.574957243E-3,1.739137352E-2,2.518969143E-2
1.917090042E0,-2.401643787E-2,-9.074357925E-3,2.068277121E-2,3.296832244E-2
1.927128042E0,-3.195135162E-2,1.003408701E-2,3.535285056E-2,4.869697953E-2
1.937165042E0,-3.239738911E-2,-7.597319274E-3,2.068394065E-2,3.918080502E-2
1.947202042E0,-1.637221296E-2,2.869680966E-3,2.697086692E-2,3.168141551E-2
1.957240042E0,9.259020304E-4,1.248239843E-2,1.903794944E-2,2.278400940E-2
1.967277042E0,3.416319342E-2,5.237245993E-3,2.802044213E-2,4.449379403E-2
1.977314042E0,3.260695240E-2,1.378560119E-2,4.119421899E-2,5.431592606E-2
1.987352042E0,2.512732662E-2,7.746953177E-3,1.215402246E-2,2.896753508E-2
1.997389042E0,1.287409336E-2,1.628769329E-3,3.321803212E-3,1.339513143E-2
2.007426042E0,-6.706669559E-3,-8.730304101E-4,2.891857445E-2,2.969891491E-2
2.017464042E0,-1.127062237E-2,-4.205303793E-3,3.295958519E-2,3.508626176E-2
2.027501042E0,-2.220301987E-2,-3.144189469E-3,3.161297143E-2,3.875874070E-2
2.037538042E0,-2.980420835E-2,-9.766946915E-3,2.921678245E-2,4.286378966E-2
2.047576042E0,-3.921503699E-3,-7.626002608E-3,4.463589013E-2,4.545213740E-2
2.057613042E0,1.263211456E-2,9.503360828E-3,4.643273950E-2,4.904980614E-2
2.067650042E0,1.166447346E-2,7.379286652E-3,2.577628076E-2,2.923919394E-2
2.077688042E0,2.346121277E-2,1.024303361E-2,2.023662865E-2,3.263233643E-2
2.087725042E0,2.248202342E-2,5.356369307E-4,1.844094872E-2,2.908258712E-2
2.097762042E0,1.813280503E-2,1.937162903E-2,1.799129784E-2,3.205846889E-2
2.107800042E0,3.776552137E-3,8.242180366E-3,2.218141258E-2,2.396269908E-2
2.117837042E0,-2.367121917E-2,-1.130530824E-2,1.664117575E-2,3.106550083E-2
2.127874042E0,-4.126344454E-2,-2.818428294E-2,3.445237935E-2,6.069589857E-2
2.137912042E0,-2.154133889E-2,-2.429329896E-2,2.816603780E-2,4.298277959E-2
2.147949042E0,-3.096383912E-2,-1.811010595E-3,2.786841452E-2,4.169757332E-2
2.157986042E0,-5.082066371E-3,-1.168628175E-2,4.538316429E-2,4.713839391E-2
2.168024042E0,1.336291145E-2,1.763447151E-3,3.954647362E-2,4.178038684E-2
2.178061042E0,2.698200404E-2,7.951875245E-3,2.757254541E-2,3.938916250E-2
2.188098042E0,2.267531501E-2,2.583870892E-3,2.772281885E-2,3.590823004E-2
2.198136042E0,2.530573522E-2,1.494529591E-2,2.113593042E-2,3.620040966E-2
2.208173042E0,1.621530202E-2,1.764500106E-2,1.933791161E-2,3.079345559E-2
2.218210042E0,-1.962453481E-3,1.018210379E-3,4.702915549E-2,4.708109432E-2
2.228248042E0,-1.317226938E-3,1.328277262E-4,3.610012472E-2,3.612439251E-2
2.238285042E0,-3.048470092E-2,-2.044261966E-2,2.547164083E-2,4.467686398E-2
2.248322042E0,-5.000945390E-2,-4.930669167E-3,3.205735981E-2,5.960647026E-2
2.258360042E0,-2.038983941E-2,-8.093195138E-3,2.262813985E-2,3.151631438E-2
2.268397042E0,-4.732137923E-3,4.339090828E-4,3.939444602E-2,3.968001743E-2
2.278434042E0,1.509738291E-2,-5.430829944E-3,3.610246360E-2,3.950712294E-2
2.288472042E0,1.815531224E-2,5.334218410E-3,2.338067651E-2,3.007865161E-2
2.298509042E0,3.141740947E-2,2.433206874E-2,1.484783471E-2,4.242123740E-2
2.308546042E0,3.505162759E-2,1.856707499E-2,3.475526512E-2,5.273785475E-2
2.318584042E0,4.842134099E-3,9.295501448E-3,3.789697409E-2,3.931962938E-2
2.328621042E0,-1.151465683E-2,7.240506643E-3,3.684915304E-2,3.927941367E-2
2.338658042E0,-2.508948417E-2,-1.559911055E-2,3.161063254E-2,4.326715331E-2
2.348696042E0,-2.438543372E-2,-2.572675759E-2,3.191117942E-2,4.769527027E-2
2.358733042E0,-9.208907839E-3,-6.453850572E-3,1.649265647E-2,1.996156026E-2
2.368770042E0,1.225024570E-2,3.441611747E-3,2.682059348E-2,2.968598062E-2
2.378808042E0,8.454402317E-3,1.509869853E-3,3.131242454E-2,3.246882437E-2
2.388845042E0,3.043276576E-2,1.225104512E-2,3.490729272E-2,4.790365773E-2
2.398882042E0,3.395406866E-2,2.115906347E-3,1.948993921E-2,3.920731525E-2
2.408920042E0,9.499541866E-3,3.528886009E-4,3.341099024E-2,3.473701332E-2
2.418957042E0,1.080049253E-2,1.885004369E-2,3.655445337E-2,4.252296847E-2
2.428994042E0,5.530113839E-3,-2.675105729E-3,3.221289575E-2,3.279342926E-2
2.439031042E0,-9.103420414E-3,-1.519915187E-3,3.610480249E-2,3.726579086E-2
2.449069042E0,-2.424866826E-2,-6.594654266E-3,2.233344018E-2,3.361948732E-2
2.459106042E0,-2.387112086E-2,-3.770937896E-3,3.954822779E-2,4.634773678E-2
2.469143042E0,-1.979282955E-2,-1.345675926E-2,1.829301417E-2,3.012432304E-2
2.479181042E0,-8.353761686E-3,-4.634685852E-3,2.143706203E-2,2.346941149E-2
2.489218042E0,1.392767026E-2,2.979837484E-2,2.667499781E-2,4.234948229E-2
2.499256042E0,2.720074472E-2,2.031764457E-2,3.356126368E-2,4.773935079E-2
2.509293042E0,1.538543594E-2,5.473062373E-3,2.248546779E-2,2.778960799E-2
2.519330042E0,1.534231729E-3,2.974035493E-3,2.966994166E-2,2.985806746E-2
2.529367042E0,1.184553158E-2,6.511578122E-3,3.101597071E-2,3.383352933E-2
2.539405042E0,-1.049055356E-2,8.406605897E-3,2.487931788E-2,2.827902394E-2
2.549442042E0,-2.040221906E-2,-1.301263126E-2,2.832040429E-2,3.725083105E-2
2.559479042E0,-7.776952134E-3,-1.339505286E-2,2.547514915E-2,2.981428601E-2
2.569517042E0,1.013633106E-3,1.246242654E-3,2.772223413E-2,2.776873850E-2
2.579554042E0,9.851480294E-3,-4.129468147E-3,2.847126245E-2,3.040915910E-2
2.589591042E0,1.005208090E-2,1.465472127E-2,2.742344141E-2,3.267797920E-2
2.599629042E0,1.728734333E-2,1.348210329E-2,2.682410181E-2,3.464320692E-2
2.609666042E0,2.243863525E-2,1.180822360E-3,1.604709864E-2,2.761152057E-2
2.619703042E0,2.044447890E-2,9.762109257E-3,2.233344018E-2,3.181285974E-2
2.629741042E0,1.304246119E-2,6.902478193E-3,2.188437402E-2,2.639461736E-2
2.639778042E0,1.844517882E-3,-4.003899191E-3,1.978756249E-2,2.027266840E-2
2.649815042E0,-1.263899418E-2,-1.278945034E-2,2.846950829E-2,3.367234943E-2
2.659852917E0,-2.409174818E-2,-1.053044253E-2,2.218199730E-2,3.439976097E-2
2.669889917E0,-1.949949119E-2,4.743727287E-3,4.209176660E-2,4.663099742E-2
2.679926917E0,-3.414628217E-2,1.223404708E-2,3.879978418E-2,5.311368700E-2
2.689964917E0,2.689593576E-2,8.716257080E-3,3.685441554E-2,4.645010702E-2
2.700001917E0,1.036050326E-2,8.778082249E-3,3.146620631E-2,3.427122547E-2
2.710038917E0,1.541598307E-2,2.064153463E-2,2.577978909E-2,3.644616594E-2
2.720076917E0,1.074724632E-2,1.219481592E-2,3.461083889E-2,3.823776939E-2
2.730113917E0,2.403312528E-2,7.455784678E-3,1.260659695E-2,2.814437994E-2
2.740150917E0,2.568006665E-2,6.101843622E-4,2.098916531E-2,3.317202449E-2
2.750188917E0,-3.174990591E-2,-7.791780308E-4,2.937173367E-2,4.325924620E-2
2.760225917E0,-1.951000704E-2,-9.504123707E-3,1.530040920E-2,2.655317803E-2
2.770262917E0,-2.471422083E-2,-1.429384757E-2,1.769601345E-2,3.358951744E-2
2.780300917E0,-7.634083643E-3,-1.397844967E-2,1.245866239E-2,2.022114133E-2
2.790337917E0,7.820093622E-3,-9.754955554E-3,2.188846707E-2,2.520749914E-2
2.800374917E0,6.983681400E-3,6.274391301E-3,1.500278592E-2,1.769811791E-2
2.810412917E0,3.065831297E-2,1.814319754E-2,2.203698635E-2,4.188957554E-2
2.820449917E0,1.143111931E-2,3.456650055E-3,2.862387478E-2,3.101524022E-2
2.830486917E0,1.289304656E-2,1.537982170E-2,3.116858304E-2,3.707087986E-2
2.840524917E0,-3.763683694E-3,-1.142979455E-2,2.772398829E-2,3.022292251E-2
2.850561917E0,-1.840214697E-3,1.407180412E-2,3.101655543E-2,3.410907170E-2
2.860598917E0,-6.337468140E-3,1.062403453E-2,3.131534815E-2,3.367023376E-2
2.870636917E0,-1.346512352E-2,-1.837595784E-2,2.308188379E-2,3.243083004E-2
2.880673917E0,-1.985745042E-2,6.156935357E-5,1.200550318E-2,2.320461666E-2
2.890710917E0,-5.280437730E-3,-1.272069531E-2,1.978873193E-2,2.411001915E-2
2.900748917E0,-5.622463301E-5,-1.213077977E-3,2.592655420E-2,2.595497895E-2
2.910785917E0,2.612094215E-2,2.641434446E-2,4.688239038E-2,5.981621636E-2
2.920822917E0,1.891630452E-2,2.705037992E-2,2.906943262E-2,4.398387821E-2
2.930860917E0,3.010750526E-2,9.967561229E-3,3.385888696E-2,4.639222322E-2
2.940897917E0,1.004128183E-2,1.001753665E-2,4.747997582E-2,4.955326917E-2
2.950934917E0,-5.067078313E-3,-1.023793557E-2,3.370744407E-2,3.559048178E-2
2.960972917E0,2.011822253E-2,-9.631063105E-3,2.771931052E-2,3.557893239E-2
2.971009917E0,-2.443207440E-2,-5.700427699E-3,2.936530173E-2,3.862307706E-2
2.981046917E0,2.489685039E-3,-1.366279596E-3,3.655036032E-2,3.666052497E-2
2.991084917E0,5.721176178E-3,-5.718302820E-3,5.196888328E-2,5.259463540E-2
3.001121917E0,7.561719781E-3,4.827918056E-3,3.475526512E-2,3.589452399E-2
3.011158917E0,2.466419516E-3,5.115148821E-3,1.933849633E-2,2.015503443E-2
3.021196917E0,-3.773532598E-3,1.228976008E-2,3.700176537E-2,3.917152527E-2
3.031233917E0,2.869087565E-2,1.091600245E-2,1.604592919E-2,3.463809029E-2
3.041270917E0,2.374125785E-2,1.567844083E-2,1.559686303E-2,3.244569259E-2
3.051308917E0,1.820837115E-2,5.592633365E-4,2.876888573E-2,3.405152481E-2
3.061345917E0,2.033300721E-3,2.599283787E-3,3.176266015E-2,3.193363693E-2
3.071382917E0,-1.019652084E-2,1.120586903E-3,2.727199852E-2,2.913737558E-2
3.081420917E0,-2.156657328E-2,-1.075616790E-2,2.233227074E-2,3.285639279E-2
3.091457917E0,-1.268868180E-2,-1.428186991E-3,1.694406152E-2,2.121658749E-2
3.101494917E0,-5.925805885E-3,-1.345028621E-3,3.116565943E-2,3.175252124E-2
3.111532917E0,-7.885326622E-3,2.610005205E-3,4.044928372E-2,4.129328101E-2
3.121569917E0,4.496289566E-3,1.966262394E-2,4.838454008E-2,5.242040746E-2
3.131606917E0,2.401403046E-2,1.971258565E-2,3.446348906E-2,4.640034235E-2
3.141644917E0,9.059036393E-3,2.218931546E-3,1.874675810E-2,2.093873771E-2
3.151681917E0,-1.161752671E-2,6.326632518E-3,2.683111846E-2,2.991491474E-2
3.161718917E0,8.503655973E-3,-5.745748188E-3,3.730815947E-2,3.869398597E-2
3.171756917E0,1.118659606E-2,-4.537654049E-3,4.075041533E-2,4.250090099E-2
3.181793917E0,-1.195174077E-2,1.081658608E-2,3.131885648E-2,3.522376205E-2
3.191830917E0,-6.282983967E-3,-1.168684820E-2,2.593064725E-2,2.912828137E-2
3.201868917E0,-1.372212235E-2,-1.009409406E-2,1.680138946E-2,2.392643025E-2
3.211905917E0,7.868392537E-3,1.483223909E-2,3.491489410E-2,3.874218305E-2
3.221942917E0,2.278163840E-2,1.378863900E-2,1.814975739E-2,3.222643801E-2
3.231980917E0,-1.932504773E-4,-9.080323912E-3,2.578505158E-2,2.733785861E-2
3.242017917E0,1.348122620E-2,7.088807942E-3,3.072536409E-2,3.429347834E-2
3.252054917E0,6.533710747E-3,1.701716085E-2,4.659236848E-2,5.003120966E-2
3.262091917E0,1.608799260E-2,-4.607701865E-3,3.192170441E-2,3.604233115E-2
3.272129917E0,1.307729781E-3,9.091310282E-3,2.533481598E-2,2.694837621E-2
3.282166917E0,-1.103746465E-2,8.413759600E-3,3.790808380E-2,4.036879728E-2
3.292203917E0,-1.061233553E-2,-8.602624666E-4,2.847944856E-2,3.040461654E-2
3.302241917E0,-7.520190845E-3,-1.543813397E-2,2.279186189E-2,2.853696233E-2
3.312278917E0,-9.051946644E-3,-2.519810990E-2,2.338886261E-2,3.555167190E-2
3.322315917E0,7.335007698E-3,1.153593978E-2,3.371738434E-2,3.638326884E-2
3.332353917E0,3.529699137E-3,1.299326235E-2,3.820863068E-2,4.051151813E-2
3.342390917E0,1.872822517E-2,1.459771549E-2,3.790983796E-2,4.473248853E-2
3.352427917E0,2.760205101E-2,-3.249809369E-3,3.296952546E-2,4.312103999E-2
3.362465917E0,1.967869921E-2,1.942241758E-2,3.730932891E-2,4.643778129E-2
3.372502917E0,1.065930511E-2,1.803113657E-2,2.458637238E-2,3.229910801E-2
3.382539917E0,6.633985927E-4,4.386320799E-3,3.536454499E-2,3.564170240E-2
3.392577917E0,-1.178313539E-2,8.598682364E-3,2.623353302E-2,3.001629346E-2
3.402614917E0,-8.541516694E-3,-6.920248247E-3,2.039508820E-2,2.316909506E-2
3.412651917E0,-2.517139544E-3,-1.844193544E-3,1.665111601E-2,1.694097712E-2
3.422689917E0,5.861984440E-3,2.641909076E-3,3.042247832E-2,3.109452897E-2
3.432726917E0,-2.147848589E-2,1.628956622E-3,3.102181792E-2,3.776681140E-2
3.442763917E0,6.863539391E-3,6.015350511E-3,1.994602203E-2,2.193482185E-2
3.452801917E0,2.169194124E-2,9.558109953E-3,2.114470124E-2,3.176470008E-2
3.462838917E0,2.007828788E-2,2.506062268E-2,2.548684359E-2,4.099697122E-2
3.472875917E0,3.400612716E-4,-1.028694711E-2,1.321353793E-2,1.674916437E-2
3.482913917E0,-4.102557250E-3,-9.921025615E-3,4.090595126E-2,4.229130613E-2
3.492950917E0,-9.810485831E-4,-1.017874621E-2,3.177552402E-2,3.338043226E-2
3.502987917E0,-3.080541613E-3,-2.976785512E-3,1.890346348E-2,1.938277380E-2
3.513025917E0,-7.702934607E-3,-1.642086362E-2,3.432081699E-2,3.881878982E-2
3.523062917E0,-1.972224270E-2,-1.554490504E-2,2.938167393E-2,3.865092098E-2
3.533099917E0,-2.358013052E-3,4.646599554E-3,2.279537022E-2,2.338332775E-2
3.543137917E0,3.390562814E-3,1.376109770E-2,4.285365880E-2,4.513645753E-2
3.553174917E0,2.297220281E-3,3.426669370E-3,3.836358190E-2,3.858475994E-2
3.563211917E0,1.119808492E-2,4.614279983E-3,3.911085606E-2,4.094322590E-2
3.573249917E0,1.815906725E-2,4.050800255E-3,2.054828525E-2,2.771989777E-2
3.583286917E0,-1.058473027E-2,3.733337559E-3,3.371972322E-2,3.553862770E-2
3.593323917E0,-5.963200657E-3,5.321925553E-3,1.590676546E-2,1.780190555E-2
3.603361917E0,-2.086955777E-2,-7.077492666E-3,2.099618196E-2,3.043795330E-2
3.613398917E0,-3.537204587E-3,-1.650188411E-2,3.357003450E-2,3.757354404E-2
3.623435917E0,-1.160909850E-3,-7.645513122E-3,2.249306917E-2,2.378528418E-2
3.633473917E0,-5.519771576E-4,8.485333174E-3,4.300042391E-2,4.383311550E-2
3.643510917E0,3.562457249E-3,-3.403125191E-4,3.536688387E-2,3.554748077E-2
3.653547917E0,1.860003867E-3,4.188127597E-3,4.419851840E-2,4.443544819E-2
3.663585542E0,-7.241867948E-4,5.866995687E-3,3.806128085E-2,3.851762174E-2
3.673622542E0,6.737486213E-3,-6.554815541E-3,2.264275789E-2,2.451639884E-2
3.683659542E0,1.537420289E-2,2.319247839E-3,1.620555818E-2,2.245807518E-2
3.693697542E0,7.185054026E-3,9.309059680E-3,2.533657014E-2,2.793251475E-2
3.703734542E0,4.542514547E-3,5.356871802E-3,3.431847811E-2,3.502982235E-2
3.713771542E0,8.159652399E-3,4.271253990E-4,3.192287385E-2,3.295196866E-2
3.723809542E0,-5.101362183E-3,-9.997445983E-3,2.054770052E-2,2.341326161E-2
3.733846542E0,-3.263875578E-2,1.832220457E-3,2.264334261E-2,3.976639756E-2
3.743883542E0,3.000809345E-5,-1.446148907E-3,3.342093050E-2,3.345221731E-2
3.753921542E0,1.422213238E-2,7.364705158E-3,4.150236726E-2,4.448544053E-2
3.763958542E0,2.667578809E-2,1.553166658E-2,3.820863068E-2,4.911954596E-2
3.773995542E0,6.740478342E-3,1.583813834E-2,3.686084747E-2,4.068172502E-2
3.784033542E0,2.499212803E-2,-3.972264840E-3,2.428757966E-2,3.507523167E-2
3.794070542E0,2.046768046E-2,6.096106041E-3,2.159142852E-2,3.036903419E-2
3.804107542E0,7.300792350E-3,-6.321575590E-3,3.581127226E-2,3.709057977E-2
3.814145542E0,-5.878932229E-3,-2.169556834E-2,2.832683623E-2,3.616170876E-2
3.824182542E0,1.099774926E-2,-2.011820426E-2,1.889644682E-2,2.971141757E-2
3.834219542E0,1.447218308E-2,1.930019706E-3,4.299633086E-2,4.540763731E-2
3.844257542E0,5.177129307E-3,-1.357846814E-3,4.344715118E-2,4.377557951E-2
3.854294542E0,-6.537315007E-3,2.581669050E-3,1.350940704E-2,1.522844645E-2
3.864331542E0,-4.623603551E-3,2.312719971E-3,3.671115875E-2,3.707338075E-2
3.874369542E0,8.933654730E-3,-2.459761456E-2,1.919699371E-2,3.245577601E-2
3.884406542E0,1.908179442E-2,1.473330237E-2,1.635349274E-2,2.913111398E-2
3.894443542E0,1.312912789E-2,1.607411917E-2,2.563302398E-2,3.298186205E-2
3.904480542E0,5.246304609E-3,5.422657547E-3,2.922438383E-2,3.018266948E-2
3.914518542E0,-1.959680622E-3,5.159240481E-3,4.164737821E-2,4.201145346E-2
3.924555542E0,-9.519742168E-3,-2.910958654E-3,9.463718534E-3,1.373539733E-2
3.934592542E0,-2.799957488E-3,1.298671165E-2,1.769659817E-2,2.212835349E-2
3.944630542E0,-5.375217441E-3,-9.807539382E-3,2.607858181E-2,2.837557436E-2
3.954667542E0,7.093220763E-4,9.990045601E-3,2.308480740E-2,2.516371359E-2
3.964704542E0,2.063130200E-2,1.148473097E-2,1.350472927E-2,2.720160621E-2
3.974742542E0,1.991574442E-2,3.006775333E-3,2.877356350E-2,3.512257864E-2
3.984779542E0,5.383092910E-3,1.819489058E-3,3.700468898E-2,3.743841925E-2
3.994816542E0,1.253784648E-3,1.769742044E-3,2.832274318E-2,2.840566394E-2
4.004854542E0,-6.203301949E-4,1.493127630E-3,3.161531031E-2,3.165662783E-2
4.014891542E0,4.427520828E-3,-4.877171712E-3,1.814274073E-2,1.930152288E-2
4.024928542E0,-2.016002556E-2,-1.634403212E-2,4.164328516E-2,4.906849514E-2
4.034966542E0,1.045041333E-2,1.447100907E-2,2.921912134E-2,3.424001013E-2
4.045003542E0,-1.890701749E-3,-1.229718331E-2,2.936997950E-2,3.189656982E-2
4.055040542E0,1.028423821E-2,4.967862940E-3,3.281340480E-2,3.474427654E-2
4.065078542E0,2.561742836E-3,1.894411077E-3,2.787250757E-2,2.805401929E-2
4.075115542E0,6.690886645E-3,-4.647778133E-3,2.517752588E-2,2.646275902E-2
4.085152542E0,1.437842663E-2,1.361843021E-2,2.383032739E-2,3.098524322E-2
4.095190542E0,1.909499634E-3,1.868102261E-2,2.637503564E-2,3.237698719E-2
4.105227542E0,7.217643117E-3,-2.445753263E-3,5.868265629E-3,9.618348230E-3
4.115264542E0,-2.607305436E-3,-3.217325346E-3,2.667558253E-2,2.699510932E-2
4.125302542E0,-9.929536055E-3,-5.029126229E-3,2.517811060E-2,2.752862238E-2
4.135339542E0,-1.328048855E-4,-4.246088122E-3,2.996756494E-2,3.026717446E-2
4.145376542E0,-8.706321381E-3,-4.927923717E-3,2.053717554E-2,2.284425624E-2
4.155414542E0,5.370347807E-3,-1.875946666E-3,2.817188501E-2,2.874047523E-2
4.165451542E0,-3.339198679E-3,5.279144947E-3,2.727433741E-2,2.798051287E-2
4.175488542E0,3.041063771E-3,2.413785439E-3,2.577745020E-2,2.606820608E-2
4.185526542E0,-1.314792121E-3,1.192133525E-2,2.383091211E-2,2.667881715E-2
4.195563542E0,2.694722681E-2,8.712607138E-3,2.218492091E-2,3.597545374E-2
4.205600542E0,1.021342294E-2,1.421242966E-2,3.969850123E-2,4.338522980E-2
4.215638542E0,-1.213498246E-3,2.461481360E-3,1.664643824E-2,1.687114029E-2
4.225675542E0,3.057559314E-3,-2.318937206E-3,3.116448998E-2,3.139986584E-2
4.235712542E0,1.624952193E-2,-3.074529944E-3,3.909799218E-2,4.245176899E-2
4.245750542E0,-4.464509035E-3,7.729745004E-5,2.442791283E-2,2.483265473E-2
4.255787542E0,-1.178999674E-3,2.849704502E-3,4.328927636E-2,4.339898966E-2
4.265824542E0,2.210261678E-2,8.911522105E-4,3.041663110E-2,3.760972306E-2
4.275862542E0,1.763020943E-2,1.671983907E-4,2.772281885E-2,3.285432886E-2
4.285899542E0,1.861779959E-2,-2.064724937E-3,2.083713770E-2,2.801913379E-2
4.295936542E0,2.199279419E-3,1.464603268E-2,2.891974390E-2,3.249145565E-2
4.305974542E0,1.668587954E-2,-5.969440732E-3,1.020748436E-2,2.045105219E-2
4.316011542E0,8.133038431E-3,-1.005909299E-2,4.014464378E-2,4.217729354E-2
4.326048542E0,-8.593534073E-4,7.383937016E-5,2.367888451E-2,2.369458824E-2
4.336086542E0,1.050108311E-2,-9.244968714E-3,1.215343773E-2,1.853235662E-2
4.346123542E0,-3.297884446E-3,-1.196926415E-2,2.876947045E-2,3.133403511E-2
4.356160542E0,8.594360906E-3,-5.456786100E-3,3.834954858E-2,3.967779518E-2
4.366198542E0,3.184512416E-3,6.155925798E-3,1.799246728E-2,1.928121938E-2
4.376235542E0,1.527378609E-2,1.261865683E-2,1.769425929E-2,2.656324253E-2
4.386272542E0,2.748064819E-2,1.861935276E-2,2.532838404E-2,4.175396221E-2
4.396310542E0,1.019426874E-2,1.929581165E-3,2.487931788E-2,2.695601708E-2
4.406347542E0,1.434844594E-2,-7.074811170E-4,4.703149438E-2,4.917661938E-2
4.416384542E0,5.531794913E-3,1.681439951E-4,-1.793341041E-2,1.876795770E-2
4.426422542E0,1.128742855E-2,1.331210006E-2,4.059370995E-2,4.418673261E-2
4.436459542E0,2.049284633E-2,-2.184729902E-3,1.394677877E-2,2.488458225E-2
4.446496542E0,7.676014574E-3,-2.082484484E-2,4.148891866E-2,4.705237225E-2
4.456533542E0,-6.150581078E-3,-6.396671198E-3,2.906533957E-2,3.038981760E-2
4.466571542E0,-4.071681211E-3,9.801884028E-3,3.325954735E-2,3.491207540E-2
4.476608542E0,6.126264883E-3,-5.014444236E-5,3.849923730E-2,3.898364925E-2
4.486646542E0,1.996676138E-2,-9.881072687E-3,2.038690209E-2,3.019822734E-2
4.496683542E0,1.779721596E-2,-3.991482994E-3,2.442849755E-2,3.048646134E-2
4.506720542E0,7.265371014E-3,2.126816886E-2,1.604651392E-2,2.761541655E-2
4.516757542E0,1.343498295E-3,5.988553818E-3,3.700351954E-2,3.750904188E-2
4.526795542E0,-1.080861925E-2,-2.346455664E-3,1.544191182E-2,1.899433454E-2
4.536832542E0,4.349968476E-2,1.028625275E-2,6.662785292E-2,8.023278852E-2
4.546869542E0,4.427496160E-2,1.390586654E-3,8.539858460E-3,4.511247210E-2
4.556907542E0,9.285380283E-2,2.654697119E-2,1.514861548E-1,1.796513999E-1
4.566944542E0,5.490123452E-2,-6.360009156E-2,1.811584353E-2,8.594940945E-2
4.576981542E0,1.592946143E0,-1.436063447E0,-2.736192870E-1,2.162087683E0
4.587019542E0,1.055572479E0,-1.460882703E-1,8.206157863E-2,1.068788634E0
4.597056542E0,-9.092524128E-1,7.874255285E-1,3.955699861E-2,1.203471507E0
4.607093542E0,-1.440554547E0,4.355172498E-1,1.591144323E-1,1.513337398E0
4.617131542E0,-8.357631446E-1,2.007144938E-2,3.115302944E-1,8.921625532E-1
4.627168542E0,-5.068947960E-1,-3.245472197E-1,6.999777871E-1,9.231696131E-1
4.637205542E0,-9.066621693E-1,-3.708233269E-1,7.453282070E-1,1.230877884E0
4.647243542E0,-1.342199117E0,-5.309384006E-1,2.853429544E-1,1.471330913E0
4.657280333E0,-1.786686471E0,-6.003463487E-1,1.413757342E-1,1.890145862E0
4.667317333E0,-1.386484320E0,-1.067118318E-1,3.390215635E-2,1.390998038E0
4.677355333E0,4.837497623E-1,3.515066115E-1,-1.633548331E-1,6.198834825E-1
4.687392333E0,2.619626872E0,5.559162806E-1,-5.215973639E-1,2.728287314E0
4.697429333E0,3.989851401E0,1.082286507E0,-7.664822638E-2,4.134747059E0
4.707467333E0,3.308723575E0,1.662687200E0,1.990146625E-1,3.708340230E0
4.717504333E0,2.592102858E0,1.558822523E0,-6.553734720E-2,3.025428900E0
4.727541333E0,8.720641212E-1,4.790326672E-1,-2.562893093E-1,1.027449433E0
4.737579333E0,-5.215368453E-1,-2.224409107E-1,1.371953259E0,1.484498698E0
4.747616333E0,-3.993056626E-1,2.200704130E-1,6.509722728E-1,7.947583901E-1
4.757653333E0,-6.559764661E-1,7.127530032E-1,7.675628293E-1,1.235910460E0
4.767691333E0,-5.061904623E-1,9.067566749E-1,3.227657778E0,3.390606315E0
4.777728333E0,-7.718503732E-2,1.152816280E0,4.987723483E0,5.119797697E0
4.787765333E0,1.851581136E-2,1.314923172E0,6.594417307E0,6.724262443E0
4.797803333E0,-6.793802391E-1,1.093717302E0,7.784994029E0,7.890748195E0
4.807840333E0,-1.963518697E0,1.114722401E0,7.859612103E0,8.177500481E0
4.817877333E0,-2.989002794E0,1.736351007E0,7.143633994E0,7.936029181E0
4.827915333E0,-3.584867690E0,1.508580469E0,7.178070002E0,8.164054160E0
4.837952333E0,-3.745372298E0,-1.691330516E-1,7.687319800E0,8.552853638E0
4.847989333E0,-3.476432830E0,-1.699537668E0,6.757270449E0,7.786829742E0
4.858027333E0,-3.524946009E0,-1.687645309E0,4.504627111E0,5.963644562E0
4.868064333E0,-4.150664742E0,-9.459572858E-1,3.069760736E0,5.248455388E0
4.878101333E0,-5.031149585E0,-2.512598267E-1,2.701863282E0,5.716263014E0
4.888139333E0,-5.708662369E0,-5.478256345E-3,2.977834319E0,6.438660831E0
4.898176333E0,-5.630679808E0,-1.148349300E-1,3.710081136E0,6.744067333E0
4.908213333E0,-4.941393655E0,-4.820181459E-2,4.448307315E0,6.648844458E0
4.918251333E0,-4.083943918E0,5.625954089E-1,4.439247054E0,6.058219700E0
4.928288333E0,-3.890081822E0,8.976396963E-1,4.201778762E0,5.795984677E0
4.938325333E0,-4.159054912E0,-6.753551620E-1,5.244459520E0,6.727421349E0
4.948363333E0,-5.270355084E0,-3.164244139E0,5.583578732E0,8.304543042E0
4.958400333E0,-6.262498941E0,-3.389828550E0,2.715404849E0,7.621237044E0
4.968437333E0,-6.469035462E0,-2.596325718E0,3.900987464E-1,6.981511589E0
4.978475333E0,-5.704735964E0,-1.988707625E0,-8.222103220E-1,6.097130493E0
4.988512333E0,-3.603181170E0,-1.482127081E0,-1.412663913E0,4.144301456E0
4.998549333E0,-1.981396998E0,-1.420649455E0,-1.394771433E0,2.808837177E0
5.008587333E0,-1.946647872E0,-1.585258516E0,-9.613787323E-1,2.688258092E0
5.018624333E0,-2.515851073E0,-1.722503192E0,-2.681293362E-1,3.060787025E0
5.028661333E0,-2.635516973E0,-1.772132020E0,1.734658384E-1,3.180643332E0
5.038698333E0,-2.023623835E0,-1.682711720E0,2.266655606E-1,2.641580859E0
5.048736333E0,-8.648835942E-1,-1.760562719E0,5.369030356E-1,2.033683749E0
5.058773333E0,9.688295469E-2,-2.224835735E0,8.967056036E-1,2.400700167E0
5.068810333E0,5.523293062E-1,-2.724998960E0,7.645409882E-1,2.883610570E0
5.078848333E0,7.311606959E-1,-2.560831364E0,-1.207736546E-1,2.665903133E0
5.088885333E0,1.011509543E0,-2.294063845E0,-7.229415572E-1,2.609315039E0
5.098922333E0,1.172860243E0,-2.223389719E0,-1.071201137E0,2.732496087E0
5.108960333E0,1.646062542E0,-2.389879829E0,-1.081078253E0,3.096736618E0
5.118997333E0,2.475144512E0,-2.644078174E0,-8.423346841E-1,3.718469775E0
5.129034333E0,3.072193470E0,-2.702039284E0,-7.725458264E-1,4.163678189E0
5.139072333E0,3.592382239E0,-2.313848484E0,-9.087748414E-1,4.368635562E0
5.149109333E0,4.052460755E0,-2.057242840E0,-8.984126982E-1,4.632691620E0
5.159146333E0,4.620620959E0,-2.136021207E0,-7.334820405E-1,5.143026400E0
5.169184333E0,5.113928617E0,-2.158411950E0,-4.683646050E-1,5.570491311E0
5.179221333E0,4.973660345E0,-2.171324356E0,-1.566989475E-1,5.429226579E0
5.189258333E0,4.464114385E0,-2.293944561E0,-1.114999706E-1,5.020252099E0
5.199296333E0,4.007693303E0,-2.433832179E0,-4.429739481E-1,4.709710246E0
5.209333333E0,3.761034942E0,-2.703820930E0,-7.707855222E-1,4.695757849E0
5.219370333E0,4.007766978E0,-2.790824575E0,-1.187357830E0,5.026004036E0
5.229408333E0,4.587077237E0,-2.700213198E0,-1.355025277E0,5.492587951E0
5.239445333E0,4.545669302E0,-2.449828407E0,-1.182434474E0,5.297444659E0
5.249482333E0,4.141372347E0,-2.112922366E0,-8.861709675E-1,4.732938287E0
5.259520333E0,3.819525518E0,-1.862413030E0,-4.179572207E-1,4.269899965E0
5.269557333E0,3.628063703E0,-1.884517844E0,1.941220048E-1,4.092913033E0
5.279594333E0,3.622341618E0,-2.059962380E0,7.221124220E-1,4.229213893E0
5.289632333E0,3.648775418E0,-2.152237290E0,1.068210871E0,4.368839877E0
5.299669333E0,3.649409549E0,-1.992373829E0,1.122770655E0,4.306780407E0
5.309706333E0,3.498680316E0,-1.650085427E0,1.045326623E0,4.007025533E0
5.319744333E0,3.308642884E0,-1.215660692E0,1.159078356E0,3.710580991E0
5.329781333E0,3.319609044E0,-1.242594722E0,1.554357151E0,3.870383961E0
5.339818333E0,3.300653248E0,-1.835321125E0,1.945509565E0,4.248261170E0
5.349856333E0,3.070508595E0,-2.490111630E0,2.072446185E0,4.463598565E0
5.359893333E0,2.790668162E0,-2.735465477E0,1.591773338E0,4.219519229E0
5.369930333E0,2.466612547E0,-2.798634701E0,7.258534706E-1,3.800446936E0
5.379968333E0,1.997139603E0,-2.885468777E0,-2.137873605E-2,3.509266833E0
5.390005333E0,1.794388569E0,-2.991917338E0,-2.077825624E-1,3.494935377E0
5.400042333E0,1.835122028E0,-3.262436432E0,8.541261792E-2,3.744123348E0
5.410080333E0,1.767357768E0,-3.575933145E0,5.327637917E-1,4.024262491E0
5.420117333E0,1.563331165E0,-3.685959617E0,7.800255847E-1,4.079061478E0
5.430154333E0,1.172443337E0,-3.694866681E0,6.065784574E-1,3.923595365E0
5.440191333E0,7.546922305E-1,-3.823228852E0,6.337095380E-2,3.897519094E0
5.450229333E0,5.011937973E-1,-4.136144351E0,-3.799526578E-1,4.183688485E0
5.460266333E0,3.419144735E-1,-4.328283273E0,-5.797378372E-1,4.380301081E0
5.470303333E0,1.688029763E-1,-4.308036704E0,-5.394418967E-1,4.344959407E0
5.480341333E0,8.776553750E-2,-4.292666128E0,-4.363595778E-1,4.315680127E0
5.490378333E0,1.152038893E-1,-4.468984239E0,-3.026435499E-1,4.480701416E0
5.500415333E0,-3.332649797E-2,-4.625210146E0,-3.400897036E-1,4.637816357E0
5.510453333E0,-4.211372289E-1,-4.778928768E0,-4.082718927E-1,4.814789993E0
5.520490333E0,-7.558520257E-1,-4.730649478E0,-5.070142619E-1,4.817408041E0
5.530527333E0,-9.755020970E-1,-4.406491536E0,-4.185167992E-1,4.532541044E0
5.540565333E0,-1.037154262E0,-4.000379021E0,-1.739833170E-1,4.136301665E0
5.550602333E0,-8.573099881E-1,-3.757919546E0,7.609975755E-2,3.855221252E0
5.560639333E0,-6.619030577E-1,-3.701330777E0,2.255972743E-1,3.766810230E0
5.570677333E0,-6.104028288E-1,-3.858140822E0,1.764929420E-1,3.910114062E0
5.580714333E0,-8.427603614E-1,-4.051795342E0,-4.154797554E-2,4.138721633E0
5.590751333E0,-1.443963766E0,-4.262993263E0,-2.218956944E-1,4.506371114E0
5.600789333E0,-2.268323524E0,-4.246673099E0,-3.820009375E-1,4.829642714E0
5.610826333E0,-3.341720875E0,-4.007605594E0,-5.337864697E-1,5.245276828E0
5.620863333E0,-4.458246704E0,-3.557845368E0,-6.307030459E-1,5.738642145E0
5.630901333E0,-5.170645439E0,-3.185139164E0,-5.590821093E-1,6.098627596E0
5.640938333E0,-5.425813837E0,-3.196594445E0,-5.273334825E-1,6.319474063E0
5.650975333E0,-5.609888864E0,-3.418288702E0,-7.445639759E-1,6.611348291E0
5.661013542E0,-5.652914430E0,-3.570800459E0,-1.043474956E0,6.767192731E0
5.671050542E0,-5.762885939E0,-3.268269029E0,-1.144447599E0,6.723257923E0
5.681087542E0,-5.981689333E0,-2.552065803E0,-9.342704558E-1,6.570122406E0
5.691125542E0,-5.835442868E0,-1.947301737E0,-7.449335200E-1,6.196717153E0
5.701162542E0,-5.339265690E0,-1.710098909E0,-6.330414936E-1,5.642068585E0
5.711199542E0,-4.980528485E0,-1.667455165E0,-5.760516062E-1,5.283739790E0
5.721237542E0,-4.865888267E0,-1.600484081E0,-5.773333159E-1,5.154777558E0
5.731274542E0,-4.849005893E0,-1.460463731E0,-4.139778981E-1,5.081061913E0
5.741311542E0,-4.690280009E0,-1.197400423E0,-2.016386005E-1,4.844909953E0
5.751349542E0,-4.334797071E0,-1.041843436E0,-1.723443425E-1,4.461569899E0
5.761386542E0,-3.881140552E0,-8.266173685E-1,-3.332986012E-1,3.982164765E0
5.771423542E0,-3.654909732E0,-5.672454071E-1,-5.618928659E-1,3.741103593E0
5.781461542E0,-3.812057161E0,-1.457260627E-1,-5.883509320E-1,3.859944651E0
5.791498542E0,-4.180956535E0,3.327322984E-1,-3.899101737E-1,4.212260471E0
5.801535542E0,-4.556031738E0,3.964219254E-1,2.534417152E-2,4.573315850E0
5.811572542E0,-4.815133558E0,3.601294273E-1,4.861910114E-1,4.852997639E0
5.821610542E0,-5.049323900E0,1.007065952E0,6.189523351E-1,5.185841848E0
5.831647542E0,-5.439187589E0,2.060319060E0,3.892424217E-1,5.829338377E0
5.841684542E0,-5.215018204E0,2.891288511E0,-3.385537863E-2,5.962978309E0
5.851722542E0,-4.034562428E0,3.317842893E0,-2.160987648E-1,5.228046875E0
5.861759542E0,-2.821808971E0,3.511080506E0,5.434022158E-2,4.504802443E0
5.871796542E0,-2.201498620E0,3.511934785E0,7.410840055E-1,4.210639810E0
5.881834542E0,-2.618314757E0,3.375748454E0,1.153416497E0,4.425112361E0
5.891871542E0,-3.594767026E0,3.501238473E0,1.570106334E0,5.257970589E0
5.901908542E0,-4.182246723E0,3.718491186E0,1.640776367E0,5.831853174E0
5.911946542E0,-3.908139194E0,4.564518971E0,1.106348165E0,6.110023867E0
5.921983542E0,-2.883138662E0,5.451219989E0,5.864084870E-1,6.194526844E0
5.932020542E0,-1.994812995E0,5.705931720E0,1.020656635E0,6.130144830E0
5.942058542E0,-1.913065120E0,5.234744371E0,1.559754716E0,5.787503914E0
5.952095542E0,-2.757201331E0,4.660098143E0,2.013707981E0,5.776996946E0
5.962132542E0,-3.269487881E0,4.437244967E0,2.311955155E0,5.976941571E0
5.972170542E0,-2.708283233E0,4.511336791E0,1.968329494E0,5.617942569E0
5.982207542E0,-1.775777613E0,4.705660817E0,1.357175590E0,5.209467865E0
5.992244542E0,-1.267352125E0,5.000575079E0,1.272637131E0,5.313335844E0
6.002282542E0,-9.966030903E-1,5.288674411E0,1.862564473E0,5.694948740E0
6.012319542E0,-7.798405203E-1,5.224272593E0,2.698900498E0,5.931714698E0
6.022356542E0,-5.608894106E-1,4.792875547E0,3.586100283E0,6.012184976E0
6.032394542E0,-4.298063839E-1,4.388702552E0,3.991219942E0,5.947712186E0
6.042431542E0,-1.422976939E-1,4.428109277E0,3.679613049E0,5.759162491E0
6.052468542E0,5.114378268E-1,4.763067611E0,3.177742437E0,5.748602327E0
6.062506542E0,1.245585573E0,4.990713750E0,3.000619749E0,5.955033672E0
6.072543542E0,1.744496909E0,4.891180106E0,3.215362253E0,6.107820127E0
6.082580542E0,1.892263650E0,4.638385677E0,3.647031194E0,6.196460275E0
6.092618542E0,1.828023216E0,4.372538509E0,4.092307191E0,6.261608423E0
6.102655542E0,1.769171429E0,4.228223965E0,4.343939778E0,6.314875947E0
6.112692542E0,1.813907160E0,4.066197619E0,4.274385978E0,6.172082124E0
6.122730542E0,2.008407041E0,3.776734716E0,3.905221433E0,5.792078936E0
6.132767542E0,2.212954777E0,3.500060844E0,3.593168398E0,5.482559064E0
6.142804542E0,2.468719591E0,3.378522958E0,3.374319980E0,5.375409670E0
6.152841542E0,2.807783840E0,3.339541326E0,3.247421951E0,5.438927807E0
6.162879542E0,3.145276064E0,3.281471457E0,3.376857671E0,5.662506881E0
6.172916542E0,3.352059630E0,3.144064813E0,3.671379585E0,5.882216875E0
6.182953542E0,3.414423985E0,2.891735238E0,4.086257077E0,6.059531396E0
6.192991542E0,3.572812193E0,2.598832419E0,4.408786861E0,6.241499699E0
6.203028542E0,3.734185990E0,2.290122237E0,4.570098677E0,6.330450757E0
6.213065542E0,3.804166344E0,2.040101143E0,4.644110101E0,6.340461567E0
6.223103542E0,3.881765620E0,1.719912291E0,4.767093711E0,6.383681153E0
6.233140542E0,4.012215539E0,1.032308967E0,4.832957041E0,6.365611447E0
6.243177542E0,4.156727135E0,2.413841718E-1,4.686035222E0,6.268618101E0
6.253215542E0,4.353052078E0,-3.800351036E-1,4.394425222E0,6.197133379E0
6.263252542E0,4.611762135E0,-8.081255490E-1,3.959456697E0,6.131779043E0
6.273289542E0,4.793095110E0,-1.242032804E0,3.448481093E0,6.033939680E0
6.283327542E0,4.825143991E0,-1.730837229E0,3.036768406E0,5.958168712E0
6.293364542E0,4.632089980E0,-2.173791296E0,2.949450765E0,5.906004233E0
6.303401542E0,4.441858420E0,-2.497676758E0,2.916198527E0,5.871346461E0
6.313439542E0,4.365777959E0,-2.636155781E0,2.899718734E0,5.866660313E0
6.323476542E0,4.313840066E0,-2.738476208E0,2.834961698E0,5.843413034E0
6.333513542E0,4.112657256E0,-3.042685788E0,2.602693628E0,5.739851969E0
6.343551542E0,3.894035417E0,-3.461979682E0,2.192165295E0,5.652822643E0
6.353588542E0,3.725016094E0,-3.942886273E0,1.718198472E0,5.689842093E0
6.363625542E0,3.511955542E0,-4.335689356E0,1.280828496E0,5.724731920E0
6.373663542E0,3.385012198E0,-4.569007294E0,8.886235821E-1,5.755326846E0
6.383700542E0,3.267200158E0,-4.688205709E0,4.540418503E-1,5.732366322E0
6.393737542E0,2.878885397E0,-4.759331240E0,1.379583290E-1,5.564013613E0
6.403775542E0,2.434016367E0,-4.795392773E0,2.345552087E-1,5.382865749E0
6.413812542E0,2.002189843E0,-4.814152395E0,5.407697994E-1,5.241875564E0
6.423849542E0,1.631613488E0,-4.829239966E0,8.629411492E-1,5.169950546E0
6.433887542E0,1.517554191E0,-4.831214570E0,1.179566415E0,5.199517466E0
6.443924542E0,1.641812786E0,-4.844054471E0,1.285054132E0,5.273687236E0
6.453961542E0,1.662521577E0,-4.822305753E0,9.603390974E-1,5.190458742E0
6.463999542E0,1.532620419E0,-4.836217448E0,4.950151907E-1,5.097348781E0
6.474036542E0,1.310210754E0,-5.017697480E0,1.160888654E-1,5.187235955E0
6.484073542E0,1.059508460E0,-5.202549602E0,-3.294892864E-1,5.319552963E0
6.494111542E0,8.565402022E-1,-5.343077490E0,-5.895149665E-1,5.443313887E0
6.504148542E0,7.476548141E-1,-5.437271456E0,-6.995521098E-1,5.532836683E0
6.514185542E0,5.731873477E-1,-5.405885941E0,-6.615551484E-1,5.476294528E0
6.524222542E0,4.015350232E-1,-5.183558430E0,-4.473657918E-1,5.218299007E0
6.534260542E0,3.173441809E-1,-4.973742206E0,-3.714000817E-1,4.997675148E0
6.544297542E0,1.678028101E-1,-4.821455567E0,-3.450934584E-1,4.836701466E0
6.554334542E0,-1.572067782E-1,-4.732283775E0,-2.750786059E-1,4.742878022E0
6.564372542E0,-5.220544700E-1,-4.766988754E0,-2.393984574E-1,4.801461680E0
6.574409542E0,-8.755797596E-1,-4.905379484E0,-2.021429229E-1,4.987008077E0
6.584446542E0,-1.236042478E0,-5.023893775E0,-1.908823550E-1,5.177233406E0
6.594484542E0,-1.570236288E0,-5.049595796E0,-3.154901750E-1,5.297508259E0
6.604521542E0,-1.919474399E0,-4.819721283E0,-5.643792482E-1,5.218488206E0
6.614558542E0,-2.139483928E0,-4.568862283E0,-7.498141909E-1,5.100403451E0
6.624596542E0,-2.219434808E0,-4.458612447E0,-9.160540402E-1,5.064017262E0
6.634633542E0,-2.194143846E0,-4.496784241E0,-9.313585424E-1,5.089475853E0
6.644670542E0,-2.216526549E0,-4.607141080E0,-8.624961761E-1,5.184847011E0
6.654708542E0,-2.479833979E0,-4.632491099E0,-8.078980923E-1,5.316225134E0
6.664745667E0,-3.009675332E0,-4.483961881E0,-8.551675683E-1,5.467665986E0
6.674782667E0,-3.681872998E0,-4.120966734E0,-1.091268196E0,5.632887525E0
6.684820667E0,-4.450909325E0,-3.744621808E0,-1.372975352E0,5.976441050E0
6.694857667E0,-5.264534765E0,-3.551370161E0,-1.600630261E0,6.549013174E0
6.704894667E0,-5.954672858E0,-3.533320976E0,-1.726577240E0,7.136074196E0
6.714932667E0,-6.262682544E0,-3.691209247E0,-1.693213320E0,7.464126854E0
6.724969667E0,-5.953546684E0,-3.890685255E0,-1.523250841E0,7.273406561E0
6.735006667E0,-5.306264589E0,-3.817722529E0,-1.350891880E0,6.675054911E0
6.745044667E0,-4.781634859E0,-3.134330953E0,-1.148509806E0,5.831563875E0
6.755081667E0,-4.516472985E0,-2.212995123E0,-1.154542378E0,5.160314307E0
6.765118667E0,-4.541775057E0,-1.530056707E0,-1.131452601E0,4.924325251E0
6.775156667E0,-4.893845267E0,-1.223324638E0,-7.910540181E-1,5.106075903E0
6.785193667E0,-5.106617258E0,-1.137990373E0,-3.250987583E-1,5.241970156E0
6.795230667E0,-4.860775169E0,-1.057218105E0,1.186467299E-1,4.975833841E0
6.805268667E0,-3.991473711E0,-8.948128599E-1,3.598215714E-1,4.106339490E0
6.815305667E0,-2.819835244E0,-6.486211073E-1,3.009871799E-1,2.909084637E0
6.825342667E0,-2.090085919E0,-2.254072398E-1,-8.048224568E-2,2.103745461E0
6.835379667E0,-2.560370311E0,2.475535691E-1,-3.754842156E-1,2.599570599E0
6.845417667E0,-4.269145703E0,5.348044699E-1,-2.188682985E-1,4.308076623E0
6.855454667E0,-5.786642591E0,5.751584440E-1,1.102106595E-1,5.816200315E0
6.865491667E0,-6.044967316E0,4.307374799E-1,2.698606968E-1,6.066299484E0
6.875529667E0,-5.034529860E0,5.190222502E-1,2.188086569E-1,5.065940410E0
6.885566667E0,-3.464306290E0,8.543349248E-1,6.095546901E-2,3.568616231E0
6.895603667E0,-2.230290749E0,1.250557460E0,-3.113408446E-2,2.557158602E0
6.905641667E0,-2.039231369E0,1.737071530E0,-3.894245625E-3,2.678786524E0
6.915678667E0,-3.196502936E0,1.958976873E0,2.064441347E-1,3.754709121E0
6.925715667E0,-5.152280504E0,1.813181228E0,4.746342820E-1,5.482599590E0
6.935753667E0,-6.776628242E0,1.681028307E0,3.377725983E-1,6.990181458E0
6.945790667E0,-7.167222832E0,1.705744488E0,-2.983834147E-2,7.367464809E0
6.955827667E0,-6.008980628E0,1.931386786E0,-4.145617425E-2,6.311879412E0
6.965865667E0,-4.390129273E0,2.353934655E0,1.972949964E-1,4.985295248E0
6.975902667E0,-3.448092545E0,2.908178778E0,9.223123151E-1,4.604074936E0
6.985939667E0,-2.989044601E0,3.420900654E0,1.965387175E0,4.949716725E0
6.995977667E0,-2.953102936E0,3.792202356E0,2.874150322E0,5.600210329E0
7.006014667E0,-3.129270481E0,4.133897851E0,3.518080208E0,6.265647096E0
7.016051667E0,-3.097003206E0,4.410600375E0,3.624946845E0,6.495003014E0
7.026089667E0,-2.698572177E0,4.637806803E0,3.379920443E0,6.341561790E0
7.036126667E0,-1.969457422E0,4.843873792E0,3.006723658E0,6.031771134E0
7.046163667E0,-1.171866509E0,4.819243566E0,2.804678383E0,5.697771538E0
7.056201667E0,-8.645140502E-1,4.607368537E0,2.953795831E0,5.540770632E0
7.066238667E0,-1.273025971E0,4.519900623E0,3.188285551E0,5.675848969E0
7.076275667E0,-1.917684128E0,4.722735271E0,3.327660953E0,6.087287432E0
7.086313667E0,-2.057285378E0,5.041119087E0,3.375277753E0,6.406075608E0
7.096350667E0,-1.296061516E0,5.123920339E0,3.486899346E0,6.331887723E0
7.106387667E0,-4.850892498E-1,5.024930486E0,3.464413294E0,6.122695276E0
7.116425667E0,-1.494990516E-2,4.988278969E0,3.544376891E0,6.119293923E0
7.126462667E0,1.711053906E-1,4.918779548E0,3.771824225E0,6.200832789E0
7.136499667E0,1.147461163E-1,4.815417733E0,3.985118372E0,6.251606438E0
7.146536667E0,-1.406021293E-1,4.723564407E0,4.206001621E0,6.326316409E0
7.156574667E0,-1.110476702E-1,4.665697437E0,4.343999419E0,6.375844659E0
7.166611667E0,4.679165621E-1,4.517676927E0,4.323103809E0,6.270372977E0
7.176648667E0,1.333982463E0,4.255510581E0,4.281986774E0,6.182579579E0
7.186686667E0,1.966263380E0,3.920676793E0,4.257017409E0,6.112290521E0
7.196723667E0,2.241793684E0,3.612316275E0,4.177861311E0,5.960620180E0
7.206760667E0,2.368782344E0,3.378809472E0,4.105772159E0,5.821069340E0
7.216798667E0,2.478470116E0,3.059638621E0,4.044640689E0,5.644760483E0
7.226835667E0,2.722967930E0,2.727822581E0,3.964732055E0,5.529436739E0
7.236872667E0,2.882139665E0,2.385744678E0,3.798121492E0,5.331438229E0
7.246910667E0,2.716703223E0,2.028257607E0,3.589048449E0,4.937162555E0
7.256947667E0,2.351062357E0,1.621273271E0,3.380059606E0,4.425022505E0
7.266984667E0,2.021252058E0,1.157648127E0,3.365792400E0,4.093185502E0
7.277022667E0,1.843953808E0,7.064319438E-1,3.361602286E0,3.898664087E0
7.287059667E0,1.920361860E0,2.394037199E-1,3.186608570E0,3.728213780E0
7.297096667E0,2.168307339E0,-1.544828528E-1,2.973370555E0,3.683253199E0
7.307134667E0,2.413923433E0,-4.468600076E-1,2.738997195E0,3.678153863E0
7.317171667E0,2.651511154E0,-6.910081583E-1,2.515507257E0,3.719647891E0
7.327208667E0,2.838788116E0,-9.044870782E-1,2.353175102E0,3.796610054E0
7.337246667E0,2.893372166E0,-1.106151114E0,2.280044560E0,3.846267799E0
7.347283667E0,2.762650644E0,-1.242571918E0,2.277132062E0,3.789664099E0
7.357320667E0,2.527692854E0,-1.336439025E0,2.323258992E0,3.684132568E0
7.367358667E0,2.393029870E0,-1.437642049E0,2.368325238E0,3.660924890E0
7.377395667E0,2.580093847E0,-1.577154860E0,2.326615294E0,3.815421397E0
7.387432667E0,2.868610670E0,-1.647341913E0,2.225798187E0,3.987084163E0
7.397470667E0,2.892847964E0,-1.676733527E0,2.138948908E0,3.969270348E0
7.407507667E0,2.758809900E0,-1.765655644E0,2.106366760E0,3.894271799E0
7.417544667E0,2.446523999E0,-1.930178751E0,2.086411090E0,3.750224117E0
7.427582667E0,2.186757059E0,-2.196825818E0,2.069873995E0,3.727241401E0
7.437619667E0,2.147728941E0,-2.504960634E0,1.958268775E0,3.836975889E0
7.447656667E0,2.188178955E0,-2.632000165E0,1.691227605E0,3.817826976E0
7.457693667E0,2.245698162E0,-2.609534578E0,1.402824218E0,3.717626492E0
7.467731667E0,2.355786176E0,-2.622917685E0,1.189915402E0,3.720930576E0
7.477768667E0,2.415257622E0,-2.723023186E0,1.142591254E0,3.814949466E0
7.487806667E0,2.444864560E0,-2.845206020E0,1.207864892E0,3.941002107E0
7.497843667E0,2.508730919E0,-2.992012648E0,1.439842356E0,4.161612250E0
7.507880667E0,2.556926886E0,-3.161052729E0,1.625275106E0,4.378544122E0
7.517917667E0,2.546946274E0,-3.176295835E0,1.520880672E0,4.346132600E0
7.527955667E0,2.474042020E0,-3.165506553E0,1.335379217E0,4.233739872E0
7.537992667E0,2.312100166E0,-3.233147144E0,1.183205430E0,4.147170447E0
7.548029667E0,2.067393606E0,-3.235713487E0,1.035448629E0,3.976947567E0
7.558067667E0,1.907594173E0,-3.204847205E0,1.067401908E0,3.879343755E0
7.568104667E0,1.941798630E0,-3.291567260E0,1.110618972E0,3.979757712E0
7.578141667E0,2.243639503E0,-3.365617568E0,1.068502062E0,4.183658267E0
7.588179667E0,2.540500011E0,-3.353586338E0,1.024440953E0,4.330145597E0
7.598216667E0,2.728614294E0,-3.398157908E0,9.998392318E-1,4.471296414E0
7.608253667E0,2.727909120E0,-3.555622841E0,9.818309771E-1,4.587802744E0
7.618291667E0,2.750497206E0,-3.807686952E0,1.012248047E0,4.805034955E0
7.628328667E0,2.748936877E0,-4.044672264E0,1.023830211E0,4.996424319E0
7.638365667E0,2.695564369E0,-4.203711267E0,8.932203707E-1,5.072977264E0
7.648403667E0,2.536288846E0,-4.303340805E0,6.419085038E-1,5.036223756E0
7.658440667E0,2.063265764E0,-4.297319342E0,3.624016553E-1,4.780727362E0
7.668477792E0,1.448257376E0,-4.319314229E0,2.223585016E-1,4.561070942E0
7.678515792E0,1.034400223E0,-4.511670667E0,1.180370115E-1,4.630236362E0
7.688552792E0,9.409631789E-1,-4.780270704E0,-1.115186816E-1,4.873277760E0
7.698589792E0,8.924339202E-1,-4.955453870E0,-3.669801714E-1,5.048528083E0
7.708627792E0,6.585185431E-1,-5.017758291E0,-5.227160825E-1,5.087708428E0
7.718664792E0,3.649548420E-1,-5.035444365E0,-5.534453934E-1,5.078896907E0
7.728701792E0,1.499702641E-1,-4.981454099E0,-5.338531280E-1,5.012222579E0
7.738739792E0,1.852909550E-2,-4.898528302E0,-5.758851068E-1,4.932298299E0
7.748776792E0,-3.224233648E-1,-4.915542530E0,-6.931448771E-1,4.974632148E0
7.758813792E0,-7.213161774E-1,-5.070525904E0,-8.718387111E-1,5.195250977E0
7.768851792E0,-9.614719954E-1,-5.150443309E0,-1.152039916E0,5.364577397E0
7.778888792E0,-1.062251388E0,-5.054907991E0,-1.304831316E0,5.327575206E0
7.788925792E0,-1.095743363E0,-4.797909415E0,-1.347136506E0,5.102486162E0
7.798962792E0,-1.206560378E0,-4.525646682E0,-1.400173822E0,4.888532762E0
7.809000792E0,-1.537641569E0,-4.411562242E0,-1.364195319E0,4.866955093E0
7.819037792E0,-2.077565276E0,-4.489909084E0,-1.263830640E0,5.106155986E0
7.829074792E0,-2.597799216E0,-4.668825697E0,-1.215077725E0,5.479316384E0
7.839112792E0,-3.015730709E0,-4.816251546E0,-1.232445710E0,5.814622351E0
7.849149792E0,-3.314631017E0,-4.837337775E0,-1.307193152E0,6.007942199E0
7.859186792E0,-3.712672329E0,-4.592687933E0,-1.435580905E0,6.077632007E0
7.869224792E0,-4.357717572E0,-4.021823099E0,-1.460777873E0,6.107260881E0
7.879261792E0,-4.853604436E0,-3.419586200E0,-1.455072745E0,6.112960207E0
7.889298792E0,-5.014931163E0,-3.087240402E0,-1.425241274E0,6.059034622E0
7.899336792E0,-4.852759514E0,-2.915477273E0,-1.202629880E0,5.787538445E0
7.909373792E0,-4.411494414E0,-2.570872203E0,-8.269717097E-1,5.172479972E0
7.919410792E0,-4.008678558E0,-2.057876678E0,-3.535583264E-1,4.519885363E0
7.929448792E0,-3.561808611E0,-1.461816777E0,2.408865738E-1,3.857643738E0
7.939485792E0,-3.184093682E0,-1.024755533E0,8.132884942E-1,3.442385024E0
7.949522792E0,-3.188270056E0,-6.771800780E-1,1.177471650E0,3.465555986E0
7.959560792E0,-3.660300865E0,-4.889248770E-1,1.167984250E0,3.873117242E0
7.969597792E0,-4.666143287E0,-3.028916180E-1,7.959335196E-1,4.743221129E0
7.979634792E0,-5.583722574E0,-2.670323986E-1,4.993536785E-1,5.612362976E0
7.989672792E0,-5.868922856E0,-2.821421885E-1,2.362988484E-1,5.880450395E0
7.999709792E0,-5.712266593E0,-4.534691155E-2,1.451869494E-1,5.714291314E0
8.009746792E0,-5.291351266E0,5.561310196E-1,3.281600681E-1,5.330606810E0
8.019784792E0,-4.664316909E0,1.260565554E0,7.844349700E-1,4.894917361E0
8.029821792E0,-4.443732453E0,1.768364659E0,1.276257727E0,4.950020754E0
8.039858792E0,-4.827953578E0,2.053380169E0,1.474567800E0,5.449757432E0
8.049896792E0,-5.649583856E0,2.108091397E0,1.341675791E0,6.177535189E0
8.059933792E0,-6.590979729E0,2.234545037E0,1.064442925E0,7.040400845E0
8.069970792E0,-6.690045011E0,2.209720098E0,7.420835871E-1,7.084507972E0
8.080008792E0,-5.991871090E0,2.093549956E0,5.144871497E-1,6.367901350E0
8.090045792E0,-5.099744441E0,2.271427519E0,2.697428754E-1,5.589234076E0
8.100082792E0,-4.556793630E0,2.627239362E0,1.338874975E-1,5.261623392E0
8.110119792E0,-4.431034639E0,2.976586524E0,2.571637604E-1,5.344180808E0
8.120157792E0,-4.494629834E0,3.149805610E0,5.115971634E-1,5.512232250E0
8.130194792E0,-4.735974245E0,3.150248829E0,8.625183955E-1,5.753038998E0
8.140231792E0,-4.939766960E0,3.097055538E0,1.117689425E0,5.936520890E0
8.150269792E0,-4.818262695E0,3.122794982E0,1.135527526E0,5.852941710E0
8.160306792E0,-3.915810156E0,3.370111154E0,1.095197525E0,5.281162371E0
8.170343792E0,-2.507954993E0,3.633671476E0,9.922397518E-1,4.525256497E0
8.180381792E0,-1.354026280E0,3.768127030E0,1.099906288E0,4.152344196E0
8.190418792E0,-1.081696743E0,3.803513210E0,1.358246216E0,4.181101932E0
8.200455792E0,-1.731679813E0,3.688412524E0,1.506007694E0,4.344094968E0
8.210493792E0,-2.541652205E0,3.579003518E0,1.457996791E0,4.625474760E0
8.220530792E0,-2.259391756E0,3.714171263E0,1.151986853E0,4.497442939E0
8.230567792E0,-9.198354346E-1,3.864340040E0,9.186238915E-1,4.077142507E0
8.240605792E0,7.810253855E-2,3.868945307E0,9.368432307E-1,3.981521447E0
8.250642792E0,1.680172202E-1,3.851740460E0,1.099219240E0,4.009041942E0
8.260679792E0,-3.048108935E-1,3.963120562E0,1.373034993E0,4.205289451E0
8.270717792E0,-4.824219692E-1,4.207168141E0,1.638147751E0,4.540542124E0
8.280754792E0,2.041960265E-1,4.319673833E0,1.901580311E0,4.724117454E0
8.290791792E0,1.188860564E0,4.310222393E0,2.135509576E0,4.954978069E0
8.300829792E0,1.834915182E0,4.209217590E0,2.282983956E0,5.128005674E0
8.310866792E0,2.039365270E0,4.005487148E0,2.294112377E0,5.046373906E0
8.320903792E0,2.043419437E0,3.861870761E0,2.131794840E0,4.861497507E0
8.330941792E0,2.162921323E0,3.897237645E0,1.953844771E0,4.866641480E0
8.340978792E0,2.524125468E0,4.037784829E0,1.962564139E0,5.150395490E0
8.351015792E0,2.974461645E0,4.063170515E0,2.189130882E0,5.490816946E0
8.361053792E0,3.293304175E0,3.914068270E0,2.540077257E0,5.711197360E0
8.371090792E0,3.309172934E0,3.581025485E0,2.784019586E0,5.614724756E0
8.381127792E0,3.038859370E0,3.262506014E0,2.674325235E0,5.199098694E0
8.391164792E0,2.676974317E0,3.100240517E0,2.424769287E0,4.759956812E0
8.401202792E0,2.385866008E0,3.058762708E0,2.316035342E0,4.518009032E0
8.411239792E0,2.204251343E0,2.965682051E0,2.479521153E0,4.449945973E0
8.421276792E0,2.179212835E0,2.775539954E0,2.827131692E0,4.521643973E0
8.431314792E0,2.336988547E0,2.532079436E0,3.145287466E0,4.665380476E0
8.441351792E0,2.550594059E0,2.291032648E0,3.248446383E0,4.723003764E0
8.451388792E0,2.630529883E0,2.158776231E0,3.055268996E0,4.573256052E0
8.461426792E0,2.633259655E0,1.960335181E0,2.827862301E0,4.332871522E0
8.471463792E0,2.655674956E0,1.732776166E0,2.785234345E0,4.220503888E0
8.481500792E0,2.949648401E0,1.588661596E0,2.904316400E0,4.433883750E0
8.491538792E0,3.442904896E0,1.435174524E0,3.198273765E0,4.913478921E0
8.501575792E0,3.832497858E0,1.258686259E0,3.436241701E0,5.299064819E0
8.511612792E0,3.901344144E0,9.575219089E-1,3.624554789E0,5.410612882E0
8.521650792E0,3.822567239E0,6.529579872E-1,3.749591649E0,5.394238775E0
8.531687792E0,3.709099680E0,3.619438183E-1,3.557563824E0,5.152153349E0
8.541724792E0,3.466935490E0,2.990324557E-2,3.266694959E0,4.763594425E0
8.551762792E0,3.269078869E0,-2.294125825E-1,3.072948638E0,4.492495978E0
8.561799792E0,3.350046141E0,-5.120710802E-1,2.893044430E0,4.455864900E0
8.571836792E0,3.462298356E0,-8.441701251E-1,2.811237205E0,4.539073444E0
8.581874792E0,3.328192172E0,-1.258155332E0,2.830031911E0,4.546306038E0
8.591911792E0,3.115256166E0,-1.670899175E0,2.664106641E0,4.426532416E0
8.601948792E0,3.057521344E0,-1.923314704E0,2.287108143E0,4.275329213E0
8.611986792E0,3.141677395E0,-2.140233541E0,1.972357056E0,4.282631063E0
8.622023792E0,3.198111212E0,-2.290243859E0,1.732956114E0,4.298403093E0
8.632060792E0,3.023100539E0,-2.383430350E0,1.640851504E0,4.184766512E0
8.642097792E0,2.721630672E0,-2.421410354E0,1.557607033E0,3.961898697E0
8.652135792E0,2.275133923E0,-2.486481094E0,1.532676260E0,3.702420710E0
8.662172833E0,1.880549631E0,-2.655542809E0,1.559745506E0,3.608487297E0
8.672209833E0,1.671436827E0,-2.958339702E0,1.490130165E0,3.710251039E0
8.682247833E0,1.638519926E0,-3.227593458E0,1.334733977E0,3.857929739E0
8.692284833E0,1.837322043E0,-3.313844567E0,1.113009898E0,3.949190947E0
8.702321833E0,2.178678984E0,-3.291356760E0,9.223409665E-1,4.053441044E0
8.712359833E0,2.268151031E0,-3.245595281E0,8.271857178E-1,4.045075283E0
8.722396833E0,2.046106525E0,-3.263187214E0,8.682384342E-1,3.948262996E0
8.732433833E0,1.810646752E0,-3.382217229E0,9.379273045E-1,3.949372441E0
8.742471833E0,1.750462531E0,-3.453721660E0,1.040205047E0,4.009281596E0
8.752508833E0,1.812533357E0,-3.512435306E0,1.187749593E0,4.127133151E0
8.762545833E0,1.714142843E0,-3.717495990E0,1.226723040E0,4.273512787E0
8.772583833E0,1.420194834E0,-3.948288515E0,1.102929883E0,4.338477831E0
8.782620833E0,1.000041984E0,-4.131989905E0,9.366140199E-1,4.353236769E0
8.792657833E0,6.655768633E-1,-4.426252202E0,7.875532901E-1,4.544770764E0
8.802695833E0,4.944121966E-1,-4.766009930E0,6.709165406E-1,4.838328541E0
8.812732833E0,4.382292250E-1,-5.095000595E0,5.812155747E-1,5.146735612E0
8.822769833E0,2.466989985E-1,-5.388813241E0,5.011321092E-1,5.417684186E0
8.832807833E0,-1.668196008E-1,-5.567709389E0,3.840965796E-1,5.583435036E0
8.842844833E0,-6.176893365E-1,-5.583774614E0,2.233659768E-1,5.622274576E0
8.852881833E0,-9.299414697E-1,-5.463698532E0,-1.524250349E-2,5.542294211E0
8.862919833E0,-1.071147050E0,-5.421030230E0,-1.422697735E-1,5.527672697E0
8.872956833E0,-1.097503667E0,-5.451809388E0,-7.155586800E-2,5.561641857E0
8.882993833E0,-9.912448481E-1,-5.413312490E0,-1.314220190E-2,5.503334551E0
8.893031833E0,-8.553698820E-1,-5.399044114E0,5.700099707E-2,5.466679440E0
8.903068833E0,-9.670522857E-1,-5.382409371E0,1.082085637E-1,5.469664510E0
8.913105833E0,-1.364122667E0,-5.357928833E0,7.403744459E-3,5.528859452E0
8.923143833E0,-1.945858644E0,-5.471775876E0,-1.550237203E-1,5.809537800E0
8.933180833E0,-2.575906071E0,-5.673864419E0,-2.715710074E-1,6.237129175E0
8.943217833E0,-3.241541407E0,-5.785377839E0,-3.030027334E-1,6.638523788E0
8.953254833E0,-3.731948260E0,-5.688809903E0,-3.174307197E-1,6.811076140E0
8.963292833E0,-3.701052450E0,-5.368353834E0,-5.875481093E-1,6.546924843E0
8.973329833E0,-3.496347862E0,-4.892762362E0,-1.000188457E0,6.096224147E0
8.983366833E0,-3.574067883E0,-4.361126499E0,-1.391239130E0,5.807661482E0
8.993404833E0,-3.981498946E0,-3.960865291E0,-1.511940279E0,5.816076953E0
9.003441833E0,-4.544833735E0,-3.642991937E0,-1.227953294E0,5.952711418E0
9.013478833E0,-4.701158461E0,-3.365287201E0,-7.421375276E-1,5.828963624E0
9.023516833E0,-4.167486012E0,-3.139402243E0,-2.499364556E-1,5.223624636E0
9.033553833E0,-3.631180562E0,-2.602578730E0,1.407436502E-1,4.469753583E0
9.043590833E0,-3.593993440E0,-1.745617821E0,2.320371053E-1,4.002225835E0
9.053628833E0,-4.121892348E0,-1.118265960E0,1.609742855E-1,4.273924193E0
9.063665833E0,-4.895475763E0,-7.329297709E-1,-5.661054924E-2,4.950360971E0
9.073702833E0,-5.341570078E0,-6.657259673E-1,-3.975073148E-1,5.397552596E0
9.083740833E0,-5.286413877E0,-7.538505238E-1,-5.993654783E-1,5.373425469E0
9.093777833E0,-4.728802342E0,-6.537298197E-1,-5.728917709E-1,4.808028624E0
9.103814833E0,-3.992895754E0,-1.366909450E-1,-3.280749911E-1,4.008682342E0
9.113852833E0,-3.738448318E0,7.930485034E-1,-5.290706903E-3,3.821642284E0
9.123889833E0,-3.994040054E0,1.502687645E0,3.510707746E-1,4.281784301E0
9.133926833E0,-4.574092033E0,1.529514086E0,6.564230472E-1,4.867506803E0
9.143964833E0,-5.385841101E0,1.188205676E0,8.637916267E-1,5.582584802E0
9.154001833E0,-6.154278674E0,8.318424404E-1,5.927895534E-1,6.238469949E0
9.164038833E0,-6.164018966E0,7.672891796E-1,3.129254401E-2,6.211669801E0
9.174076833E0,-5.384887421E0,9.692391443E-1,-1.372639722E-1,5.473141552E0
9.184113833E0,-4.469976219E0,1.661155960E0,1.107626367E-1,4.769947052E0
9.194150833E0,-3.399770863E0,2.630784529E0,2.923540583E-1,4.308705148E0
9.204188833E0,-2.685919972E0,3.336721213E0,6.283415017E-1,4.329282573E0
9.214225833E0,-2.868592544E0,3.646821864E0,1.244342455E0,4.803802768E0
9.224262833E0,-3.908291514E0,3.500045641E0,1.612717333E0,5.488708340E0
9.234300833E0,-4.803438250E0,3.468361918E0,1.510372348E0,6.114227510E0
9.244337833E0,-4.209184846E0,3.698124164E0,1.073185682E0,5.704830138E0
9.254374833E0,-3.019119755E0,3.911003160E0,9.335313678E-1,5.028171698E0
9.264411833E0,-2.414656820E0,3.973508726E0,1.334279063E0,4.837317415E0
9.274449833E0,-2.626804329E0,4.070364345E0,1.612894211E0,5.105819681E0
9.284486833E0,-3.133043689E0,4.390950807E0,1.857102881E0,5.704843806E0
9.294523833E0,-3.033915842E0,4.671659843E0,1.849110322E0,5.869264009E0
9.304561833E0,-2.573241495E0,4.679468799E0,1.676090041E0,5.597166949E0
9.314598833E0,-2.158090499E0,4.599358436E0,1.616606024E0,5.331497694E0
9.324635833E0,-1.968679596E0,4.519401271E0,1.619469990E0,5.188773482E0
9.334673833E0,-2.093414593E0,4.419662974E0,1.757487376E0,5.196591897E0
9.344710833E0,-2.392453188E0,4.216330143E0,1.870305894E0,5.196086630E0
9.354747833E0,-2.183261155E0,4.081751212E0,1.733108287E0,4.942771142E0
9.364785833E0,-1.249378808E0,4.244112019E0,1.368860081E0,4.631113490E0
9.374822833E0,-2.394499129E-1,4.615849923E0,1.293347969E0,4.799599540E0
9.384859833E0,3.029836020E-1,4.950705931E0,1.612767327E0,5.215583067E0
9.394897833E0,2.660347722E-1,5.134735349E0,2.148326672E0,5.572395274E0
9.404934833E0,-3.012950541E-1,5.080005995E0,2.526133987E0,5.681425221E0
9.414971833E0,-7.248747198E-1,4.880158104E0,2.600994719E0,5.577325525E0
9.425009833E0,-4.172966315E-1,4.720935498E0,2.474377357E0,5.346392407E0
9.435046833E0,5.106089474E-1,4.679160651E0,2.423938106E0,5.294406656E0
9.445083833E0,1.499684807E0,4.744212679E0,2.523744230E0,5.579058469E0
9.455121833E0,2.302802362E0,4.854571273E0,2.719651682E0,6.022147975E0
9.465158833E0,3.037891656E0,4.827618533E0,2.838271222E0,6.371065056E0
9.475195833E0,3.629479899E0,4.614720826E0,2.866094905E0,6.533243654E0
9.485233833E0,3.917887672E0,4.412679645E0,2.780011320E0,6.523039812E0
9.495270833E0,3.853584087E0,4.216141863E0,2.716458225E0,6.324959115E0
9.505307833E0,3.752531629E0,3.795986674E0,2.701273883E0,5.982297974E0
9.515344833E0,3.716818005E0,3.302414430E0,2.741983075E0,5.677952830E0
9.525382833E0,3.564712923E0,2.915241045E0,2.706303073E0,5.341337370E0
9.535419833E0,3.301081849E0,2.583329111E0,2.524113774E0,4.893044146E0
9.545456833E0,3.156181998E0,2.169441553E0,2.518280591E0,4.583633776E0
9.555494833E0,3.097770945E0,1.745825981E0,2.608109611E0,4.409799194E0
9.565531833E0,3.069465744E0,1.374949372E0,2.663208801E0,4.290080051E0
9.575568833E0,2.986787868E0,1.037643966E0,2.784168982E0,4.212980381E0
9.585606833E0,2.745193197E0,7.943191034E-1,2.782607191E0,3.988725524E0
9.595643833E0,2.581932796E0,4.900750244E-1,2.677519277E0,3.751754253E0
9.605680833E0,2.758135132E0,1.642073572E-1,2.501323958E0,3.727049101E0
9.615718833E0,3.297005463E0,-7.998640180E-2,2.374513931E0,4.063860142E0
9.625755833E0,3.860584958E0,-2.119761854E-1,2.332804280E0,4.515642361E0
9.635792833E0,4.336936567E0,-2.543848711E-1,2.321021702E0,4.925532681E0
9.645830833E0,4.659029857E0,-2.767428696E-1,2.397520385E0,5.247022948E0
9.655867833E0,4.642790970E0,-2.871169996E-1,2.488463300E0,5.275451995E0
9.665904167E0,4.532860684E0,-3.345525366E-1,2.575908118E0,5.224371159E0
9.675942167E0,4.597530012E0,-6.500519210E-1,2.691718948E0,5.367047662E0
9.685979167E0,4.494963418E0,-1.136771228E0,2.700911356E0,5.365805355E0
9.696016167E0,4.286192968E0,-1.523456370E0,2.390815968E0,5.138907517E0
9.706054167E0,4.367126327E0,-1.772875786E0,2.173007185E0,5.190071399E0
9.716091167E0,4.326236748E0,-1.901450796E0,2.044335696E0,5.148897742E0
9.726128167E0,4.120748633E0,-1.981806157E0,1.955803004E0,4.973257516E0
9.736166167E0,4.006333240E0,-2.204286865E0,1.936879075E0,4.965993070E0
9.746203167E0,3.681516318E0,-2.495233206E0,1.895653866E0,4.834589407E0
9.756240167E0,3.090725343E0,-2.837214046E0,1.827380607E0,4.576208755E0
9.766278167E0,2.512154171E0,-3.189388921E0,1.728052785E0,4.412401466E0
9.776315167E0,2.206877035E0,-3.535138291E0,1.486804853E0,4.424714415E0
9.786352167E0,2.037170226E0,-3.799886767E0,1.304645959E0,4.504586890E0
9.796389167E0,1.920579669E0,-3.801221686E0,1.152456969E0,4.412036903E0
9.806427167E0,1.841947483E0,-3.767070438E0,1.080984113E0,4.330371447E0
9.816464167E0,1.674203729E0,-3.869901327E0,1.222606015E0,4.390200437E0
9.826501167E0,1.443425530E0,-4.043815062E0,1.354438509E0,4.502268449E0
9.836539167E0,1.192152254E0,-4.257853560E0,1.328072244E0,4.616743422E0
9.846576167E0,8.717818469E-1,-4.517599744E0,1.198385679E0,4.754454676E0
9.856613167E0,4.484057191E-1,-4.695061569E0,8.800655973E-1,4.797831415E0
9.866651167E0,1.387248990E-1,-4.933362504E0,6.453209388E-1,4.977323509E0
9.876688167E0,-2.513884655E-1,-5.061049322E0,6.069222736E-1,5.103505760E0
9.886725167E0,-6.185015148E-1,-4.956659566E0,7.605450010E-1,5.052667303E0
9.896763167E0,-8.730715965E-1,-4.772188098E0,1.193186334E0,4.995971065E0
9.906800167E0,-1.007375123E0,-4.636304653E0,1.530588219E0,4.985260853E0
9.916837167E0,-1.194327565E0,-4.513521895E0,1.470260156E0,4.894891537E0
9.926875167E0,-1.570152673E0,-4.499593243E0,1.089784173E0,4.888695973E0
9.936912167E0,-1.940319284E0,-4.542004268E0,6.555781245E-1,4.982411501E0
9.946949167E0,-2.125324895E0,-4.577234327E0,3.413850081E-1,5.058124525E0
9.956987167E0,-2.070685589E0,-4.580566070E0,1.546810734E-1,5.029239561E0
9.967024167E0,-1.779922412E0,-4.501653802E0,7.840649326E-2,4.841400450E0
9.977061167E0,-1.241207031E0,-4.333458059E0,9.015822728E-2,4.508611998E0
9.987099167E0,-8.080616681E-1,-4.074645091E0,1.394362036E-1,4.156337178E0
9.997136167E0,-7.901291348E-1,-3.803706753E0,1.646575928E-1,3.888393143E0
1.000717317E1,-1.199530710E0,-3.624507135E0,1.623830259E-1,3.821294825E0
1.001721117E1,-1.866546719E0,-3.696671716E0,1.511037469E-1,4.143936627E0
1.002724817E1,-2.542913157E0,-3.861767265E0,6.842236340E-2,4.624319988E0
1.003728517E1,-2.825006521E0,-4.008500218E0,-1.245790134E-1,4.905533180E0
1.004732217E1,-2.769816699E0,-4.005545036E0,-3.422843099E-1,4.881949828E0
1.005736017E1,-2.624530347E0,-3.772414209E0,-3.875844437E-1,4.611885754E0
1.006739717E1,-2.574254817E0,-3.535069293E0,-2.700074619E-1,4.381370425E0
1.007743517E1,-2.544880745E0,-3.349758165E0,-2.775152868E-1,4.215959263E0
1.008747217E1,-2.731979367E0,-3.180794683E0,-5.486191382E-1,4.228729009E0
1.009750917E1,-3.225154000E0,-3.028553068E0,-7.647410361E-1,4.489830828E0
1.010754617E1,-3.625875968E0,-2.878826340E0,-8.798188448E-1,4.712610617E0
1.011758417E1,-3.654965281E0,-2.771149279E0,-7.948547083E-1,4.655086846E0
1.012762117E1,-3.307539807E0,-2.559104682E0,-6.775507184E-1,4.236497530E0
1.013765817E1,-2.723341275E0,-2.183341554E0,-5.970703731E-1,3.541194865E0
1.014769617E1,-2.224843921E0,-1.707995081E0,-5.257810467E-1,2.853703450E0
1.015773317E1,-2.234036767E0,-1.280065434E0,-4.572265363E-1,2.615060974E0
1.016777017E1,-2.585799560E0,-9.955393356E-1,-4.040163622E-1,2.800122703E0
1.017780817E1,-3.044580871E0,-1.014181429E0,-4.526247776E-1,3.240818699E0
1.018784517E1,-3.815585956E0,-1.253019138E0,-6.189002949E-1,4.063470281E0
1.019788217E1,-4.521978139E0,-1.321108210E0,-9.260252970E-1,4.801159864E0
1.020792017E1,-4.485086301E0,-1.197339027E0,-1.149942082E0,4.782466588E0
1.021795717E1,-4.019139520E0,-9.503140461E-1,-1.081316820E0,4.269171504E0
1.022799417E1,-3.545561245E0,-5.762571359E-1,-7.149355495E-1,3.662541422E0
1.023803217E1,-3.514849329E0,-2.136537516E-1,-2.959240758E-1,3.533749396E0
1.024806917E1,-4.171565322E0,5.114676476E-2,-7.711790398E-2,4.172591569E0
1.025810617E1,-5.160392931E0,9.305142045E-2,-5.100774720E-2,5.161483853E0
1.026814417E1,-6.048669189E0,9.748477936E-3,-1.682577235E-1,6.051016828E0
1.027818117E1,-5.982557645E0,1.529964906E-1,-4.923457906E-1,6.004732157E0
1.028821817E1,-5.040485834E0,5.446301311E-1,-7.405358291E-1,5.123623009E0
1.029825617E1,-4.182401674E0,1.038955497E0,-5.217762887E-1,4.340986384E0
1.030829317E1,-3.741415780E0,1.626232295E0,5.279275596E-2,4.079903257E0
1.031833017E1,-3.672966519E0,2.125990893E0,6.537964779E-1,4.293945757E0
1.032836717E1,-4.004239060E0,2.275643946E0,1.081598363E0,4.730997869E0
1.033840517E1,-4.398044941E0,2.294459116E0,1.222933167E0,5.109100456E0
1.034844217E1,-4.285998841E0,2.435534889E0,9.095153913E-1,5.012866895E0
1.035847917E1,-3.601425251E0,2.762626378E0,4.663096011E-1,4.562873326E0
1.036851717E1,-2.681760555E0,3.130463020E0,3.187472203E-1,4.134396955E0
1.037855417E1,-2.286278569E0,3.579804586E0,8.461429757E-1,4.331053972E0
1.038859117E1,-2.074948355E0,4.163975344E0,1.650059991E0,4.936273829E0
1.039862917E1,-1.627051051E0,4.525104645E0,2.149661007E0,5.267343696E0
1.040866617E1,-1.524774333E0,4.464858443E0,2.277180594E0,5.238840439E0
1.041870317E1,-1.913522957E0,4.214775369E0,2.011174967E0,5.046853105E0
1.042874117E1,-2.160617520E0,4.144598256E0,1.535209274E0,4.919637210E0
1.043877817E1,-1.714252625E0,4.246001839E0,1.187344966E0,4.730431455E0
1.044881517E1,-1.091713023E0,4.311205895E0,1.254268396E0,4.620770802E0
1.045885317E1,-6.183797465E-1,4.424786890E0,1.611689100E0,4.749597276E0
1.046889017E1,-3.262812481E-1,4.584405352E0,2.046211483E0,5.030925692E0
1.047892717E1,-3.384878955E-1,4.607589562E0,2.263345497E0,5.144627146E0
1.048896517E1,-5.634163945E-1,4.476571586E0,2.205468587E0,5.022073564E0
1.049900217E1,-5.741052143E-1,4.432271910E0,1.936289091E0,4.870713144E0
1.050903917E1,1.241071522E-4,4.558968210E0,1.545819046E0,4.813911889E0
1.051907717E1,7.133234721E-1,4.745406096E0,1.492924549E0,5.025587836E0
1.052911417E1,1.009521271E0,4.978845071E0,1.842195404E0,5.403861152E0
1.053915117E1,7.296342071E-1,5.238533952E0,2.292265534E0,5.764467479E0
1.054918917E1,3.112702760E-1,5.368666075E0,2.510790600E0,5.934941790E0
1.055922617E1,3.510399306E-1,5.343928844E0,2.599599574E0,5.953043127E0
1.056926317E1,9.283118507E-1,5.218444088E0,2.812241757E0,6.000218770E0
1.057930117E1,1.483064828E0,4.885398379E0,3.095434982E0,5.970621101E0
1.058933817E1,1.590308610E0,4.490102627E0,3.469734260E0,5.893145078E0
1.059937517E1,1.499179900E0,4.169933656E0,3.792553189E0,5.832610630E0
1.060941217E1,1.707430532E0,3.819860855E0,3.980953985E0,5.775348527E0
1.061945017E1,2.454072901E0,3.352952499E0,4.084873626E0,5.826744958E0
1.062948717E1,3.206092369E0,2.931769955E0,4.032859719E0,5.927753441E0
1.063952417E1,3.535623025E0,2.701461579E0,3.976246392E0,5.967332755E0
1.064956217E1,3.643911704E0,2.442695389E0,4.028510267E0,5.955984238E0
1.065959917E1,3.555907016E0,2.022692227E0,4.019408492E0,5.735102717E0
1.066963692E1,3.412272795E0,1.553236240E0,3.892614544E0,5.404497796E0
1.067967492E1,3.479676865E0,1.029407578E0,3.635461601E0,5.136575912E0
1.068971192E1,3.712024165E0,4.953193921E-1,3.343291437E0,5.020165569E0
1.069974892E1,3.884673733E0,7.074897051E-2,3.039368078E0,4.932895067E0
1.070978692E1,4.055635501E0,-2.651133424E-1,2.728609616E0,4.895280874E0
1.071982392E1,4.155580496E0,-4.806446350E-1,2.484141038E0,4.865267230E0
1.072986092E1,4.118766134E0,-6.534029603E-1,2.318461937E0,4.771418620E0
1.073989892E1,4.222984859E0,-9.389640158E-1,2.203608296E0,4.855012262E0
1.074993592E1,4.460430347E0,-1.157635848E0,2.141981859E0,5.081697149E0
1.075997292E1,4.662057545E0,-1.293100632E0,2.023584512E0,5.244214343E0
1.077001092E1,4.741901275E0,-1.440013095E0,1.931419530E0,5.318801257E0
1.078004792E1,4.746761481E0,-1.605375862E0,1.876520461E0,5.350729413E0
1.079008492E1,4.484186999E0,-1.778094426E0,1.728992871E0,5.124350610E0
1.080012292E1,4.153586303E0,-2.067508796E0,1.494365741E0,4.874423122E0
1.081015992E1,4.055938094E0,-2.382509413E0,1.236958006E0,4.863851359E0
1.082019692E1,4.244352924E0,-2.583186439E0,1.056542167E0,5.079730827E0
1.083023492E1,4.553804241E0,-2.654179239E0,1.089853316E0,5.382339709E0
1.084027192E1,4.688492807E0,-2.753800591E0,1.320850348E0,5.595536448E0
1.085030892E1,4.503154197E0,-2.843553012E0,1.501609418E0,5.533445789E0
1.086034592E1,4.047804910E0,-2.919334096E0,1.541998330E0,5.223504092E0
1.087038392E1,3.545886058E0,-3.086767362E0,1.308565348E0,4.879936880E0
1.088042092E1,3.142463261E0,-3.274703890E0,9.432773606E-1,4.635572574E0
1.089045792E1,2.932523661E0,-3.534701504E0,7.639474227E-1,4.655902212E0
1.090049592E1,2.790505902E0,-3.742533183E0,6.674402247E-1,4.715819575E0
1.091053292E1,2.632717911E0,-3.877006863E0,6.928283966E-1,4.737340710E0
1.092056992E1,2.358406898E0,-3.996892326E0,7.436154845E-1,4.700020782E0
1.093060792E1,1.793520696E0,-4.040871574E0,7.566916859E-1,4.485302874E0
1.094064492E1,1.107448173E0,-4.150513884E0,7.042024004E-1,4.353057314E0
1.095068192E1,5.734868713E-1,-4.335582937E0,6.032811394E-1,4.414761005E0
1.096071992E1,2.941523695E-1,-4.610359973E0,4.449526459E-1,4.641112749E0
1.097075692E1,2.204239503E-1,-4.886657869E0,2.222188262E-1,4.896671630E0
1.098079392E1,8.790967137E-2,-5.101151866E0,4.177799039E-3,5.101911007E0
1.099083192E1,-2.223295578E-1,-5.217901466E0,-9.703512847E-2,5.223537304E0
1.100086892E1,-6.285341674E-1,-5.223559232E0,-5.761553943E-2,5.261553554E0
1.101090592E1,-1.135267032E0,-5.119637253E0,6.681375783E-2,5.244423793E0
1.102094392E1,-1.563339059E0,-5.021746677E0,-7.119058147E-3,5.259469496E0
1.103098092E1,-1.767326340E0,-4.982227101E0,-1.345679672E-1,5.288112878E0
1.104101792E1,-1.725636131E0,-4.980765882E0,-2.124884015E-1,5.275509468E0
1.105105592E1,-1.568458004E0,-5.043586612E0,-2.839027852E-1,5.289463793E0
1.106109292E1,-1.520470636E0,-5.050448320E0,-2.714722625E-1,5.281340396E0
1.107112992E1,-1.710652494E0,-4.944101501E0,-2.317632363E-1,5.236810652E0
1.108116792E1,-2.181032781E0,-4.871614738E0,-3.577501953E-1,5.349534498E0
1.109120492E1,-2.713735177E0,-4.816497129E0,-5.437056863E-1,5.555053472E0
1.110124192E1,-3.057083095E0,-4.775705198E0,-5.749437051E-1,5.699445364E0
1.111127992E1,-3.105908808E0,-4.778158105E0,-5.436396128E-1,5.724771474E0
1.112131692E1,-3.000153434E0,-4.699561586E0,-4.940047918E-1,5.597395865E0
1.113135392E1,-3.022221995E0,-4.460808077E0,-6.123777258E-1,5.422881242E0
1.114139092E1,-3.404293976E0,-4.146928371E0,-8.636723435E-1,5.434350220E0
1.115142892E1,-4.125573755E0,-3.874545770E0,-1.122525657E0,5.769967728E0
1.116146592E1,-4.625154890E0,-3.571190468E0,-1.310945165E0,5.988658977E0
1.117150292E1,-4.544991610E0,-3.259174270E0,-1.185194360E0,5.716979214E0
1.118154092E1,-3.981265642E0,-3.082155663E0,-6.746862406E-1,5.079897752E0
1.119157792E1,-3.217115248E0,-2.874176635E0,-5.935274720E-2,4.314422857E0
1.120161492E1,-2.759025370E0,-2.408687983E0,2.810924672E-1,3.673283513E0
1.121165292E1,-2.737873360E0,-1.799073066E0,2.734758841E-1,3.287461557E0
1.122168992E1,-3.277914011E0,-1.098790054E0,4.162925184E-2,3.457425754E0
1.123172692E1,-4.153103323E0,-7.013390189E-1,-1.726495671E-1,4.215442030E0
1.124176492E1,-4.987938661E0,-7.842209619E-1,-1.397180486E-1,5.051144003E0
1.125180192E1,-5.268830715E0,-9.448346204E-1,-5.231328428E-2,5.353132377E0
1.126183892E1,-4.737565857E0,-9.284717721E-1,-8.824442446E-2,4.828496366E0
1.127187692E1,-3.905178456E0,-6.262753880E-1,-1.764058185E-1,3.959009806E0
1.128191392E1,-3.337015621E0,-1.117016995E-1,-2.616661164E-1,3.349122225E0
1.129195092E1,-3.305112627E0,5.498113489E-1,-1.812590075E-1,3.355430945E0
1.130198892E1,-3.818957168E0,1.046504252E0,1.096247685E-1,3.961265277E0
1.131202592E1,-4.891131574E0,1.189064632E0,4.995127228E-1,5.058315503E0
1.132206292E1,-5.622827582E0,1.328471609E0,5.220832676E-1,5.801172104E0
1.133210092E1,-5.403835908E0,1.460610496E0,2.569670016E-1,5.603646811E0
1.134213792E1,-4.811949749E0,1.397109150E0,2.024522406E-1,5.014754358E0
1.135217492E1,-4.322650358E0,1.576346190E0,3.200672293E-1,4.612224676E0
1.136221292E1,-3.705581703E0,2.124046109E0,4.908018333E-1,4.299278320E0
1.137224992E1,-3.224383337E0,2.574654767E0,9.078661841E-1,4.224892434E0
1.138228692E1,-3.058123022E0,2.824149612E0,1.347371564E0,4.375311141E0
1.139232492E1,-2.758094201E0,3.080030200E0,1.563206327E0,4.420099963E0
1.140236192E1,-2.121639249E0,3.308665688E0,1.648436804E0,4.262155046E0
1.141239892E1,-1.817298399E0,3.512555174E0,1.812680414E0,4.350451425E0
1.142243592E1,-1.746535249E0,3.894256734E0,2.030071414E0,4.726183538E0
1.143247392E1,-1.400293397E0,4.193475716E0,2.129764102E0,4.907336886E0
1.144251092E1,-1.255678013E0,4.316153809E0,2.233674971E0,5.019483524E0
1.145254792E1,-1.450648887E0,4.390091851E0,2.138089367E0,5.093988103E0
1.146258592E1,-1.869070085E0,4.197655891E0,1.820180930E0,4.942347274E0
1.147262292E1,-2.247494719E0,3.953404829E0,1.711712741E0,4.859074270E0
1.148265992E1,-1.846364469E0,3.819349809E0,1.748896354E0,4.588587274E0
1.149269792E1,-1.263221360E0,3.743642399E0,1.589267659E0,4.258680349E0
1.150273492E1,-1.202464258E0,3.744845756E0,1.619979575E0,4.253718826E0
1.151277192E1,-1.307928001E0,3.663737274E0,1.700579057E0,4.245658441E0
1.152280992E1,-1.433825717E0,3.343691095E0,1.587295978E0,3.969336827E0
1.153284692E1,-1.810517821E0,2.907029216E0,1.386749053E0,3.694843241E0
1.154288392E1,-1.945522868E0,2.692348108E0,1.130982485E0,3.508976909E0
1.155292192E1,-1.508026153E0,2.710608378E0,9.751278752E-1,3.251525031E0
1.156295892E1,-8.514335364E-1,2.819233273E0,1.089588291E0,3.140098399E0
1.157299592E1,-2.065504079E-1,2.926834905E0,1.380572054E0,3.242684818E0
1.158303392E1,3.558069097E-1,3.057723657E0,1.657076358E0,3.496022680E0
1.159307092E1,7.011771972E-1,3.180107635E0,1.803936195E0,3.722757020E0
1.160310792E1,8.562338081E-1,3.296214042E0,1.951637447E0,3.925181789E0
1.161314592E1,1.044225738E0,3.381129062E0,2.086159075E0,4.107858422E0
1.162318292E1,1.323005632E0,3.367694499E0,2.226629076E0,4.248480574E0
1.163321992E1,1.678829608E0,3.264216324E0,2.381411891E0,4.375465650E0
1.164325692E1,2.124520611E0,3.110280771E0,2.386447221E0,4.458986952E0
1.165329492E1,2.542546536E0,3.014590502E0,2.195002364E0,4.513350658E0
1.166333154E1,2.691653459E0,2.935670632E0,1.960035219E0,4.439019989E0
1.167336854E1,2.581480514E0,2.902081302E0,1.905771303E0,4.326439851E0
1.168340654E1,2.443532710E0,2.885039007E0,1.993546196E0,4.274169933E0
1.169344354E1,2.479978990E0,2.699427917E0,2.171409141E0,4.260542750E0
1.170348054E1,2.851313437E0,2.476508083E0,2.468009740E0,4.511557677E0
1.171351854E1,3.160021865E0,2.322925116E0,2.635649997E0,4.725290487E0
1.172355554E1,3.019308620E0,2.216401126E0,2.612773935E0,4.566754442E0
1.173359254E1,2.616513522E0,1.979178418E0,2.402037944E0,4.066088600E0
1.174363054E1,2.311910716E0,1.693930188E0,2.086409921E0,3.545058110E0
1.175366754E1,2.417239535E0,1.393122518E0,1.926470447E0,3.390446240E0
1.176370454E1,2.831376185E0,1.083241723E0,1.925296033E0,3.591221039E0
1.177374254E1,3.156372033E0,8.823319781E-1,2.014929756E0,3.847224461E0
1.178377954E1,3.318758859E0,8.731588662E-1,2.086442958E0,4.016193594E0
1.179381654E1,3.307581030E0,8.065163952E-1,2.090502972E0,3.995092444E0
1.180385454E1,3.228021474E0,5.837193525E-1,2.025285760E0,3.855208598E0
1.181389154E1,3.178614841E0,2.514852369E-1,1.965226669E0,3.745524395E0
1.182392854E1,3.228863474E0,9.073533833E-2,1.680278694E0,3.641034018E0
1.183396654E1,3.441159209E0,2.962433338E-2,1.578887390E0,3.786203863E0
1.184400354E1,3.715922504E0,-1.604475975E-3,1.619513260E0,4.053505375E0
1.185404054E1,3.911923804E0,-1.107848561E-1,1.713877965E0,4.272329436E0
1.186407854E1,3.911547536E0,-2.798465717E-1,1.968001465E0,4.387658600E0
1.187411554E1,3.777848319E0,-4.948884523E-1,2.153973913E0,4.376831744E0
1.188415254E1,3.577050548E0,-7.115120047E-1,2.101511525E0,4.209262482E0
1.189418954E1,3.289506701E0,-9.369017029E-1,1.795094036E0,3.862771251E0
1.190422754E1,3.181376481E0,-1.112757298E0,1.406598596E0,3.652109627E0
1.191426454E1,3.408594019E0,-1.272410259E0,1.270335082E0,3.853737442E0
1.192430154E1,3.926581897E0,-1.321797012E0,1.381932848E0,4.367485676E0
1.193433954E1,4.350486320E0,-1.277993765E0,1.678839694E0,4.835132057E0
1.194437654E1,4.397862508E0,-1.301042320E0,1.931338838E0,4.976341575E0
1.195441354E1,4.181179022E0,-1.405288820E0,1.996476382E0,4.841798490E0
1.196445154E1,3.920934656E0,-1.569293278E0,1.811187912E0,4.595303213E0
1.197448854E1,3.762028969E0,-1.906846021E0,1.481233626E0,4.470232295E0
1.198452554E1,3.759548580E0,-2.324573447E0,1.284626262E0,4.603054624E0
1.199456354E1,3.655298572E0,-2.682936430E0,1.149000241E0,4.677558882E0
1.200460054E1,3.151752732E0,-2.901178492E0,1.158964335E0,4.437744952E0
1.201463754E1,2.478329783E0,-2.910779035E0,1.253414994E0,4.023158243E0
1.202467554E1,1.909791702E0,-2.953687658E0,1.294027416E0,3.747810304E0
1.203471254E1,1.527035012E0,-3.166572500E0,1.199023098E0,3.714387395E0
1.204474954E1,1.399623452E0,-3.485065659E0,1.037445234E0,3.896270149E0
1.205478754E1,1.465208747E0,-3.778990572E0,9.036450791E-1,4.152611328E0
1.206482454E1,1.537416159E0,-4.004567381E0,8.702013445E-1,4.376923433E0
1.207486154E1,1.408584895E0,-4.215703906E0,8.302198380E-1,4.521674006E0
1.208489954E1,8.772092324E-1,-4.299788037E0,7.279403418E-1,4.448322194E0
1.209493654E1,-2.804587752E-2,-4.307260194E0,6.686039668E-1,4.358934298E0
1.210497354E1,-9.624307926E-1,-4.294903273E0,6.869449282E-1,4.454700943E0
1.211501154E1,-1.532742041E0,-4.294497476E0,7.654847288E-1,4.623632080E0
1.212504854E1,-1.574868891E0,-4.478129284E0,7.472542799E-1,4.805438884E0
1.213508554E1,-1.242475000E0,-4.670859944E0,6.271348556E-1,4.873804968E0
1.214512354E1,-8.998781566E-1,-4.698579839E0,4.337716001E-1,4.803601878E0
1.215516054E1,-8.924568705E-1,-4.576469511E0,2.273859193E-1,4.668217733E0
1.216519754E1,-1.194772538E0,-4.401271142E0,1.128021272E-1,4.561950614E0
1.217523454E1,-1.523323346E0,-4.326395792E0,5.130873263E-2,4.587030319E0
1.218527254E1,-1.798784652E0,-4.300725930E0,9.572418272E-2,4.662728050E0
1.219530954E1,-1.860976223E0,-4.278692452E0,2.278355885E-1,4.671439891E0
1.220534654E1,-1.690123797E0,-4.227947976E0,4.086332506E-1,4.571547186E0
1.221538454E1,-1.476301207E0,-4.115050521E0,4.918543321E-1,4.399434819E0
1.222542154E1,-1.527114827E0,-4.045870358E0,3.773476867E-1,4.340914411E0
1.223545854E1,-1.863326803E0,-3.967156311E0,1.289497797E-1,4.384853933E0
1.224549654E1,-2.329129158E0,-3.865031181E0,-2.137520214E-1,4.517631967E0
1.225553354E1,-2.616238995E0,-3.752309142E0,-5.131048679E-1,4.603021506E0
1.226557054E1,-2.628476340E0,-3.630060820E0,-7.243016195E-1,4.539916548E0
1.227560854E1,-2.454602951E0,-3.532155626E0,-7.702233855E-1,4.369718878E0
1.228564554E1,-2.333507261E0,-3.355875522E0,-7.488763706E-1,4.155475000E0
1.229568254E1,-2.496186302E0,-3.043583336E0,-6.880692746E-1,3.995971084E0
1.230572054E1,-2.976401752E0,-2.915821089E0,-5.782345180E-1,4.206582362E0
1.231575754E1,-3.552498089E0,-2.999882416E0,-5.186965603E-1,4.678523624E0
1.232579454E1,-4.090828430E0,-3.116826144E0,-6.024837253E-1,5.178075810E0
1.233583254E1,-4.438237532E0,-3.103264697E0,-6.441335155E-1,5.453724613E0
1.234586954E1,-4.640475765E0,-2.894454194E0,-5.792715217E-1,5.499766895E0
1.235590654E1,-4.627015182E0,-2.499204050E0,-3.015632768E-1,5.267469106E0
1.236594454E1,-4.441146814E0,-1.953871669E0,-1.622441545E-2,4.851975140E0
1.237598154E1,-4.184192677E0,-1.358633301E0,2.581873155E-1,4.406814438E0
1.238601854E1,-4.020761537E0,-1.037967902E0,3.543697737E-1,4.167670649E0
1.239605654E1,-4.262431346E0,-1.041628844E0,2.485888186E-1,4.394895678E0
1.240609354E1,-5.004018504E0,-1.283690708E0,-1.005107135E-1,5.167026749E0
1.241613054E1,-5.856196391E0,-1.317823244E0,-6.259646085E-1,6.035190632E0
1.242616754E1,-5.763030950E0,-1.034727375E0,-1.080561944E0,5.954057489E0
1.243620554E1,-4.829348139E0,-7.078440464E-1,-1.101114323E0,5.003608637E0
1.244624254E1,-3.896792672E0,-4.141138458E-1,-4.850984591E-1,3.948645833E0
1.245627954E1,-3.365550033E0,-1.314857537E-1,2.591667241E-1,3.378073848E0
1.246631754E1,-3.349421951E0,1.634039497E-1,6.652850872E-1,3.418761837E0
1.247635454E1,-3.842682246E0,5.608801281E-1,5.193330297E-1,3.917971434E0
1.248639154E1,-4.749092473E0,9.320034903E-1,-1.018181509E-1,4.840751673E0
1.249642954E1,-5.127691793E0,1.194418343E0,-7.822636065E-1,5.322761938E0
1.250646654E1,-4.294450991E0,1.276274099E0,-1.033019696E0,4.597642285E0
1.251650354E1,-3.097341175E0,1.307682418E0,-6.977377188E-1,3.433714255E0
1.252654154E1,-2.136790847E0,1.533204848E0,-1.685606092E-2,2.629995505E0
1.253657854E1,-1.696022907E0,1.823829592E0,6.677286386E-1,2.578509185E0
1.254661554E1,-1.686367984E0,2.266355644E0,9.641573292E-1,2.984929520E0
1.255665354E1,-1.932623472E0,3.092906939E0,8.280704015E-1,3.739894037E0
1.256669054E1,-2.308300645E0,3.784564138E0,6.519686383E-1,4.480651815E0
1.257672754E1,-2.601914779E0,3.809276810E0,6.708861351E-1,4.661613298E0
1.258676554E1,-2.642889435E0,3.348697481E0,8.286469370E-1,4.345721474E0
1.259680254E1,-2.645378594E0,2.830118449E0,8.681676829E-1,3.970052074E0
1.260683954E1,-2.619454964E0,2.787445469E0,7.803378260E-1,3.903885715E0
1.261687754E1,-2.235498133E0,3.123151077E0,8.019991288E-1,3.923611494E0
1.262691454E1,-1.608563910E0,3.561693420E0,1.168155281E0,4.078936704E0
1.263695154E1,-1.039491759E0,4.055183803E0,1.755672108E0,4.539542196E0
1.264698954E1,-4.356017786E-1,4.421142905E0,2.253422772E0,4.981382106E0
1.265702654E1,-2.562464784E-1,4.435003145E0,2.511820295E0,5.103347563E0
1.266706371E1,-7.218962212E-1,4.194715326E0,2.495777582E0,4.934133820E0
1.267710071E1,-1.037471327E0,4.063558186E0,2.253810443E0,4.761146227E0
1.268713871E1,-6.188192379E-1,4.124962136E0,1.928236890E0,4.595252700E0
1.269717571E1,2.496345200E-1,4.156319584E0,1.826018205E0,4.546608886E0
1.270721271E1,7.991742658E-1,4.211606178E0,2.148152718E0,4.794879164E0
1.271725071E1,6.698629455E-1,4.205571851E0,2.611371188E0,4.995479000E0
1.272728771E1,1.693914255E-1,4.028284857E0,2.941116436E0,4.990584960E0
1.273732471E1,-3.279899872E-1,3.826581645E0,2.936321427E0,4.834489429E0
1.274736271E1,-1.748619343E-1,3.803937718E0,2.697640131E0,4.666667026E0
1.275739971E1,7.219323277E-1,3.913671829E0,2.446282071E0,4.671435480E0
1.276743671E1,1.642616486E0,3.988827846E0,2.463629006E0,4.967736344E0
1.277747471E1,2.182898335E0,4.117478870E0,2.717121007E0,5.394573565E0
1.278751171E1,2.442435772E0,4.341341275E0,3.023458974E0,5.827009588E0
1.279754871E1,2.639954132E0,4.432495274E0,3.375083626E0,6.165027304E0
1.280758671E1,2.921666258E0,4.223671907E0,3.645757670E0,6.298181253E0
1.281762371E1,3.285192918E0,4.034534361E0,3.592145135E0,6.322457330E0
1.282766071E1,3.599387788E0,3.985172167E0,3.478064203E0,6.397977825E0
1.283769871E1,3.662290673E0,3.927803380E0,3.452217464E0,6.384184974E0
1.284773571E1,3.571923124E0,3.729060613E0,3.575032673E0,6.280556223E0
1.285777271E1,3.392111595E0,3.354959264E0,3.704271927E0,6.040182385E0
1.286781071E1,3.079127975E0,2.892067360E0,3.625027537E0,5.566498661E0
1.287784771E1,2.777953392E0,2.471987016E0,3.369244596E0,5.017923276E0
1.288788471E1,2.725492758E0,2.140068650E0,3.113356991E0,4.658454288E0
1.289792171E1,2.726514559E0,1.930364107E0,2.982330828E0,4.478223353E0
1.290795971E1,2.917981635E0,1.812858462E0,3.023089430E0,4.576040027E0
1.291799671E1,3.212238085E0,1.742275552E0,3.119912597E0,4.804982021E0
1.292803371E1,3.379866356E0,1.492719896E0,3.225261881E0,4.904490134E0
1.293807171E1,3.454338249E0,1.132920837E0,3.331151448E0,4.930774009E0
1.294810871E1,3.512260475E0,8.256005377E-1,3.213668022E0,4.831692462E0
1.295814571E1,3.578580179E0,5.569917297E-1,2.965662463E0,4.680985978E0
1.296818371E1,3.587845969E0,3.460306209E-1,2.749448216E0,4.533413877E0
1.297822071E1,3.505463086E0,1.543694168E-1,2.702854970E0,4.429167682E0
1.298825771E1,3.476222330E0,-2.114353180E-3,2.595334615E0,4.338189475E0
1.299829571E1,3.510668278E0,-2.250920749E-1,2.538886472E0,4.338364060E0
1.300833271E1,3.579858965E0,-5.600112319E-1,2.517380705E0,4.412052629E0
1.301836971E1,3.723027456E0,-1.021429637E0,2.572449782E0,4.639153998E0
1.302840771E1,3.689502445E0,-1.281540686E0,2.456323494E0,4.613924569E0
1.303844471E1,3.469479906E0,-1.481100309E0,2.319205264E0,4.428279802E0
1.304848171E1,3.321611716E0,-1.859381833E0,2.157570097E0,4.375558698E0
1.305851971E1,3.277038391E0,-2.155132831E0,1.860616180E0,4.341137029E0
1.306855671E1,3.337963162E0,-2.374798105E0,1.658203116E0,4.419423230E0
1.307859371E1,3.300688916E0,-2.644181669E0,1.690796812E0,4.554672094E0
1.308863171E1,3.254354410E0,-3.000615656E0,1.719826483E0,4.748928308E0
1.309866871E1,3.034428350E0,-3.404679308E0,1.699193852E0,4.866914459E0
1.310870571E1,2.679322266E0,-3.688259327E0,1.562641486E0,4.819115384E0
1.311874371E1,2.315490674E0,-3.908599370E0,1.345429704E0,4.738019331E0
1.312878071E1,1.870114690E0,-4.055932832E0,1.048635562E0,4.587761614E0
1.313881771E1,1.411393020E0,-4.145937853E0,7.086182177E-1,4.436549416E0
1.314885571E1,1.123508866E0,-4.318109118E0,5.474087280E-1,4.495330337E0
1.315889271E1,1.033205929E0,-4.561609397E0,5.852098443E-1,4.713625499E0
1.316892971E1,9.579503636E-1,-4.759370416E0,6.899983442E-1,4.903608200E0
1.317896671E1,7.462199074E-1,-4.825331687E0,7.805430633E-1,4.944685785E0
1.318900471E1,5.078853509E-1,-4.880959173E0,6.505822635E-1,4.950249212E0
1.319904171E1,2.547963689E-1,-4.981708453E0,4.344820368E-1,5.007106444E0
1.320907871E1,-2.968748331E-2,-5.115153024E0,1.956466663E-1,5.118979334E0
1.321911671E1,-2.210532568E-1,-5.237696046E0,-2.742227197E-2,5.242430390E0
1.322915371E1,-2.356870835E-1,-5.242804173E0,-2.863112350E-1,5.255903169E0
1.323919071E1,-1.435779418E-1,-5.103652135E0,-4.498263001E-1,5.125448609E0
1.324922871E1,-1.352778192E-1,-4.942967141E0,-5.057794762E-1,4.970617378E0
1.325926571E1,-1.648580061E-1,-4.752245584E0,-5.830059922E-1,4.790711037E0
1.326930271E1,-3.537862216E-1,-4.581290540E0,-6.186611438E-1,4.636391842E0
1.327934071E1,-6.271178256E-1,-4.467142950E0,-6.794955754E-1,4.561837036E0
1.328937771E1,-7.118885654E-1,-4.405424420E0,-7.149799883E-1,4.519485151E0
1.329941471E1,-5.576502724E-1,-4.380603574E0,-6.693003702E-1,4.466388304E0
1.330945271E1,-3.842149857E-1,-4.337714832E0,-5.799198318E-1,4.393142170E0
1.331948971E1,-3.131336010E-1,-4.281875677E0,-5.981935501E-1,4.334783441E0
1.332952671E1,-3.950272183E-1,-4.164412715E0,-7.118470502E-1,4.243242391E0
1.333956471E1,-8.091453034E-1,-4.047582423E0,-7.429495597E-1,4.193997335E0
1.334960171E1,-1.294682304E0,-4.036694908E0,-7.334069037E-1,4.302208006E0
1.335963871E1,-1.744170050E0,-4.079709365E0,-6.455992663E-1,4.483632018E0
1.336967671E1,-2.112560862E0,-4.216462290E0,-6.082905221E-1,4.755153520E0
1.337971371E1,-2.264870597E0,-4.353614581E0,-7.503562278E-1,4.964537562E0
1.338975071E1,-2.305136278E0,-4.451377103E0,-9.450047743E-1,5.101121974E0
1.339978871E1,-2.459718680E0,-4.441047996E0,-1.218410638E0,5.220885727E0
1.340982571E1,-2.738845752E0,-4.258825952E0,-1.473634000E0,5.273563474E0
1.341986271E1,-3.046657217E0,-3.952668080E0,-1.656821419E0,5.258399220E0
1.342989971E1,-3.249870180E0,-3.733129690E0,-1.648492060E0,5.216841913E0
1.343993771E1,-3.203038953E0,-3.596000789E0,-1.462226667E0,5.032771308E0
1.344997471E1,-2.799536927E0,-3.447870936E0,-1.017991547E0,4.556481953E0
1.346001171E1,-2.098840224E0,-3.324076025E0,-5.620817310E-1,3.971214874E0
1.347004971E1,-1.608312041E0,-3.028006353E0,-2.468500029E-1,3.437502730E0
1.348008671E1,-1.634633867E0,-2.422390348E0,-3.578802958E-2,2.922547460E0
1.349012371E1,-2.156659832E0,-1.726242487E0,6.469710231E-2,2.763201127E0
1.350016171E1,-2.764823762E0,-1.294685812E0,-4.453824162E-2,3.053267993E0
1.351019871E1,-3.067839341E0,-1.286955208E0,-1.984404659E-1,3.332757199E0
1.352023571E1,-3.087453241E0,-1.571436283E0,-2.804951741E-1,3.475695189E0
1.353027371E1,-3.039697861E0,-1.750285068E0,-3.598914456E-1,3.526015139E0
1.354031071E1,-3.030105211E0,-1.660917978E0,-4.029949267E-1,3.478877841E0
1.355034771E1,-3.268053559E0,-1.318725470E0,-2.803295517E-1,3.535222141E0
1.356038571E1,-4.070812826E0,-8.445805997E-1,-1.398145276E-1,4.159853550E0
1.357042271E1,-4.961416860E0,-5.263575822E-1,1.162746607E-1,4.990614127E0
1.358045971E1,-5.651975952E0,-6.413267058E-1,4.249759260E-1,5.704098233E0
1.359049771E1,-6.356045036E0,-9.011407167E-1,6.119713444E-1,6.448710881E0
1.360053471E1,-6.601380172E0,-8.774162239E-1,5.348281512E-1,6.680877229E0
1.361057171E1,-5.930382355E0,-4.442234981E-1,2.818261465E-1,5.953670747E0
1.362060971E1,-5.049893419E0,1.005013579E-1,3.503177994E-1,5.063027417E0
1.363064671E1,-4.561181965E0,8.553681278E-1,7.379490209E-1,4.699000353E0
1.364068371E1,-4.531723401E0,1.499833034E0,1.119155906E0,4.902909958E0
1.365072071E1,-4.774107446E0,1.717321390E0,1.257121544E0,5.227011502E0
1.366075871E1,-5.208033121E0,1.641433886E0,1.259985511E0,5.604059036E0
1.367079592E1,-5.765507830E0,1.765848602E0,1.203517780E0,6.148801255E0
1.368083292E1,-5.190157598E0,2.321099031E0,9.993265772E-1,5.772684835E0
1.369087092E1,-3.818678548E0,2.922332548E0,1.173272764E0,4.949636589E0
1.370090792E1,-2.925104129E0,3.506097509E0,1.849019982E0,4.926238809E0
1.371094492E1,-2.577898510E0,3.849586930E0,2.501070774E0,5.265000976E0
1.372098292E1,-2.910562103E0,3.881158971E0,2.847159282E0,5.625040684E0
1.373101992E1,-3.767321869E0,3.709069567E0,2.705449087E0,5.938801721E0
1.374105692E1,-4.291781445E0,3.560607592E0,2.191517715E0,5.991666237E0
1.375109492E1,-3.950285924E0,3.461805435E0,1.643187759E0,5.503537205E0
1.376113192E1,-3.088834938E0,3.407210568E0,1.493632062E0,4.835382287E0
1.377116892E1,-2.364380121E0,3.312549409E0,1.660564806E0,4.395537785E0
1.378120692E1,-2.160861349E0,3.414314935E0,1.863821039E0,4.449797423E0
1.379124392E1,-1.996821076E0,3.720521924E0,1.907235446E0,4.633262872E0
1.380128092E1,-1.334472314E0,3.976873798E0,1.685761336E0,4.520855322E0
1.381131892E1,-7.044300033E-1,4.112323380E0,1.658350466E0,4.489716191E0
1.382135592E1,-4.264627998E-1,4.115044089E0,1.853864985E0,4.533461564E0
1.383139292E1,-6.366203550E-1,4.022212524E0,1.959889331E0,4.519363368E0
1.384143092E1,-8.303728889E-1,4.040492674E0,1.988854390E0,4.579371351E0
1.385146792E1,-8.728068638E-1,4.070157938E0,2.052240839E0,4.641084994E0
1.386150492E1,-6.681980970E-1,4.021858767E0,2.202408447E0,4.633836381E0
1.387154192E1,-2.348306856E-1,3.961944687E0,2.284059259E0,4.579200569E0
1.388157992E1,3.530985525E-1,4.086921321E0,2.291102815E0,4.698590914E0
1.389161692E1,1.188431890E0,4.329747416E0,2.471198811E0,5.125027474E0
1.390165392E1,2.153856384E0,4.639268607E0,2.901388407E0,5.880473214E0
1.391169192E1,2.763875928E0,4.728449755E0,3.341375889E0,6.415764964E0
1.392172892E1,3.011061707E0,4.755337592E0,3.514861316E0,6.635810296E0
1.393176592E1,3.294765102E0,4.725316232E0,3.544871858E0,6.763889936E0
1.394180392E1,3.545448686E0,4.621045759E0,3.502062346E0,6.796227701E0
1.395184092E1,3.644161673E0,4.544684631E0,3.539449150E0,6.816287331E0
1.396187792E1,3.859881246E0,4.541620106E0,3.648647657E0,6.988392243E0
1.397191592E1,4.152115729E0,4.462210824E0,3.846854526E0,7.207612657E0
1.398195292E1,4.195956397E0,4.175024242E0,3.924284526E0,7.101893167E0
1.399198992E1,3.892539992E0,3.720176938E0,3.828584901E0,6.606787902E0
1.400202792E1,3.423119087E0,3.267381422E0,3.652738076E0,5.977961283E0
1.401206492E1,2.996267082E0,2.787285841E0,3.368276590E0,5.300176032E0
1.402210192E1,2.862513486E0,2.324405047E0,3.029898805E0,4.772539056E0
1.403213992E1,2.874979457E0,1.950972034E0,2.736265376E0,4.422549826E0
1.404217692E1,2.912359830E0,1.558337350E0,2.580829134E0,4.191769805E0
1.405221392E1,2.874883855E0,1.268125420E0,2.586795925E0,4.069964671E0
1.406225192E1,2.573447025E0,1.100761735E0,2.641888391E0,3.848880390E0
1.407228892E1,2.369194280E0,9.698110020E-1,2.682739379E0,3.708194371E0
1.408232592E1,2.435182886E0,8.524000812E-1,2.557791397E0,3.633042584E0
1.409236392E1,2.690142246E0,7.284788704E-1,2.539165384E0,3.770266253E0
1.410240092E1,3.071022565E0,6.349836463E-1,2.652268369E0,4.107178024E0
1.411243792E1,3.228393942E0,5.314177626E-1,2.806074406E0,4.310334773E0
1.412247492E1,3.134207869E0,3.208267826E-1,3.009337948E0,4.356868563E0
1.413251292E1,2.957336905E0,1.475305134E-1,3.139117192E0,4.315282559E0
1.414254992E1,2.949645185E0,-1.631197751E-2,3.139213378E0,4.307590212E0
1.415258692E1,3.108781837E0,-2.722603941E-1,3.107326173E0,4.403876267E0
1.416262492E1,3.259523934E0,-5.348442310E-1,2.992889730E0,4.457347144E0
1.417266192E1,3.287584137E0,-7.544562954E-1,2.772478936E0,4.366240169E0
1.418269892E1,3.229277456E0,-1.025945442E0,2.545792326E0,4.238142931E0
1.419273692E1,3.143926819E0,-1.283710003E0,2.386598810E0,4.150667548E0
1.420277392E1,3.096679562E0,-1.539308172E0,2.286747662E0,4.145854415E0
1.421281092E1,3.155130961E0,-1.799818586E0,2.246549809E0,4.270969956E0
1.422284892E1,3.234601931E0,-2.094523517E0,2.191951579E0,4.433320442E0
1.423288592E1,3.115145362E0,-2.403806727E0,2.111533068E0,4.465533485E0
1.424292292E1,2.797167050E0,-2.735274273E0,1.962477601E0,4.376892412E0
1.425296092E1,2.643842238E0,-2.993252258E0,1.688612146E0,4.335997214E0
1.426299792E1,2.613067465E0,-3.285285012E0,1.451491179E0,4.441626485E0
1.427303492E1,2.564559549E0,-3.560210567E0,1.354768292E0,4.592108675E0
1.428307292E1,2.385976666E0,-3.679122468E0,1.386929732E0,4.599173933E0
1.429310992E1,2.151000896E0,-3.697502605E0,1.383712594E0,4.495885999E0
1.430314692E1,1.925985274E0,-3.793415068E0,1.346861687E0,4.462449278E0
1.431318492E1,1.776097455E0,-4.096819487E0,1.218422917E0,4.628499377E0
1.432322192E1,1.594976296E0,-4.463841028E0,1.025772364E0,4.849952067E0
1.433325892E1,1.338510839E0,-4.743626204E0,7.267258751E-1,4.982141239E0
1.434329692E1,1.030866458E0,-4.880950402E0,3.338865387E-1,4.999784266E0
1.435333392E1,7.345747389E-1,-4.961044977E0,1.163654022E-1,5.016483651E0
1.436337092E1,4.972036573E-1,-5.013971050E0,-6.614406891E-3,5.038567348E0
1.437340792E1,2.156916524E-1,-5.069220221E0,-7.417774122E-2,5.074349109E0
1.438344592E1,-2.466145062E-1,-5.000889074E0,-8.601952236E-2,5.007705024E0
1.439348292E1,-6.201086220E-1,-4.994467662E0,-1.958770100E-1,5.036626821E0
1.440351992E1,-7.757283197E-1,-5.097979167E0,-3.699252312E-1,5.169912058E0
1.441355792E1,-5.873183137E-1,-5.183553752E0,-5.923732316E-1,5.250245551E0
1.442359492E1,-3.612091157E-1,-5.141171379E0,-8.685138381E-1,5.226512361E0
1.443363192E1,-4.121576598E-1,-4.936374405E0,-9.428588462E-1,5.042484408E0
1.444366992E1,-7.012742610E-1,-4.674614441E0,-7.039334285E-1,4.779050955E0
1.445370692E1,-1.012409576E0,-4.559489197E0,-3.135066168E-1,4.681047028E0
1.446374392E1,-1.224819040E0,-4.542384921E0,1.073673047E-2,4.704631519E0
1.447378192E1,-1.387483756E0,-4.480883907E0,1.108316704E-1,4.692090730E0
1.448381892E1,-1.569696444E0,-4.410827832E0,-6.138288220E-2,4.682212826E0
1.449385592E1,-1.761960057E0,-4.418613399E0,-2.600806439E-1,4.764062296E0
1.450389392E1,-1.996726351E0,-4.514482008E0,-4.369975090E-1,4.955646350E0
1.451393092E1,-2.349109533E0,-4.623212153E0,-5.516777802E-1,5.215050774E0
1.452396792E1,-2.860488887E0,-4.651128514E0,-7.127486908E-1,5.506669032E0
1.453400592E1,-3.524435255E0,-4.595263631E0,-8.913483846E-1,5.859402158E0
1.454404292E1,-3.943989350E0,-4.517040750E0,-9.660904187E-1,6.073881776E0
1.455407992E1,-4.030645671E0,-4.476362255E0,-1.046420052E0,6.113830100E0
1.456411792E1,-3.649590520E0,-4.374247651E0,-1.191156766E0,5.820000680E0
1.457415492E1,-3.122170207E0,-4.164877569E0,-1.290119721E0,5.362700892E0
1.458419192E1,-2.803109283E0,-3.808891479E0,-1.272119653E0,4.897281323E0
1.459422892E1,-2.822870826E0,-3.439462055E0,-1.039642544E0,4.569393345E0
1.460426692E1,-3.059032849E0,-3.016466873E0,-7.970871753E-1,4.369451034E0
1.461430392E1,-3.166471051E0,-2.387532756E0,-5.868961447E-1,4.008902427E0
1.462434092E1,-2.952493072E0,-1.768119661E0,-4.325426616E-1,3.468509136E0
1.463437892E1,-2.756106440E0,-1.376582499E0,-2.671101665E-1,3.092321123E0
1.464441592E1,-2.628231050E0,-1.269364445E0,-2.531386833E-1,2.929669561E0
1.465445292E1,-2.653061836E0,-1.185384395E0,-5.702999926E-1,2.961269212E0
1.466449092E1,-3.218831990E0,-9.823661435E-1,-7.980215603E-1,3.458722457E0
1.467452842E1,-4.299252724E0,-9.590977335E-1,-6.694560523E-1,4.455514993E0
1.468456542E1,-5.290937868E0,-1.213400159E0,-2.188881791E-1,5.432704253E0
1.469460342E1,-5.672548796E0,-1.292601864E0,-1.035286076E-1,5.818878551E0
1.470464042E1,-5.307022973E0,-8.038062108E-1,-3.912781298E-1,5.381792995E0
1.471467742E1,-4.744954399E0,5.241911888E-2,-5.356774592E-1,4.775383791E0
1.472471542E1,-4.354491663E0,7.917188466E-1,-1.611166652E-1,4.428811912E0
1.473475242E1,-4.378379585E0,1.138639414E0,5.380856350E-1,4.555902069E0
1.474478942E1,-4.867897078E0,1.257884606E0,1.215188237E0,5.172560110E0
1.475482742E1,-5.269377429E0,1.239974000E0,1.567747859E0,5.635752600E0
1.476486442E1,-5.442050385E0,1.389134132E0,1.339508228E0,5.774070343E0
1.477490142E1,-4.953606734E0,1.870962828E0,6.894215164E-1,5.339852396E0
1.478493942E1,-3.971324791E0,2.357527769E0,9.226526231E-2,4.619293307E0
1.479497642E1,-3.220257249E0,2.791884091E0,1.185967362E-1,4.263653212E0
1.480501342E1,-2.838527915E0,3.101816926E0,3.983886364E-1,4.223413604E0
1.481505042E1,-2.979443473E0,3.136457586E0,9.051700330E-1,4.419703880E0
1.482508842E1,-3.534662912E0,3.013964265E0,1.358059982E0,4.839643520E0
1.483512542E1,-4.217197285E0,2.930440882E0,1.481554931E0,5.344833180E0
1.484516242E1,-4.294488121E0,2.905104312E0,1.196082460E0,5.320984170E0
1.485520042E1,-3.361458152E0,2.966657367E0,6.948249283E-1,4.536875414E0
1.486523742E1,-2.533695021E0,2.921209298E0,4.643806046E-1,3.894704555E0
1.487527442E1,-2.557900448E0,2.939252052E0,7.678677616E-1,3.971357227E0
1.488531242E1,-2.764780200E0,3.048683277E0,1.201170707E0,4.287340708E0
1.489534942E1,-2.825876294E0,2.995596406E0,1.407375106E0,4.351997168E0
1.490538642E1,-2.716779237E0,2.853913109E0,1.393486215E0,4.179415424E0
1.491542442E1,-2.316578256E0,2.835442924E0,1.244333099E0,3.867122477E0
1.492546142E1,-1.678212288E0,3.054770814E0,1.155966468E0,3.672094727E0
1.493549842E1,-7.524102084E-1,3.302372330E0,1.176239934E0,3.585432262E0
1.494553642E1,-3.355426164E-1,3.621171883E0,1.431443708E0,3.908261217E0
1.495557342E1,-8.244613539E-1,3.807047267E0,1.868587105E0,4.320296655E0
1.496561042E1,-1.336693086E0,3.671055064E0,2.286456032E0,4.526728938E0
1.497564842E1,-1.360207079E0,3.484704301E0,2.380004466E0,4.433705970E0
1.498568542E1,-5.757870928E-1,3.570391154E0,2.232480385E0,4.250081462E0
1.499572242E1,5.969985985E-1,3.955655422E0,2.183687124E0,4.557642658E0
1.500576042E1,1.578394470E0,4.386008740E0,2.538902552E0,5.307958924E0
1.501579742E1,2.282606226E0,4.756730399E0,3.050354412E0,6.094377516E0
1.502583442E1,2.560694540E0,4.898055262E0,3.444440374E0,6.512470450E0
1.503587242E1,2.507648014E0,4.947827931E0,3.613011509E0,6.619905737E0
1.504590942E1,2.497940759E0,4.861193245E0,3.525490385E0,6.503844267E0
1.505594642E1,2.667726068E0,4.711111007E0,3.372010914E0,6.378227567E0
1.506598342E1,2.815079118E0,4.597663913E0,3.267094908E0,6.303736435E0
1.507602142E1,2.972356063E0,4.500461555E0,3.262555130E0,6.303437217E0
1.508605842E1,3.039172489E0,4.399639769E0,3.399650118E0,6.336483286E0
1.509609542E1,2.918941163E0,4.285213852E0,3.633919398E0,6.331559481E0
1.510613342E1,2.635407922E0,4.065788314E0,3.779375319E0,6.144891157E0
1.511617042E1,2.280511168E0,3.732554324E0,3.819881028E0,5.807252710E0
1.512620742E1,2.067562152E0,3.332606528E0,3.877234612E0,5.514891455E0
1.513624542E1,2.250305768E0,2.913685686E0,3.734834738E0,5.244276008E0
1.514628242E1,2.749785892E0,2.570130776E0,3.390526122E0,5.065822939E0
1.515631942E1,3.032002633E0,2.247138770E0,3.126494515E0,4.900779588E0
1.516635742E1,2.994253593E0,1.857413660E0,3.010352148E0,4.634410441E0
1.517639442E1,2.892481636E0,1.468500729E0,2.945172358E0,4.381436365E0
1.518643142E1,2.803305750E0,1.093600650E0,2.860543851E0,4.151770301E0
1.519646942E1,2.747303165E0,7.271363497E-1,2.649783594E0,3.885582974E0
1.520650642E1,2.765115830E0,5.155688846E-1,2.370829600E0,3.678655980E0
1.521654342E1,2.820727236E0,3.805812335E-1,2.161303690E0,3.573874348E0
1.522658142E1,2.917672318E0,2.757494277E-1,2.194511490E0,3.661247080E0
1.523661842E1,2.856667440E0,2.095028132E-1,2.340128794E0,3.698735333E0
1.524665542E1,2.642899083E0,1.739283532E-1,2.486514131E0,3.632894047E0
1.525669242E1,2.605640040E0,1.726741254E-2,2.560542220E0,3.653222501E0
1.526673042E1,2.865168706E0,-2.173994780E-1,2.526443889E0,3.826143355E0
1.527676742E1,3.211773816E0,-4.582632476E-1,2.327630663E0,3.992913818E0
1.528680442E1,3.349469898E0,-6.844236088E-1,2.058043908E0,3.990354496E0
1.529684242E1,3.322141766E0,-8.818864202E-1,1.856887265E0,3.906709598E0
1.530687942E1,3.318449249E0,-1.085411625E0,1.856465827E0,3.954325376E0
1.531691642E1,3.321689776E0,-1.317157246E0,1.904271346E0,4.049046251E0
1.532695442E1,3.420841012E0,-1.362058600E0,1.774872464E0,4.087484449E0
1.533699142E1,3.400222560E0,-1.439913107E0,1.778467917E0,4.098513309E0
1.534702842E1,3.149741875E0,-1.535798088E0,1.680342429E0,3.886270748E0
1.535706642E1,2.875935185E0,-1.646080669E0,1.468317711E0,3.624436736E0
1.536710342E1,2.683316207E0,-1.864963585E0,1.350023276E0,3.535652399E0
1.537714042E1,2.465976663E0,-2.117255738E0,1.260664226E0,3.486127802E0
1.538717842E1,2.232576571E0,-2.308243343E0,1.260378590E0,3.449773857E0
1.539721542E1,2.149821513E0,-2.407406858E0,1.343795407E0,3.496158808E0
1.540725242E1,2.262430116E0,-2.467894549E0,1.388846449E0,3.624636257E0
1.541729042E1,2.400945538E0,-2.586267337E0,1.401669393E0,3.797103541E0
1.542732742E1,2.292439488E0,-2.712401719E0,1.267215593E0,3.770707792E0
1.543736442E1,1.875215216E0,-2.828025146E0,1.085420469E0,3.562624865E0
1.544740242E1,1.355133158E0,-3.000959473E0,8.015871924E-1,3.388906263E0
1.545743942E1,1.064011839E0,-3.248119524E0,4.932313148E-1,3.453357608E0
1.546747642E1,1.145440164E0,-3.400410841E0,3.680968068E-1,3.606982439E0
1.547751442E1,1.575340615E0,-3.422989279E0,4.155043137E-1,3.790936229E0
1.548755142E1,1.956803901E0,-3.347328063E0,6.091804683E-1,3.924893312E0
1.549758842E1,1.945361777E0,-3.243046480E0,7.100332439E-1,3.847847466E0
1.550762542E1,1.637819138E0,-3.183667420E0,7.223919189E-1,3.652401929E0
1.551766342E1,1.307712239E0,-3.282879467E0,7.193841112E-1,3.606233824E0
1.552770042E1,9.826722452E-1,-3.447194998E0,5.896402431E-1,3.632695103E0
1.553773742E1,8.134754589E-1,-3.625973616E0,5.053760548E-1,3.750310913E0
1.554777542E1,6.954815707E-1,-3.754934542E0,5.982567731E-1,3.865376980E0
1.555781242E1,5.494790809E-1,-3.840133152E0,7.307896900E-1,3.947480647E0
1.556784942E1,3.114158352E-1,-3.820240340E0,8.228611171E-1,3.920244443E0
1.557788742E1,1.749388982E-1,-3.716207263E0,8.359331524E-1,3.813080681E0
1.558792442E1,1.960067086E-1,-3.658508109E0,7.076534271E-1,3.731470700E0
1.559796142E1,1.795179990E-1,-3.785999045E0,4.147967275E-1,3.812882349E0
1.560799942E1,-2.519126683E-3,-3.972134630E0,1.919382890E-1,3.976770068E0
1.561803642E1,-3.096222018E-1,-4.219865370E0,1.298900485E-2,4.231228942E0
1.562807342E1,-6.068105918E-1,-4.463408918E0,-2.116337579E-2,4.504518415E0
1.563811142E1,-7.032919890E-1,-4.635214148E0,1.223424991E-1,4.689861139E0
1.564814842E1,-6.294075952E-1,-4.707030235E0,7.237442337E-2,4.749476351E0
1.565818542E1,-6.803454682E-1,-4.623402772E0,-6.542339958E-2,4.673649898E0
1.566822346E1,-8.005054575E-1,-4.568910230E0,-1.687716206E-1,4.641576622E0
1.567826046E1,-7.996751529E-1,-4.488984055E0,-1.893351452E-1,4.563584774E0
1.568829746E1,-6.535166886E-1,-4.386498152E0,-2.032398971E-1,4.439567159E0
1.569833546E1,-5.139405812E-1,-4.270606923E0,-2.827023153E-1,4.310700524E0
1.570837246E1,-5.295359825E-1,-4.161118979E0,-3.396249962E-1,4.208404050E0
1.571840946E1,-7.081317294E-1,-4.145286473E0,-2.075072133E-1,4.210452438E0
1.572844746E1,-9.163366069E-1,-4.174555296E0,-8.761235872E-2,4.274840420E0
1.573848446E1,-1.375963425E0,-4.218617574E0,-9.168551087E-2,4.438289740E0
1.574852146E1,-1.873394685E0,-4.273269745E0,-8.539975405E-2,4.666662091E0
1.575855846E1,-2.036210698E0,-4.410856483E0,-1.170144796E-1,4.859578305E0
1.576859646E1,-2.052031070E0,-4.605479302E0,-1.113075972E-1,5.043179602E0
1.577863346E1,-2.208052764E0,-4.760881337E0,-1.054603998E-1,5.249058012E0
1.578867046E1,-2.647035988E0,-4.615908980E0,-1.568889821E-1,5.323347573E0
1.579870846E1,-3.261657583E0,-4.260039250E0,-2.399569030E-1,5.370653955E0
1.580874546E1,-3.834136832E0,-4.011766473E0,-3.702988317E-1,5.561654134E0
1.581878246E1,-4.214875941E0,-3.979227303E0,-5.466503441E-1,5.822220858E0
1.582882046E1,-4.402296744E0,-3.990657440E0,-6.795154560E-1,5.980577286E0
1.583885746E1,-4.270333273E0,-3.630710446E0,-7.273959661E-1,5.652159719E0
1.584889446E1,-3.805642766E0,-3.009534999E0,-5.879937402E-1,4.887325896E0
1.585893246E1,-3.365197738E0,-2.186813046E0,-3.194591919E-1,4.026010593E0
1.586896946E1,-3.134489413E0,-1.357738093E0,-1.259351380E-1,3.418235841E0
1.587900646E1,-3.449780929E0,-6.743196201E-1,-1.571620470E-1,3.518578593E0
1.588904446E1,-4.329221459E0,-3.677810937E-1,-1.200345665E-1,4.346473245E0
1.589908146E1,-5.071428714E0,-3.871692914E-1,1.685401440E-2,5.086214046E0
1.590911846E1,-5.325549876E0,-5.419322258E-1,4.107829794E-2,5.353210200E0
1.591915646E1,-5.417975060E0,-4.103856611E-1,-1.245959795E-1,5.434923578E0
1.592919346E1,-5.275093083E0,1.465411645E-1,-2.625516772E-1,5.283655432E0
1.593923046E1,-4.966557732E0,9.044636893E-1,-2.793156445E-1,5.055963558E0
1.594926846E1,-4.826519841E0,1.633813210E0,-1.198945257E-1,5.096961259E0
1.595930546E1,-5.253174795E0,2.011046328E0,2.137131009E-1,5.629016437E0
1.596934246E1,-5.796349554E0,2.169339226E0,4.508010310E-1,6.205394621E0
1.597937946E1,-5.723497925E0,2.246644680E0,4.172497076E-1,6.162786556E0
1.598941746E1,-5.197655482E0,2.452948481E0,5.071348608E-1,5.769728289E0
1.599945446E1,-4.832487217E0,2.600571966E0,8.432608831E-1,5.552206423E0
1.600949146E1,-4.718464173E0,2.858436515E0,1.284933533E0,5.664416796E0
1.601952946E1,-4.362468727E0,3.284727772E0,1.551728243E0,5.677008937E0
1.602956646E1,-3.935655606E0,3.465798499E0,1.670551851E0,5.503806662E0
1.603960346E1,-3.965091074E0,3.400593858E0,1.588220131E0,5.459709608E0
1.604964146E1,-4.518912444E0,3.341713566E0,1.044763243E0,5.716567980E0
1.605967846E1,-5.042436465E0,3.300258561E0,3.835808551E-1,6.038626197E0
1.606971546E1,-4.993494685E0,3.157666022E0,2.130772161E-1,5.911957863E0
1.607975346E1,-4.550253227E0,3.165821718E0,5.010923481E-1,5.565817561E0
1.608979046E1,-3.838079025E0,3.607916245E0,1.180265742E0,5.398234661E0
1.609982746E1,-2.442644079E0,4.270819761E0,1.908401965E0,5.277159235E0
1.610986546E1,-1.105674420E0,5.014617167E0,2.645023376E0,5.776248775E0
1.611990246E1,-1.964880806E-1,5.529887259E0,3.403804564E0,6.496471825E0
1.612993946E1,7.500094696E-2,5.554128646E0,3.679490550E0,6.662778764E0
1.613997746E1,-3.476526386E-1,5.175616742E0,3.435263169E0,6.221648018E0
1.615001446E1,-9.679290757E-1,4.657477421E0,2.712338569E0,5.475925779E0
1.616005146E1,-9.514734028E-1,4.369103270E0,1.641606964E0,4.763322207E0
1.617008946E1,-3.882645480E-1,4.308049568E0,9.988900825E-1,4.439349258E0
1.618012646E1,1.174564195E-1,4.401299209E0,1.100752965E0,4.538379427E0
1.619016346E1,2.844423005E-1,4.522894397E0,1.829525073E0,4.887191744E0
1.620020046E1,5.901820241E-1,4.568595650E0,2.544012141E0,5.262354873E0
1.621023846E1,8.481662585E-1,4.644700086E0,2.944869472E0,5.564609698E0
1.622027546E1,1.046156708E0,4.731867453E0,3.020430701E0,5.710342815E0
1.623031246E1,1.463346993E0,4.692257245E0,2.939895245E0,5.727272171E0
1.624035046E1,1.965261314E0,4.650713362E0,2.921675906E0,5.833316116E0
1.625038746E1,2.285911218E0,4.634993123E0,3.077744524E0,6.015069634E0
1.626042446E1,2.501624213E0,4.600537820E0,3.481659071E0,6.288483269E0
1.627046246E1,2.779152656E0,4.619538932E0,3.800646320E0,6.596115666E0
1.628049946E1,3.208983233E0,4.582697965E0,4.045397319E0,6.903907118E0
1.629053646E1,3.754438991E0,4.374019609E0,4.171622332E0,7.115496649E0
1.630057446E1,4.298381489E0,4.153056253E0,4.058576943E0,7.224680371E0
1.631061146E1,4.554064735E0,4.035456467E0,3.930445737E0,7.243812407E0
1.632064846E1,4.329992414E0,3.817688615E0,3.943147936E0,6.990850900E0
1.633068646E1,3.917287163E0,3.365144529E0,4.028997633E0,6.549973919E0
1.634072346E1,3.664368773E0,2.731975858E0,3.963591263E0,6.049904652E0
1.635076046E1,3.650465556E0,2.172916553E0,3.534847392E0,5.526536999E0
1.636079846E1,3.750135148E0,1.714982504E0,3.099464884E0,5.158620085E0
1.637083546E1,3.783860133E0,1.397237788E0,2.828811597E0,4.926666824E0
1.638087246E1,3.625473972E0,1.094346755E0,2.731834940E0,4.669537288E0
1.639090946E1,3.389504029E0,8.180231309E-1,2.802776577E0,4.473640122E0
1.640094746E1,3.420443401E0,4.980050182E-1,2.919396369E0,4.524413467E0
1.641098446E1,3.611045675E0,1.492899406E-1,2.981959822E0,4.685512003E0
1.642102146E1,3.906434730E0,-1.483771902E-1,2.967378328E0,4.907910170E0
1.643105946E1,4.078936948E0,-4.219941384E-1,2.925163478E0,5.037101056E0
1.644109646E1,4.063456737E0,-6.526995403E-1,2.827665542E0,4.993334533E0
1.645113346E1,3.920447583E0,-8.903888565E-1,2.642324301E0,4.810881341E0
1.646117146E1,3.670548111E0,-1.203465739E0,2.450604625E0,4.574572794E0
1.647120846E1,3.503947488E0,-1.566383119E0,2.335496630E0,4.492855282E0
1.648124546E1,3.525970733E0,-1.907687436E0,2.198703359E0,4.572312044E0
1.649128346E1,3.559206600E0,-2.243885379E0,2.095563591E0,4.700463804E0
1.650132046E1,3.437903480E0,-2.502310091E0,1.971680972E0,4.687031255E0
1.651135746E1,3.166637405E0,-2.700220215E0,1.844506955E0,4.552031147E0
1.652139546E1,2.949335575E0,-2.838799226E0,1.764516606E0,4.457676551E0
1.653143246E1,2.851752563E0,-3.038923105E0,1.731492117E0,4.512827414E0
