"Time (s)","Linear Acceleration x (m/s^2)","Linear Acceleration y (m/s^2)","Linear Acceleration z (m/s^2)","Absolute acceleration (m/s^2)"
-1.971958322E-3,-7.876586862E-2,2.723381803E-2,-7.894735157E-2,1.147973311E-1
7.974041684E-3,-7.123750538E-2,3.167880970E-2,-6.876910329E-2,1.039592166E-1
1.791904168E-2,-6.018603025E-2,3.894457129E-2,-3.703450978E-2,8.068824440E-2
2.786504169E-2,-4.590267112E-2,6.094690832E-2,-4.332202077E-2,8.774040309E-2
3.781004169E-2,-5.252380688E-2,6.126557244E-2,-8.044540823E-2,1.139459712E-1
4.775604169E-2,-7.094656985E-2,5.873643697E-2,-5.260330617E-2,1.060683394E-1
5.770204167E-2,-6.733688263E-2,5.389176298E-2,3.032249093E-2,9.142226937E-2
6.764704167E-2,-6.718070716E-2,5.255184611E-2,5.262435615E-2,1.002210896E-1
7.759304167E-2,-7.660587975E-2,3.538288606E-2,-4.347638726E-2,9.492421023E-2
8.753804167E-2,-7.357087790E-2,1.946988052E-2,-8.898234308E-2,1.170880340E-1
9.748404167E-2,-8.256491426E-2,1.488734338E-2,-5.500300348E-2,1.003191330E-1
1.074290417E-1,-8.729576854E-2,2.447621175E-2,-1.982615411E-2,9.280470103E-2
1.173750417E-1,-8.913507418E-2,2.125591483E-2,-4.617195368E-2,1.026095740E-1
1.273210417E-1,-7.967733990E-2,2.798075644E-2,-6.757802546E-2,1.081581747E-1
1.372660417E-1,-6.001937547E-2,4.067756267E-2,-2.880864680E-2,7.801876484E-2
1.472120417E-1,-4.030372459E-2,5.848318858E-2,3.929913640E-2,8.117324488E-2
1.571570417E-1,-3.041378058E-2,6.295454068E-2,2.612594426E-2,7.463804127E-2
1.671030417E-1,-4.333243612E-2,4.995491948E-2,-5.156250179E-2,8.385633900E-2
1.770490417E-1,-6.490659251E-2,4.089718044E-2,-8.090207577E-2,1.114925602E-1
1.869940417E-1,-7.113794283E-2,3.124021143E-2,-3.824195981E-2,8.659679676E-2
1.969400417E-1,-7.349813945E-2,1.409531518E-2,-2.177736998E-2,7.794169780E-2
2.068850417E-1,-7.350544390E-2,8.341147917E-3,-5.710449278E-2,9.345345434E-2
2.168310417E-1,-5.556102428E-2,1.030839452E-2,-7.237274230E-2,9.182104467E-2
2.267770417E-1,-5.969506970E-2,2.099720980E-2,-1.040161192E-2,6.412938247E-2
2.367264167E-1,-6.371366459E-2,2.775582136E-2,4.064165711E-2,8.050814224E-2
2.466724167E-1,-6.247319606E-2,3.351746895E-2,1.474492371E-2,7.241362942E-2
2.566174167E-1,-6.722197571E-2,4.585315709E-2,-5.710566223E-2,9.941007339E-2
2.665634167E-1,-5.855334603E-2,5.754903649E-2,-7.357142150E-2,1.102412808E-1
2.765094167E-1,-4.552016272E-2,5.918396824E-2,-3.944297791E-2,8.444273691E-2
2.864544167E-1,-4.365353962E-2,5.546554564E-2,-4.318578064E-2,8.274702366E-2
2.964004167E-1,-5.516035753E-2,3.909252869E-2,-6.159749329E-2,9.146115034E-2
3.063454167E-1,-7.523888296E-2,2.014546234E-2,-5.216710389E-2,9.374505794E-2
3.162914167E-1,-1.025299672E-1,2.397560786E-2,3.730523586E-4,1.052965484E-1
3.262374167E-1,-1.025982517E-1,2.167118819E-2,3.360336363E-2,1.101146116E-1
3.361824167E-1,-9.260676711E-2,2.132324003E-2,-1.250193179E-2,9.584879852E-2
3.461284167E-1,-8.205328289E-2,2.852423914E-2,-6.983271182E-2,1.114584276E-1
3.560734167E-1,-6.808681545E-2,3.869024482E-2,-6.384574771E-2,1.010397396E-1
3.660194167E-1,-5.202993186E-2,5.223184353E-2,-4.258994937E-2,8.514213455E-2
3.759654167E-1,-4.850881169E-2,5.706919479E-2,-4.378804386E-2,8.676053590E-2
3.859104167E-1,-4.738820194E-2,5.644136371E-2,-6.175127506E-2,9.614826672E-2
3.958564167E-1,-5.983011754E-2,4.857815601E-2,-4.109481633E-2,8.733993437E-2
4.058014167E-1,-6.471579969E-2,3.618330593E-2,3.511837721E-3,7.422734915E-2
4.157474167E-1,-6.708259271E-2,2.689180845E-2,1.773109674E-2,7.441529008E-2
4.256934167E-1,-6.046193660E-2,9.586460955E-3,-3.540898383E-2,7.072016789E-2
4.356384167E-1,-6.077200348E-2,5.708837069E-3,-7.642369330E-2,9.780801667E-2
4.455844167E-1,-7.317528635E-2,1.217392811E-2,-5.741381049E-2,9.380390553E-2
4.555294167E-1,-7.397131624E-2,2.246069935E-2,-2.972139716E-2,8.282270275E-2
4.654754167E-1,-6.363052449E-2,2.080641698E-2,-5.112746894E-2,8.423638593E-2
4.754214167E-1,-6.018822296E-2,3.691325771E-2,-5.082750678E-2,8.699796678E-2
4.853664167E-1,-4.932009915E-2,4.710399528E-2,-1.849474311E-2,7.066338567E-2
4.953124167E-1,-3.480506923E-2,5.020386012E-2,1.069397271E-2,6.201758998E-2
5.052574167E-1,-4.012286291E-2,5.418531148E-2,5.305178761E-3,6.763162744E-2
5.152034167E-1,-5.816754400E-2,4.637513072E-2,-4.244610786E-2,8.564921480E-2
5.251494167E-1,-7.209382097E-2,2.826506359E-2,-6.624719918E-2,1.019074298E-1
5.350944167E-1,-8.739966625E-2,1.970234161E-2,-4.529077828E-2,1.003899324E-1
5.450404167E-1,-7.861840915E-2,2.100413509E-2,-3.915412545E-2,9.030544551E-2
5.549854167E-1,-7.577758511E-2,1.356532904E-2,-4.409443796E-2,8.871628946E-2
5.649314167E-1,-6.537479460E-2,2.124894157E-2,-5.142860055E-2,8.585034794E-2
5.748774167E-1,-6.593138101E-2,3.060521980E-2,3.058678508E-3,7.275288307E-2
5.848224167E-1,-6.079735208E-2,4.096086484E-2,2.206914604E-2,7.655819796E-2
5.947684167E-1,-5.807474686E-2,4.734238809E-2,-6.671673059E-3,7.522292971E-2
6.047134167E-1,-5.904634853E-2,4.867162923E-2,-5.008198678E-2,9.145274281E-2
6.146594167E-1,-5.839391804E-2,6.167782398E-2,-6.729677439E-2,1.083644752E-1
6.246054167E-1,-5.325728984E-2,4.865173956E-2,-5.113097727E-2,8.841780092E-2
6.345504167E-1,-5.074416569E-2,3.809107652E-2,-3.885708690E-2,7.440277995E-2
6.444964167E-1,-5.776384857E-2,1.842715067E-2,-4.110300243E-2,7.325079448E-2
6.544414167E-1,-7.124605693E-2,9.561499511E-3,-2.987693310E-2,7.784634887E-2
6.643874167E-1,-8.000730559E-2,1.779078859E-2,7.994313240E-3,8.235041075E-2
6.743334167E-1,-7.890844018E-2,1.844090647E-2,2.445948780E-2,8.464558764E-2
6.842784167E-1,-7.829862127E-2,1.105541743E-2,-2.299183667E-2,8.234999029E-2
6.942244167E-1,-5.443524341E-2,2.654565328E-2,-5.218113720E-2,7.994209475E-2
7.041694167E-1,-3.563175589E-2,3.917027839E-2,-6.011463940E-2,8.011056489E-2
7.141154167E-1,-3.735299345E-2,4.186108937E-2,-4.589479566E-2,7.248399266E-2
7.240614167E-1,-3.761414929E-2,4.684469868E-2,-4.619475782E-2,7.578394072E-2
7.340064167E-1,-4.883246878E-2,3.713105279E-2,-4.754254103E-2,7.761197263E-2
7.439524167E-1,-5.808840102E-2,3.803360250E-2,-2.194635451E-2,7.281799042E-2
7.538974167E-1,-7.142262457E-2,2.968874868E-2,1.846901536E-2,7.952180599E-2
7.638434167E-1,-7.114031826E-2,2.166796766E-2,6.643021703E-3,7.466307951E-2
7.737894167E-1,-6.891955032E-2,1.267864789E-2,-3.766542435E-2,7.955712866E-2
7.837344167E-1,-6.373811326E-2,1.818823595E-2,-4.979079545E-2,8.290043619E-2
7.936804167E-1,-7.368993269E-2,2.228705532E-2,-4.709639847E-2,9.024959703E-2
8.036254167E-1,-7.271722096E-2,2.507442759E-2,-3.811507523E-2,8.584451119E-2
8.135714167E-1,-6.914282260E-2,3.681386875E-2,-5.308453202E-2,9.462535806E-2
8.235174167E-1,-5.232845963E-2,5.091838530E-2,-4.350445390E-2,8.499168876E-2
8.334624167E-1,-4.260344365E-2,5.754449119E-2,-1.296853960E-2,7.276403574E-2
8.434084167E-1,-4.120424149E-2,5.039250134E-2,9.519267082E-4,6.510069026E-2
8.533534167E-1,-4.965914173E-2,4.075994446E-2,-9.975934625E-3,6.501478833E-2
8.632994167E-1,-7.070571939E-2,2.903666765E-2,-3.212986529E-2,8.291414274E-2
8.732454167E-1,-8.202382755E-2,1.962191727E-2,-5.937321246E-2,1.031411958E-1
8.831904167E-1,-7.922746975E-2,1.225866592E-2,-4.051243365E-2,8.982496386E-2
8.931364167E-1,-6.787488129E-2,1.280469536E-2,-3.677138507E-2,7.825020443E-2
9.030814167E-1,-6.159641521E-2,1.618750490E-2,-5.069243610E-2,8.139948869E-2
9.130274167E-1,-4.966342664E-2,1.480036605E-2,-3.991484821E-2,6.541178708E-2
9.229734167E-1,-4.487080658E-2,2.665850683E-2,-1.371932209E-2,5.396559152E-2
9.329184167E-1,-3.740513189E-2,3.764057368E-2,3.194918633E-3,5.316167965E-2
9.428644167E-1,-4.610776221E-2,4.590686011E-2,-1.656457722E-2,6.713978522E-2
9.528094167E-1,-5.077576806E-2,4.004874031E-2,-4.590415120E-2,7.930492620E-2
9.627554167E-1,-3.938123953E-2,3.599069042E-2,-4.829917073E-2,7.196542029E-2
9.727004167E-1,-4.176388398E-2,2.965987349E-2,-4.829975545E-2,7.040452029E-2
9.826464167E-1,-5.031089614E-2,2.739558034E-2,-3.767302573E-2,6.856355417E-2
9.925924167E-1,-6.916943656E-2,1.128610036E-2,-5.024687827E-2,8.623535117E-2
1.002537417E0,-7.837310932E-2,1.121189098E-2,-3.243450522E-2,8.555727843E-2
1.012483417E0,-7.200259527E-2,1.764326974E-2,-7.286800146E-3,7.448997348E-2
1.022429417E0,-7.044338040E-2,1.765577730E-2,4.736244678E-5,7.262230069E-2
1.032374417E0,-6.108992300E-2,2.933235632E-2,-1.492150962E-2,6.939032547E-2
1.042320417E0,-5.242686644E-2,4.247027331E-2,-4.051769614E-2,7.870186872E-2
1.052265417E0,-3.960241503E-2,4.199352424E-2,-4.890084922E-2,7.565117586E-2
1.062211417E0,-4.676884933E-2,4.430461795E-2,-3.542944908E-2,7.352190355E-2
1.072156417E0,-6.219736737E-2,4.095809655E-2,-4.755423546E-2,8.835996543E-2
1.082102417E0,-6.030877610E-2,3.610171900E-2,-4.740571618E-2,8.478080275E-2
1.092048417E0,-7.135525825E-2,3.035627231E-2,-2.345610559E-2,8.101398051E-2
1.101993417E0,-5.950395254E-2,2.541060594E-2,-3.098439574E-3,6.477669018E-2
1.111939417E0,-5.404911247E-2,1.899517569E-2,-6.690968871E-3,5.767921916E-2
1.121884417E0,-6.039209435E-2,1.363779682E-2,-2.689894617E-2,6.750368781E-2
1.131830417E0,-6.110659213E-2,1.869497027E-2,-3.513182580E-2,7.292299157E-2
1.141776417E0,-6.516830566E-2,3.129855796E-2,-4.261684656E-2,8.392081627E-2
1.151721417E0,-6.467579652E-2,3.695782903E-2,-5.384350061E-2,9.191279748E-2
1.161667417E0,-4.723779146E-2,3.898462472E-2,-4.605968714E-2,7.663357414E-2
1.171613417E0,-4.138314801E-2,4.974546582E-2,-4.531182826E-2,7.899581058E-2
1.181558417E0,-3.170200899E-2,3.653843520E-2,-1.687097132E-2,5.123186795E-2
1.191504417E0,-3.204568366E-2,3.601061664E-2,3.337005973E-3,4.832003684E-2
1.201449417E0,-4.349364112E-2,2.787408815E-2,-6.093383431E-3,5.201721762E-2
1.211395417E0,-6.282873418E-2,1.639514501E-2,-2.645163417E-2,7.011376162E-2
1.221340417E0,-7.143182937E-2,6.555055368E-3,-3.887638271E-2,8.158950993E-2
1.231286042E0,-6.384721408E-2,1.245771564E-2,-4.052295864E-2,7.664053498E-2
1.241232042E0,-5.594122577E-2,1.654565486E-2,-4.591233730E-2,7.423693254E-2
1.251177042E0,-4.815707426E-2,2.009015590E-2,-5.204957485E-2,7.370126462E-2
1.261123042E0,-4.885175545E-2,2.684193810E-2,-3.947572231E-2,6.830312075E-2
1.271069042E0,-4.624402061E-2,3.266529665E-2,-8.789534569E-3,5.729561035E-2
1.281014042E0,-4.150505332E-2,4.257126112E-2,-2.578622103E-4,5.945627147E-2
1.290960042E0,-5.019272757E-2,3.889590693E-2,-2.016646206E-2,6.662497781E-2
1.300905042E0,-4.848599841E-2,4.427531792E-2,-3.543471158E-2,7.461108901E-2
1.310851042E0,-5.465090060E-2,4.065906629E-2,-4.022533536E-2,7.910725764E-2
1.320796042E0,-5.048385495E-2,2.598816924E-2,-5.175136685E-2,7.682583239E-2
1.330742042E0,-5.622049428E-2,2.222599988E-2,-4.741097867E-2,7.682798934E-2
1.340688042E0,-6.497317311E-2,1.069474701E-2,-3.872903287E-2,7.639259667E-2
1.350633042E0,-7.002681197E-2,1.362818889E-2,-2.555642545E-2,7.578002909E-2
1.360579042E0,-6.942607908E-2,1.897231445E-2,-1.777319670E-2,7.413376891E-2
1.370524042E0,-5.486969610E-2,3.079174369E-2,-2.061728239E-2,6.621093084E-2
1.380470042E0,-4.278637927E-2,3.589709157E-2,-2.256323576E-2,6.023599458E-2
1.390416042E0,-3.167752606E-2,3.846794099E-2,-3.124518156E-2,5.881759526E-2
1.400361042E0,-3.095380750E-2,4.283048464E-2,-4.531650603E-2,6.961446927E-2
1.410307042E0,-4.017922458E-2,3.543095657E-2,-5.384876311E-2,7.595664592E-2
1.420253042E0,-4.985468998E-2,2.929207906E-2,-4.801148772E-2,7.515729480E-2
1.430198042E0,-6.124572845E-2,1.950799249E-2,-4.232331634E-2,7.696014638E-2
1.440144042E0,-6.031694393E-2,1.715153946E-2,-2.870164275E-2,6.896443523E-2
1.450089042E0,-5.521622128E-2,7.176704613E-3,-9.691175222E-3,5.651774110E-2
1.460035042E0,-5.355992893E-2,1.383244173E-2,-1.907946467E-3,5.535018239E-2
1.469981042E0,-4.933333762E-2,1.631726627E-2,-1.777495086E-2,5.491794112E-2
1.479926042E0,-5.473559386E-2,2.077926397E-2,-3.424071014E-2,6.782469519E-2
1.489872042E0,-5.161874469E-2,2.754786376E-2,-5.190397918E-2,7.821382651E-2
1.499817042E0,-3.746595892E-2,3.232048680E-2,-4.726362884E-2,6.842632941E-2
1.509763042E0,-3.978822401E-2,3.735243386E-2,-4.187483490E-2,6.878814493E-2
1.519709042E0,-3.926381556E-2,3.933971060E-2,-2.960035980E-2,6.297175035E-2
1.529654042E0,-3.565167297E-2,3.185463959E-2,-2.705565155E-2,5.493421638E-2
1.539600042E0,-4.594026233E-2,3.212330773E-2,-1.088985443E-2,5.710519706E-2
1.549545042E0,-6.235574012E-2,2.187330999E-2,-1.014199555E-2,6.685461906E-2
1.559491042E0,-7.097280923E-2,1.378332740E-2,-2.630837739E-2,7.693666542E-2
1.569437042E0,-7.135774788E-2,1.215992791E-2,-4.007973969E-2,8.274163138E-2
1.579382042E0,-6.235641620E-2,1.489903439E-2,-4.906047821E-2,8.072938987E-2
1.589328042E0,-5.339648555E-2,1.974500115E-2,-4.786296844E-2,7.437683435E-2
1.599273042E0,-3.534192586E-2,3.580485403E-2,-3.514001191E-2,6.136660111E-2
1.609219042E0,-4.272026462E-2,3.844281624E-2,-2.256615937E-2,6.174222767E-2
1.619165042E0,-4.268109284E-2,3.566513755E-2,-2.166861176E-2,5.969259970E-2
1.629110042E0,-4.770188679E-2,4.193382782E-2,-2.092016816E-2,6.686979404E-2
1.639056042E0,-4.849908612E-2,4.180662804E-2,-1.762760103E-2,6.641300942E-2
1.649001042E0,-5.138401553E-2,2.869895440E-2,-2.436359346E-2,6.369875762E-2
1.658947042E0,-4.059010112E-2,2.877236665E-2,-3.588962495E-2,6.134713172E-2
1.668893042E0,-5.142827164E-2,1.497704218E-2,-3.948273897E-2,6.654371190E-2
1.678838042E0,-5.015261932E-2,1.388653875E-2,-3.858460665E-2,6.478343194E-2
1.688784042E0,-5.352033231E-2,1.270382290E-2,-3.678834200E-2,6.617548787E-2
1.698729042E0,-5.549387266E-2,1.859987879E-2,-2.675861299E-2,6.435486589E-2
1.708675042E0,-4.846589861E-2,2.365354505E-2,-6.251258254E-3,5.429099143E-2
1.718621042E0,-3.401234896E-2,2.060495756E-2,-7.149390578E-3,4.040442975E-2
1.728566042E0,-3.037914040E-2,3.728839314E-2,-2.226853609E-2,5.300192576E-2
1.738512042E0,-3.542544739E-2,3.061602116E-2,-2.975297213E-2,5.547560207E-2
1.748457042E0,-4.267140839E-2,3.395196504E-2,-3.918394625E-2,6.714883966E-2
1.758403042E0,-3.941643246E-2,3.134652112E-2,-3.933363497E-2,6.390144266E-2
1.768349042E0,-5.262050064E-2,2.889984966E-2,-3.753737032E-2,7.080376098E-2
1.778294042E0,-6.871881723E-2,1.892709103E-2,-2.661009371E-2,7.608290021E-2
1.788240042E0,-5.711877278E-2,1.679121964E-2,-2.481382906E-2,6.449980910E-2
1.798185042E0,-4.884266029E-2,1.222474978E-2,-7.749314904E-3,5.094214221E-2
1.808131042E0,-4.721432037E-2,1.717815228E-2,-1.568340182E-2,5.263316499E-2
1.818077042E0,-4.752048149E-2,2.708614158E-2,-2.197032809E-2,5.894531825E-2
1.828022042E0,-4.261384530E-2,3.089659843E-2,-2.511379123E-2,5.832016903E-2
1.837968042E0,-4.342926236E-2,3.860617282E-2,-3.993355930E-2,7.050692567E-2
1.847913042E0,-4.783849693E-2,3.695971567E-2,-3.903601170E-2,7.196077112E-2
1.857859042E0,-4.769839216E-2,3.742241543E-2,-4.083227634E-2,7.309479177E-2
1.867805042E0,-3.423442210E-2,2.650001531E-2,-2.750998020E-2,5.129371773E-2
1.877750042E0,-3.655326109E-2,2.387205276E-2,-1.987585545E-2,4.796942181E-2
1.887696042E0,-5.152649573E-2,2.217403047E-2,-8.798890114E-3,5.678105192E-2
1.897641042E0,-6.179257559E-2,1.863914421E-2,-1.688266575E-2,6.671405023E-2
1.907587042E0,-6.685966761E-2,1.900929352E-2,-2.451679051E-2,7.370645433E-2
1.917533042E0,-5.604407738E-2,1.924664936E-2,-3.768939793E-2,7.022722291E-2
1.927478042E0,-4.728593049E-2,1.484564543E-2,-3.694095433E-2,6.181412878E-2
1.937424042E0,-3.548998375E-2,1.962198350E-2,-3.798877537E-2,5.556715071E-2
1.947369042E0,-3.013839957E-2,3.247017781E-2,-3.319873631E-2,5.536056058E-2
1.957315042E0,-3.133988818E-2,2.967044416E-2,-4.023410618E-2,5.900260289E-2
1.967261042E0,-4.040053256E-2,3.862977182E-2,-2.107394993E-2,5.973753985E-2
1.977206042E0,-5.630054174E-2,3.764003464E-2,-1.912799656E-2,7.037331498E-2
1.987152042E0,-4.693464073E-2,2.846626491E-2,-2.227145970E-2,5.923855717E-2
1.997097042E0,-4.002572604E-2,1.992408812E-2,-2.571430027E-2,5.157764313E-2
2.007043042E0,-4.306533714E-2,1.872348230E-2,-3.739002049E-2,6.002670809E-2
2.016989042E0,-5.368015773E-2,1.597681328E-2,-3.155274510E-2,6.428369638E-2
2.026934042E0,-5.448627407E-2,1.599499446E-2,-3.993531346E-2,6.942206545E-2
2.036880042E0,-5.999370254E-2,2.328378632E-2,-2.766142309E-2,7.004665143E-2
2.046826042E0,-5.966567831E-2,2.660128406E-2,-2.721235693E-2,7.076816976E-2
2.056771042E0,-5.090736696E-2,3.085416272E-2,-1.553722143E-2,6.152190356E-2
2.066717042E0,-4.429149826E-2,3.920579108E-2,-2.107511938E-2,6.279324430E-2
2.076662042E0,-3.379266267E-2,3.825593831E-2,-2.242231786E-2,5.575142334E-2
2.086608042E0,-3.928199675E-2,3.416400883E-2,-3.754146338E-2,6.418423670E-2
2.096553042E0,-4.064483654E-2,3.921054651E-2,-3.903835058E-2,6.865466125E-2
2.106499042E0,-4.334677094E-2,2.969717690E-2,-3.843959570E-2,6.510351284E-2
2.116445042E0,-6.178014112E-2,1.834383470E-2,-4.188243628E-2,7.685974614E-2
2.126390042E0,-5.109614979E-2,1.566978192E-2,-3.379924536E-2,6.323565115E-2
2.136336042E0,-5.136817780E-2,7.177835227E-3,-2.077691138E-2,5.587388527E-2
2.146282042E0,-4.374828279E-2,1.482361673E-2,-2.571663916E-2,5.286773486E-2
2.156227042E0,-3.997951019E-2,1.757824916E-2,-2.407006323E-2,4.986706350E-2
2.166173042E0,-4.482964310E-2,2.300883471E-2,-2.721352637E-2,5.726848516E-2
2.176118042E0,-4.054923913E-2,2.890720664E-2,-3.230294287E-2,5.935779231E-2
2.186064042E0,-3.360188812E-2,2.951839828E-2,-4.158422828E-2,6.107103048E-2
2.196010042E0,-4.181199560E-2,2.833917248E-2,-4.188360572E-2,6.561698028E-2
2.205955042E0,-3.794254582E-2,2.788129667E-2,-4.068551123E-2,6.222792228E-2
2.215901042E0,-3.581855387E-2,2.337789451E-2,-2.960913062E-2,5.202110504E-2
2.225846042E0,-4.294995970E-2,2.097675368E-2,-2.017874122E-2,5.188356994E-2
2.235792167E0,-4.460484050E-2,8.909857019E-3,-1.598687232E-2,4.821366439E-2
2.245738167E0,-4.780015656E-2,3.239413431E-3,-2.137566626E-2,5.246206129E-2
2.255683167E0,-5.184911585E-2,1.486462489E-2,-2.796255469E-2,6.075518375E-2
2.265629167E0,-5.189450487E-2,2.027560857E-2,-4.278173804E-2,7.024540589E-2
2.275574167E0,-3.752539952E-2,2.438641587E-2,-4.727239966E-2,6.509633368E-2
2.285520167E0,-3.673156005E-2,2.637081468E-2,-5.266119361E-2,6.941058049E-2
2.295466167E0,-3.371755336E-2,3.781868992E-2,-4.128485084E-2,6.535721552E-2
2.305411167E0,-3.311695295E-2,2.670153868E-2,-2.287313819E-2,4.829995022E-2
2.315357167E0,-5.217676093E-2,2.878523053E-2,-1.613714576E-2,6.173662892E-2
2.325302167E0,-4.994206017E-2,2.110748006E-2,-2.571780860E-2,6.000950565E-2
2.335248167E0,-4.257620841E-2,2.696347796E-2,-2.466998756E-2,5.611034622E-2
2.345194167E0,-4.323244873E-2,2.478093848E-2,-3.275317848E-2,5.963145341E-2
2.355139167E0,-4.820639187E-2,1.316807126E-2,-3.874131203E-2,6.323087517E-2
2.365085167E0,-4.384612315E-2,1.185881687E-2,-3.589722633E-2,5.789408356E-2
2.375030167E0,-4.834435418E-2,2.066157048E-2,-4.667481422E-2,7.030373645E-2
2.384976167E0,-4.584719567E-2,1.692215958E-2,-3.724384010E-2,6.144451530E-2
2.394922167E0,-4.512787851E-2,2.365712190E-2,-2.706500709E-2,5.769488230E-2
2.404867167E0,-3.269316229E-2,3.016898096E-2,-1.628741920E-2,4.737394112E-2
2.414813167E0,-2.470892179E-2,3.249535966E-2,-1.419236183E-2,4.321923588E-2
2.424758167E0,-2.877206744E-2,2.396171615E-2,-2.586808205E-2,4.550992611E-2
2.434704167E0,-2.967498489E-2,2.932122377E-2,-3.754380226E-2,5.612375593E-2
2.444650167E0,-4.988735216E-2,1.776414950E-2,-4.368103981E-2,6.864653052E-2
2.454595167E0,-5.240004691E-2,1.266889035E-2,-4.487854958E-2,7.014520590E-2
2.464541167E0,-5.110786250E-2,1.240491826E-2,-5.146485329E-2,7.358346778E-2
2.474486167E0,-5.006932391E-2,9.366284735E-3,-2.931092262E-2,5.876899413E-2
2.484432167E0,-3.628943061E-2,1.442207290E-2,-1.269488990E-2,4.106189462E-2
2.494378167E0,-3.862540925E-2,2.160264101E-2,-1.479053199E-2,4.666214927E-2
2.504323167E0,-3.881032744E-2,2.712003030E-2,-1.703586280E-2,5.031856697E-2
2.514269167E0,-3.483796667E-2,3.009083841E-2,-1.987936378E-2,5.014311101E-2
2.524214167E0,-3.425775843E-2,3.548776592E-2,-3.050726295E-2,5.799714333E-2
2.534160167E0,-4.327472228E-2,3.536675825E-2,-4.233267188E-2,7.011108533E-2
2.544106167E0,-4.536347562E-2,2.176395107E-2,-4.861959815E-2,6.996699086E-2
2.554051167E0,-5.029671208E-2,2.648738441E-2,-4.158422828E-2,7.043144766E-2
2.563997167E0,-4.404119175E-2,1.876430774E-2,-3.095632911E-2,5.700894779E-2
2.573943167E0,-5.127304634E-2,1.725982944E-2,-1.463908911E-2,5.604578417E-2
2.583888167E0,-5.000072876E-2,1.385186430E-2,-1.868068457E-2,5.514449199E-2
2.593834167E0,-5.893735735E-2,1.430462837E-2,-2.391920507E-2,6.519480696E-2
2.603779167E0,-5.069318527E-2,2.092846161E-2,-3.050609350E-2,6.275684249E-2
2.613725167E0,-4.065319623E-2,2.800684735E-2,-3.858928442E-2,6.265938664E-2
2.623671167E0,-3.285908389E-2,3.219106006E-2,-4.068492651E-2,6.141047945E-2
2.633616167E0,-3.081646188E-2,3.812938035E-2,-3.514644384E-2,6.032227187E-2
2.643562167E0,-3.040083448E-2,3.177646962E-2,-4.053582251E-2,5.980892630E-2
2.653507167E0,-4.370112134E-2,2.827463841E-2,-2.466823339E-2,5.760004273E-2
2.663453167E0,-4.488167875E-2,1.661921900E-2,-1.419002295E-2,4.991913740E-2
2.673399167E0,-4.558452778E-2,1.856059966E-2,-1.523842871E-2,5.152334172E-2
2.683344167E0,-4.806280161E-2,9.864773573E-3,-2.601601660E-2,5.553539210E-2
2.693290167E0,-4.307630067E-2,1.601697862E-2,-1.269372046E-2,4.767852580E-2
2.703235167E0,-4.138667005E-2,1.252841785E-2,-4.113399267E-2,5.968101092E-2
2.713181167E0,-3.693435794E-2,1.759449345E-2,-3.709239721E-2,5.522281166E-2
2.723127167E0,-4.035370915E-2,1.867113488E-2,-3.769115210E-2,5.828941642E-2
2.733072167E0,-4.058729171E-2,1.846372546E-2,-2.227321386E-2,4.984308841E-2
2.743018167E0,-4.291534692E-2,2.950584047E-2,-2.287255347E-2,5.688123878E-2
2.752963167E0,-3.018838869E-2,3.530892563E-2,-2.152535498E-2,5.119960887E-2
2.762909167E0,-3.382134829E-2,2.623832957E-2,-1.838247657E-2,4.658593118E-2
2.772855167E0,-4.205661478E-2,1.813043873E-2,-1.703527808E-2,4.886381437E-2
2.782800167E0,-4.145098942E-2,2.460475228E-2,-2.092718482E-2,5.255021810E-2
2.792746167E0,-5.057894530E-2,1.926382327E-2,-3.394951880E-2,6.388970513E-2
2.802691167E0,-5.505413921E-2,1.057645052E-2,-4.562523901E-2,7.228057820E-2
2.812637167E0,-6.075298176E-2,1.346173168E-2,-4.038613379E-2,7.418344030E-2
2.822583167E0,-4.634074178E-2,1.278007424E-2,-2.781169653E-2,5.553634045E-2
2.832528167E0,-4.427608080E-2,1.623818153E-2,-2.751231909E-2,5.459832939E-2
2.842474167E0,-3.903520770E-2,3.131380869E-2,-2.811048925E-2,5.739774961E-2
2.852419167E0,-3.886206160E-2,2.580511027E-2,-2.541550756E-2,5.312355007E-2
2.862365167E0,-3.779300328E-2,3.124011550E-2,-2.137449682E-2,5.348948521E-2
2.872311167E0,-4.119321857E-2,3.308625278E-2,-3.589371800E-2,6.387441093E-2
2.882256167E0,-4.862205124E-2,2.031749610E-2,-3.768998265E-2,6.478764780E-2
2.892202167E0,-3.979938397E-2,1.725495752E-2,-5.131224096E-2,6.719129851E-2
2.902148167E0,-3.982627203E-2,1.294914785E-2,-4.277939916E-2,5.986559418E-2
2.912093167E0,-3.950055928E-2,1.799369840E-2,-3.095399022E-2,5.331244579E-2
2.922039167E0,-4.097018384E-2,1.256740690E-2,-2.197266698E-2,4.815904665E-2
2.931984167E0,-4.557398451E-2,1.851538424E-2,-2.541609228E-2,5.536953372E-2
2.941930167E0,-5.096995044E-2,1.050033394E-2,-3.754029393E-2,6.416748810E-2
2.951876167E0,-4.875674277E-2,1.661267971E-2,-2.691239476E-2,5.811607423E-2
2.961821167E0,-3.773390758E-2,2.069720195E-2,-3.753970921E-2,5.710912114E-2
2.971767167E0,-3.212962318E-2,2.559021596E-2,-3.843784153E-2,5.625512866E-2
2.981712167E0,-2.830040499E-2,1.828696139E-2,-3.334784031E-2,4.740679627E-2
2.991658167E0,-3.907012198E-2,2.375546476E-2,-3.768881321E-2,5.925574384E-2
3.001604167E0,-4.076666419E-2,2.721443543E-2,-2.915597141E-2,5.703171989E-2
3.011549167E0,-5.182300438E-2,6.574008570E-3,-1.822869480E-2,5.532744966E-2
3.021495167E0,-4.365153878E-2,1.287944493E-2,-4.307643771E-3,4.571534463E-2
3.031440167E0,-4.049812167E-2,1.086845728E-2,-1.733056247E-2,4.537146260E-2
3.041386167E0,-3.641296674E-2,1.545285707E-2,-2.960503757E-2,4.940802757E-2
3.051332167E0,-5.047450854E-2,2.323489583E-2,-3.259881198E-2,6.442219291E-2
3.061277167E0,-4.594060494E-2,2.370281698E-2,-4.202920139E-2,6.662444359E-2
3.071223167E0,-4.093217237E-2,2.495211115E-2,-4.622048557E-2,6.659116962E-2
3.081168167E0,-3.538282667E-2,2.398502736E-2,-3.978328586E-2,5.839465553E-2
3.091114167E0,-4.333817370E-2,2.582944703E-2,-3.768764377E-2,6.297393212E-2
3.101060167E0,-2.993541896E-2,2.270188558E-2,-2.451503634E-2,4.486080610E-2
3.111005167E0,-3.752029463E-2,2.564582618E-2,-1.867717624E-2,4.913570821E-2
3.120951167E0,-4.181750477E-2,1.685607234E-2,-2.795787692E-2,5.305161413E-2
3.130896167E0,-5.338781522E-2,1.403308459E-2,-2.975414157E-2,6.270961025E-2
3.140842167E0,-4.897126249E-2,5.280880840E-3,-3.559200168E-2,6.076892985E-2
3.150788167E0,-4.816860880E-2,1.282134736E-2,-3.963359714E-2,6.368220979E-2
3.160733167E0,-5.149199259E-2,1.144789351E-2,-3.888515353E-2,6.553269971E-2
3.170679167E0,-3.348404160E-2,1.654546414E-2,-3.110134006E-2,4.860274456E-2
3.180624167E0,-2.940395045E-2,2.187423504E-2,-2.361690402E-2,4.359853915E-2
3.190570167E0,-3.383143702E-2,2.084403787E-2,-3.394601047E-2,5.226252646E-2
3.200516167E0,-3.584081441E-2,2.707232981E-2,-2.002495944E-2,4.917798308E-2
3.210461167E0,-3.570590818E-2,2.191487547E-2,-2.137157321E-2,4.703103005E-2
3.220407167E0,-3.692492245E-2,2.340955627E-2,-3.095165133E-2,5.356735893E-2
3.230353167E0,-4.197236462E-2,1.406925282E-2,-4.262678683E-2,6.145458667E-2
3.240298417E0,-4.001154654E-2,7.595199659E-3,-3.080137789E-2,5.106207785E-2
3.250244417E0,-3.377852886E-2,8.973717294E-3,-3.663923800E-2,5.063546558E-2
3.260189417E0,-3.521650765E-2,1.122078628E-2,-3.559141695E-2,5.131137707E-2
3.270135417E0,-4.464728763E-2,3.325517108E-3,-2.870573580E-2,5.318325511E-2
3.280081417E0,-4.758375933E-2,1.532936434E-2,-2.616102755E-2,5.642342532E-2
3.290026417E0,-3.416321626E-2,2.473521599E-2,-2.780760348E-2,5.051949195E-2
3.299972417E0,-3.644674583E-2,3.181148211E-2,-2.975355685E-2,5.679445238E-2
3.309917417E0,-3.471533046E-2,2.918080609E-2,-1.553371310E-2,4.793714484E-2
3.319863417E0,-2.739588184E-2,2.844052574E-2,-4.322612643E-2,5.854823526E-2
3.329809417E0,-4.239071006E-2,2.829097407E-2,-2.900569797E-2,5.864027650E-2
3.339754417E0,-4.690253587E-2,1.942953473E-2,-2.346721530E-2,5.592910588E-2
3.349700417E0,-4.533208338E-2,1.975109733E-2,-3.065227389E-2,5.817787830E-2
3.359645417E0,-5.085078601E-2,8.384895825E-3,-3.828581393E-2,6.420212196E-2
3.369591417E0,-5.779225782E-2,7.292517170E-3,-2.466472507E-2,6.325720934E-2
3.379537417E0,-4.282274164E-2,6.331088736E-3,-2.556285739E-2,5.027255279E-2
3.389482417E0,-2.937251025E-2,1.782519124E-2,-3.080137789E-2,4.614332759E-2
3.399428417E0,-3.397654390E-2,1.665746572E-2,-2.391628146E-2,4.476455315E-2
3.409373417E0,-4.143633027E-2,1.878086610E-2,-2.825666964E-2,5.355492299E-2
3.419319417E0,-4.830276129E-2,2.168381224E-2,-4.068141818E-2,6.677066906E-2
3.429265417E0,-3.566124322E-2,1.857480200E-2,-3.933363497E-2,5.624839889E-2
3.439210417E0,-3.408069286E-2,2.758381044E-2,-4.217772067E-2,6.083847750E-2
3.449156417E0,-2.900578476E-2,2.548246959E-2,-3.678892672E-2,5.333026285E-2
3.459101417E0,-3.044915624E-2,2.598966759E-2,-9.694683552E-3,4.118981459E-2
3.469047417E0,-4.270857933E-2,8.595345339E-3,-1.897538424E-2,4.751807989E-2
3.478993417E0,-5.287877399E-2,1.070527656E-2,-1.807666719E-2,5.689932848E-2
3.488938417E0,-5.299855054E-2,1.318647172E-2,-2.241764009E-2,5.903625990E-2
3.498884417E0,-4.999538861E-2,1.016356629E-2,-2.885483980E-2,5.861261589E-2
3.508829417E0,-3.728445541E-2,1.946391910E-2,-4.517091036E-2,6.172022282E-2
3.518775417E0,-2.655925491E-2,2.527837208E-2,-3.753678560E-2,5.247285384E-2
3.528721417E0,-3.091224658E-2,2.957758307E-2,-3.080020845E-2,5.271672647E-2
3.538666417E0,-2.258708372E-2,2.489366640E-2,-3.214740694E-2,4.651157652E-2
3.548612417E0,-3.237804990E-2,2.655237758E-2,-2.541199923E-2,4.898098177E-2
3.558558417E0,-4.360862113E-2,2.348221935E-2,-1.747849703E-2,5.252260771E-2
3.568503417E0,-3.839973870E-2,1.713674555E-2,-2.750764132E-2,5.024816724E-2
3.578449417E0,-3.523534893E-2,1.551929835E-2,-3.050200045E-2,4.911975638E-2
3.588394417E0,-4.108856712E-2,1.370329249E-2,-3.918336153E-2,5.840707486E-2
3.598340417E0,-4.185725670E-2,6.366740763E-3,-4.097962618E-2,5.892278921E-2
3.608286417E0,-3.875691678E-2,8.122017800E-3,-4.696717501E-2,6.143273801E-2
3.618231417E0,-4.960226842E-2,1.253382424E-2,-3.080079317E-2,5.971742327E-2
3.628177417E0,-4.230261354E-2,1.925733880E-2,-2.840518892E-2,5.447211183E-2
3.638122417E0,-3.548909068E-2,2.331642337E-2,-3.514118135E-2,5.511836158E-2
3.648068417E0,-3.294532347E-2,2.590389853E-2,-1.643009126E-2,4.501504411E-2
3.658014417E0,-2.176899201E-2,2.479564103E-2,-2.226853609E-2,3.980704117E-2
3.667959417E0,-2.420198647E-2,1.918459578E-2,-3.873429537E-2,4.953918148E-2
3.677905417E0,-2.896411421E-2,1.453039942E-2,-3.244736910E-2,4.585721514E-2
3.687850417E0,-3.577441882E-2,1.137531494E-2,-2.735795259E-2,4.645066632E-2
3.697796417E0,-4.159064194E-2,9.713036043E-3,-3.993238986E-2,5.846982406E-2
3.707742417E0,-4.725324090E-2,1.327086120E-2,-3.678892672E-2,6.133848434E-2
3.717687417E0,-3.471744094E-2,1.134514925E-2,-2.750822604E-2,4.572434381E-2
3.727633417E0,-2.537981670E-2,1.336631471E-2,-2.331694186E-2,3.696583885E-2
3.737579417E0,-3.563491704E-2,1.541044192E-2,-2.226853609E-2,4.475730926E-2
3.747524417E0,-4.323215637E-2,2.107316421E-2,-2.556168795E-2,5.446556238E-2
3.757470417E0,-3.998934996E-2,2.200544565E-2,-2.346663058E-2,5.132319650E-2
3.767415417E0,-3.137244758E-2,2.173351814E-2,-3.858519137E-2,5.427147751E-2
3.777361417E0,-4.068864497E-2,2.966185834E-2,-3.948332369E-2,6.398690897E-2
3.787307417E0,-3.541563503E-2,2.201807198E-2,-4.681807101E-2,6.269764327E-2
3.797252417E0,-3.593044583E-2,1.404127526E-2,-3.274733126E-2,5.060179891E-2
3.807198417E0,-3.757118596E-2,1.570753986E-2,-2.810756564E-2,4.948086569E-2
3.817143417E0,-4.366058369E-2,1.634811147E-2,-1.987468600E-2,5.068047416E-2
3.827089417E0,-4.649096497E-2,1.568604677E-2,-2.062371433E-2,5.322404983E-2
3.837035417E0,-4.572958897E-2,8.825515502E-3,-2.331811130E-2,5.208473237E-2
3.846980417E0,-4.492435886E-2,1.955226002E-2,-2.241939425E-2,5.388059140E-2
3.856926417E0,-2.488660177E-2,2.381784724E-2,-4.143044651E-2,5.388055951E-2
3.866871417E0,-2.542125427E-2,1.616037702E-2,-5.535149753E-2,6.301734867E-2
3.876817417E0,-3.245316606E-2,2.340068952E-2,-3.214974582E-2,5.132646894E-2
3.886763417E0,-3.187513225E-2,2.051198226E-2,-3.140071750E-2,4.922164698E-2
3.896708417E0,-3.379870175E-2,2.096592719E-2,-1.897655368E-2,4.406849138E-2
3.906654417E0,-4.292060485E-2,1.576404087E-2,-9.696437716E-3,4.674081952E-2
3.916599417E0,-4.073756972E-2,1.048387037E-2,-1.568398654E-2,4.489374744E-2
3.926545417E0,-3.963132677E-2,1.080958312E-2,-2.256908298E-2,4.687059478E-2
3.936491417E0,-4.214905560E-2,1.444637310E-2,-3.663982272E-2,5.768636922E-2
3.946436417E0,-3.981144385E-2,1.203068275E-2,-4.068083346E-2,5.817747502E-2
3.956382417E0,-3.479029359E-2,1.547602210E-2,-4.741741061E-2,6.081350687E-2
3.966327417E0,-3.935567623E-2,1.477663344E-2,-3.259764254E-2,5.319609428E-2
3.976273417E0,-4.529655240E-2,1.604084029E-2,-2.436476290E-2,5.387696992E-2
3.986219417E0,-2.805515997E-2,2.442399794E-2,-1.134184420E-2,3.888780151E-2
3.996164417E0,-2.730787667E-2,2.653109920E-2,-1.927534640E-2,4.267503172E-2
4.006110417E0,-2.723755249E-2,2.327594054E-2,-2.107161105E-2,4.156520739E-2
4.016056417E0,-3.315402110E-2,1.660745833E-2,-3.259764254E-2,4.937208813E-2
4.026001417E0,-4.166386005E-2,1.988912132E-2,-4.502122164E-2,6.448538422E-2
4.035947417E0,-4.644786460E-2,1.784099242E-2,-4.936219454E-2,7.008802598E-2
4.045892417E0,-4.490357383E-2,7.605683533E-3,-3.663806856E-2,5.845105159E-2
4.055838417E0,-3.904042908E-2,9.938345707E-3,-3.573993623E-2,5.385414432E-2
4.065784417E0,-3.765684082E-2,1.529721835E-2,-2.092075288E-2,4.571346028E-2
4.075729417E0,-2.934466745E-2,1.776100434E-2,-1.238849580E-2,3.646968071E-2
4.085675417E0,-3.791150533E-2,1.848450135E-2,-2.346546113E-2,4.826579423E-2
4.095620417E0,-4.473987920E-2,2.518579649E-2,-2.166919649E-2,5.572732913E-2
4.105566417E0,-4.137453707E-2,2.149828648E-2,-3.963125825E-2,6.119367018E-2
4.115512417E0,-3.593467135E-2,1.906904932E-2,-4.861258149E-2,6.338858199E-2
4.125457417E0,-4.166200538E-2,1.824268243E-2,-4.741507173E-2,6.570165281E-2
4.135403417E0,-3.530104788E-2,1.000716926E-2,-2.750647187E-2,4.585753387E-2
4.145348417E0,-3.115753728E-2,1.317992558E-2,-3.079962373E-2,4.575062174E-2
4.155294417E0,-3.890659637E-2,1.059734747E-2,-1.568106294E-2,4.326572257E-2
4.165240417E0,-4.085337200E-2,5.376848266E-3,-9.992306828E-3,4.239993746E-2
4.175185417E0,-3.810065819E-2,4.870668969E-3,-2.196740448E-2,4.424873366E-2
4.185131417E0,-4.004747494E-2,1.156534717E-2,-2.376308441E-2,4.798168072E-2
4.195076417E0,-3.103812160E-2,4.853883348E-3,-4.022942841E-2,5.104245377E-2
4.205022417E0,-2.675576019E-2,2.098809865E-2,-4.187600434E-2,5.394414451E-2
4.214968417E0,-2.451646160E-2,2.175458868E-2,-4.666604340E-2,5.702664837E-2
4.224913417E0,-2.458318838E-2,1.363741082E-2,-3.888222992E-2,4.798062035E-2
4.234855333E0,-3.668508611E-2,1.460727660E-2,-3.094931245E-2,5.016999117E-2
4.244801333E0,-3.594870467E-2,1.498499531E-2,-1.373510957E-2,4.129785330E-2
4.254746333E0,-4.279183819E-2,9.684581116E-3,-1.613012910E-2,4.674519860E-2
4.264692333E0,-3.145279883E-2,6.375070761E-3,-1.762701631E-2,3.661463895E-2
4.274637333E0,-4.034418459E-2,5.382489916E-3,-3.184744477E-2,5.168059758E-2
4.284583333E0,-3.773484176E-2,1.837809344E-2,-4.082818329E-2,5.855436066E-2
4.294529333E0,-2.928122288E-2,1.736392815E-2,-5.070763886E-2,6.107504116E-2
4.304474333E0,-4.146917974E-2,2.127122037E-2,-3.723565400E-2,5.965443498E-2
4.314420333E0,-3.790555762E-2,1.879584274E-2,-3.244619966E-2,5.331857907E-2
4.324365333E0,-2.875764583E-2,2.088541377E-2,-2.301581025E-2,4.234300679E-2
4.334311333E0,-2.431911351E-2,2.295874965E-2,-1.957238495E-2,3.875050606E-2
4.344257333E0,-3.351826152E-2,1.812894038E-2,-1.777612031E-2,4.204905216E-2
4.354202333E0,-3.968712657E-2,2.014067950E-2,-2.975063324E-2,5.353330892E-2
4.364148333E0,-3.721635133E-2,2.054393638E-2,-3.963008881E-2,5.811758828E-2
4.374093333E0,-4.244522621E-2,1.102723887E-2,-3.933071136E-2,5.890757237E-2
4.384039333E0,-4.340920824E-2,5.680375861E-3,-4.951012909E-2,6.608993049E-2
4.393985333E0,-3.885867661E-2,1.589778222E-2,-3.603814423E-2,5.533067926E-2
4.403930333E0,-3.332410655E-2,1.460646347E-2,-2.675744355E-2,4.516420749E-2
4.413876333E0,-2.245179377E-2,1.342180844E-2,-1.672829926E-2,3.104937973E-2
4.423822333E0,-3.119968291E-2,1.336985959E-2,-1.343514740E-2,3.650584262E-2
4.433767333E0,-2.696103400E-2,1.792359805E-2,-1.403331757E-2,3.528578642E-2
4.443713333E0,-3.443194835E-2,1.592217836E-2,-2.496059418E-2,4.541041833E-2
4.453658333E0,-3.261975689E-2,1.575313672E-2,-3.439098358E-2,4.994947055E-2
4.463604333E0,-2.984675142E-2,1.613456704E-2,-4.666545868E-2,5.769590850E-2
4.473550333E0,-3.269643308E-2,1.577999965E-2,-3.992946625E-2,5.396691023E-2
4.483495333E0,-3.568829116E-2,1.274537010E-2,-4.067790985E-2,5.559488227E-2
4.493441333E0,-3.321924725E-2,5.228852041E-3,-3.259413421E-2,4.683200686E-2
4.503386333E0,-2.953141975E-2,1.901976597E-2,-1.972090423E-2,4.028362340E-2
4.513332333E0,-4.454089114E-2,9.556230165E-3,-1.208677948E-2,4.713069867E-2
4.523278333E0,-3.855099886E-2,1.197548366E-2,-1.388304412E-2,4.268876476E-2
4.533223333E0,-3.117594916E-2,1.769518433E-2,-2.256440520E-2,4.235813660E-2
4.543169333E0,-2.744843369E-2,1.322213288E-2,-3.513825774E-2,4.650740228E-2
4.553114333E0,-2.144841385E-2,2.027068868E-2,-4.516681731E-2,5.395346756E-2
4.563060333E0,-2.919260330E-2,1.154877397E-2,-4.516623259E-2,5.500518915E-2
4.573006333E0,-3.370603937E-2,1.586436173E-2,-4.157370329E-2,5.582246741E-2
4.582951333E0,-2.908073190E-2,1.077347885E-2,-3.154455900E-2,4.423591321E-2
4.592897333E0,-3.387977476E-2,9.126688221E-3,-8.342807293E-3,3.606574565E-2
4.602843333E0,-3.218453447E-2,1.613837459E-2,-2.016880095E-2,4.126829201E-2
4.612788333E0,-3.588233421E-2,8.355065889E-3,-2.241471648E-2,4.312503390E-2
4.622734333E0,-3.245922341E-2,1.310707064E-2,-3.019852996E-2,4.623145787E-2
4.632679333E0,-2.795688563E-2,2.227566467E-2,-4.726304412E-2,5.925865363E-2
4.642625333E0,-3.823759952E-2,1.867951512E-2,-5.070646942E-2,6.619806903E-2
4.652571333E0,-3.305080632E-2,2.007699053E-2,-4.352199554E-2,5.822031813E-2
4.662516333E0,-2.446906718E-2,1.994014969E-2,-2.241588593E-2,3.871455489E-2
4.672462333E0,-2.310101743E-2,1.961412402E-2,-1.912273407E-2,3.583364098E-2
4.682407333E0,-2.653744434E-2,1.997980798E-2,-2.181654632E-2,3.974154467E-2
4.692353333E0,-2.862884948E-2,1.019243692E-2,-1.807432830E-2,3.535785820E-2
4.702299333E0,-3.388875115E-2,1.356113206E-2,-2.915129364E-2,4.671348497E-2
4.712244333E0,-3.844212188E-2,9.106476498E-3,-2.540907562E-2,4.697175505E-2
4.722190333E0,-4.322606705E-2,4.823176330E-4,-3.558790863E-2,5.599307763E-2
4.732135333E0,-4.348767056E-2,3.329116800E-3,-4.456864715E-2,6.235883913E-2
4.742081333E0,-3.832504509E-2,9.701252533E-3,-2.780351043E-2,4.833175534E-2
4.752027333E0,-2.654647555E-2,1.825948404E-2,-3.124635100E-2,4.488272020E-2
4.761972333E0,-3.103970446E-2,1.590235036E-2,-2.196506560E-2,4.121664842E-2
4.771918333E0,-3.731943135E-2,1.823075959E-2,-1.867132902E-2,4.553810579E-2
4.781864333E0,-3.181419102E-2,9.838650681E-3,-2.974829435E-2,4.465313891E-2
4.791809333E0,-3.769415336E-2,1.827192993E-2,-2.450918913E-2,4.853259701E-2
4.801755333E0,-3.693476450E-2,1.951383285E-2,-4.262210906E-2,5.967923158E-2
4.811700333E0,-2.633510556E-2,1.235256969E-2,-4.022650480E-2,4.964167051E-2
4.821646333E0,-3.206383743E-2,9.690542535E-3,-3.364020109E-2,4.747272285E-2
4.831592333E0,-2.510959768E-2,6.531563723E-3,-3.483829558E-2,4.343800248E-2
4.841537333E0,-3.204844281E-2,1.290701136E-2,-1.912097991E-2,3.948804251E-2
4.851483333E0,-3.189087862E-2,1.089490679E-2,-1.882101774E-2,3.859997205E-2
4.861428333E0,-3.872706858E-2,9.686824072E-3,-1.941977262E-2,4.439310723E-2
4.871374333E0,-3.545893184E-2,1.416659525E-2,-2.495825529E-2,4.561735169E-2
4.881320333E0,-2.769499433E-2,8.079614067E-3,-3.289175749E-2,4.375112096E-2
4.891265333E0,-2.601614223E-2,1.589266819E-2,-4.516623259E-2,5.449224830E-2
4.901211333E0,-2.322920621E-2,1.145504949E-2,-3.034763396E-2,3.989728145E-2
4.911156333E0,-2.053402124E-2,1.375895753E-2,-3.229300261E-2,4.066685330E-2
4.921102333E0,-3.522136586E-2,1.890053759E-2,-3.139487028E-2,5.082728415E-2
4.931048333E0,-3.795271221E-2,1.166493256E-2,-2.136514127E-2,4.508822770E-2
4.940993333E0,-3.227798257E-2,1.182734126E-2,-1.477942228E-2,3.741905241E-2
4.950939333E0,-3.279121507E-2,6.217504288E-3,-2.076697111E-2,3.930888239E-2
4.960885333E0,-3.323412795E-2,9.092548247E-3,-2.810113370E-2,4.446184218E-2
4.970830333E0,-3.101722009E-2,9.667583078E-3,-3.498681486E-2,4.774523347E-2
4.980776333E0,-3.278747148E-2,1.212762776E-2,-3.977685392E-2,5.295560168E-2
4.990721333E0,-2.894446894E-2,1.460723777E-2,-4.187249601E-2,5.295714871E-2
5.000667333E0,-3.343287390E-2,1.661912763E-2,-2.810113370E-2,4.672928606E-2
5.010613333E0,-2.851495897E-2,1.376071169E-2,-1.882043302E-2,3.683298482E-2
5.020558333E0,-3.179712903E-2,1.874200952E-2,-1.418008268E-2,3.953979110E-2
5.030504333E0,-2.471657799E-2,1.633044877E-2,-1.253350675E-2,3.216646664E-2
5.040449333E0,-2.823432231E-2,1.330689467E-2,-2.346078336E-2,3.904687898E-2
5.050395333E0,-2.927506731E-2,1.437298141E-2,-2.301171720E-2,3.991429931E-2
5.060341333E0,-3.335883125E-2,9.223767989E-3,-4.471658170E-2,5.654610683E-2
5.070286333E0,-3.883091604E-2,4.844616882E-3,-4.097436368E-2,5.665870483E-2
5.080232333E0,-2.931680638E-2,6.812373970E-3,-4.336938322E-2,5.279002724E-2
5.090177333E0,-3.763643495E-2,1.543071760E-2,-3.363961637E-2,5.278477120E-2
5.100123333E0,-3.251305434E-2,1.351867808E-2,-2.495767057E-2,4.315945644E-2
5.110069333E0,-2.461666826E-2,1.526586266E-2,-1.013907194E-2,3.068921144E-2
5.120014333E0,-3.249409886E-2,2.135085899E-2,-1.941977262E-2,4.346093889E-2
5.129960333E0,-3.205320281E-2,1.967485512E-2,-2.630545378E-2,4.589645556E-2
5.139905333E0,-3.201694094E-2,2.024423460E-2,-4.112463713E-2,5.591197833E-2
5.149851333E0,-2.968133688E-2,1.213923540E-2,-3.393899381E-2,4.669259145E-2
5.159797333E0,-2.641192564E-2,8.313477568E-3,-3.947747648E-2,4.822006713E-2
5.169742333E0,-2.483413672E-2,7.559552200E-3,-3.319055021E-2,4.213660878E-2
5.179688333E0,-2.443837615E-2,1.383811421E-2,-2.450860441E-2,3.727464720E-2
5.189634333E0,-4.000831230E-2,4.516460176E-3,-2.136514127E-2,4.557995971E-2
5.199579333E0,-3.862354088E-2,-1.352264551E-3,-2.390984952E-2,4.544543359E-2
5.209525333E0,-3.466578901E-2,1.644208034E-2,-1.582665861E-2,4.150351860E-2
5.219470333E0,-2.615513009E-2,1.923569954E-2,-2.810113370E-2,4.293922079E-2
5.229416333E0,-2.870963242E-2,1.825060587E-2,-3.708128750E-2,5.032245514E-2
5.239361917E0,-2.964438750E-2,1.114335864E-2,-2.645338833E-2,4.126434183E-2
5.249306917E0,-2.439018687E-2,1.271689234E-2,-3.513591886E-2,4.462211739E-2
5.259252917E0,-2.987222563E-2,1.196289388E-2,-2.944774747E-2,4.361915319E-2
5.269197917E0,-3.339689753E-2,1.200359598E-2,-3.259062588E-2,4.818285978E-2
5.279143917E0,-2.781922025E-2,2.695047932E-3,-1.313109219E-2,3.088038019E-2
5.289089917E0,-3.559082767E-2,4.548428000E-3,-3.034471035E-2,4.699145303E-2
5.299034917E0,-3.113904089E-2,1.227957771E-2,-1.911864102E-2,3.854802629E-2
5.308980917E0,-3.144560630E-2,1.193251120E-2,-3.363844693E-2,4.756843586E-2
5.318926917E0,-2.846954712E-2,1.213598973E-2,-4.591233730E-2,5.536912566E-2
5.328871917E0,-3.051279039E-2,1.521458760E-2,-4.396638393E-2,5.563772973E-2
5.338817917E0,-2.803323748E-2,1.144512522E-2,-4.381669521E-2,5.326120609E-2
5.348762917E0,-2.866077848E-2,1.694274361E-2,-3.303852260E-2,4.690459210E-2
5.358708917E0,-3.278237573E-2,1.550875965E-2,-2.330817103E-2,4.311005244E-2
5.368654917E0,-2.732513738E-2,1.975899108E-2,-1.357898891E-2,3.635202609E-2
5.378599917E0,-2.433784744E-2,7.091000648E-3,-2.031439662E-2,3.248519383E-2
5.388545917E0,-2.723197707E-2,1.358998213E-2,-2.794852138E-2,4.132055223E-2
5.398490917E0,-3.097747958E-2,9.490665975E-3,-4.770743251E-2,5.766867519E-2
5.408436917E0,-2.982203094E-2,1.038813135E-2,-5.144906580E-2,6.036781572E-2
5.418382917E0,-3.112174136E-2,9.716752223E-3,-3.932427943E-2,5.108206154E-2
5.428327917E0,-3.481203107E-2,4.687447837E-3,-2.660073817E-2,4.406187633E-2
5.438273917E0,-2.966307804E-2,9.731639782E-3,-2.944423914E-2,4.291347376E-2
5.448218917E0,-2.723419034E-2,9.987460035E-3,-2.240886927E-2,3.665525751E-2
5.458164917E0,-2.987250657E-2,1.234831447E-2,-1.297847986E-2,3.483229046E-2
5.468110917E0,-3.145894754E-2,1.751501929E-2,-2.106225550E-2,4.171402507E-2
5.478055917E0,-2.500316693E-2,1.686474267E-2,-2.630077600E-2,4.001635566E-2
5.488001917E0,-3.062304695E-2,7.673867550E-3,-3.243801355E-2,4.526459953E-2
5.497947917E0,-2.432173333E-2,2.000981150E-3,-3.917400599E-2,4.615358472E-2
5.507892917E0,-3.770903635E-2,4.181170324E-3,-3.992244959E-2,5.507499967E-2
5.517838917E0,-2.975786689E-2,3.816884221E-3,-2.974361658E-2,4.224668004E-2
5.527783917E0,-2.951775417E-2,9.570996668E-3,-2.749828577E-2,4.146151841E-2
5.537729917E0,-3.303022915E-2,9.853357798E-3,-2.330758631E-2,4.160923308E-2
5.547675917E0,-3.327492370E-2,1.193170720E-2,-1.911571741E-2,4.018702323E-2
5.557620917E0,-3.217863244E-2,1.641650105E-2,-2.076229334E-2,4.166579793E-2
5.567566917E0,-2.839818596E-2,1.235325262E-2,-2.734859705E-2,4.131592401E-2
5.577511917E0,-2.782205250E-2,1.808074197E-2,-4.261743128E-2,5.401134403E-2
5.587457917E0,-3.009872301E-2,1.781954959E-2,-4.141992152E-2,5.421327672E-2
5.597403917E0,-3.055994727E-2,1.111407916E-2,-3.887521327E-2,5.068249539E-2
5.607348917E0,-3.723577962E-2,1.176481031E-2,-3.378579676E-2,5.163713885E-2
5.617294917E0,-3.253087693E-2,6.526294376E-3,-1.956536829E-2,3.851823086E-2
5.627239917E0,-3.424629240E-2,5.611819541E-3,-1.761999965E-2,3.891998779E-2
5.637185917E0,-3.421627517E-2,3.518678506E-3,-2.555350184E-2,4.284992464E-2
5.647131917E0,-2.817569027E-2,1.103942666E-2,-2.345727503E-2,3.828814719E-2
5.657076917E0,-2.416402296E-2,1.069968745E-2,-4.186898768E-2,4.951156882E-2
5.667022917E0,-2.552048335E-2,1.125756207E-2,-3.423544765E-2,4.415986469E-2
5.676968917E0,-3.294277901E-2,1.613064987E-2,-3.857642055E-2,5.323123873E-2
5.686913917E0,-2.949140059E-2,8.744074751E-3,-3.468451381E-2,4.635964894E-2
5.696859917E0,-2.756147224E-2,1.525668756E-2,-4.097144008E-2,5.168230035E-2
5.706804917E0,-2.480074135E-2,1.347264039E-2,-3.543295741E-2,4.529992584E-2
5.716750917E0,-2.020504683E-2,8.736030261E-3,-2.869754970E-2,3.616782411E-2
5.726696917E0,-2.325273897E-2,2.507984997E-3,-1.103428066E-2,2.585991508E-2
5.736641917E0,-3.030169220E-2,6.444310017E-3,-3.528385341E-2,4.695393480E-2
5.746587917E0,-3.891918159E-2,6.588014478E-3,-2.360813320E-2,4.599400595E-2
5.756532917E0,-2.262738383E-2,6.358260016E-3,-2.735035121E-2,3.606199774E-2
5.766478917E0,-2.859338475E-2,1.294355188E-2,-3.483420253E-2,4.688857913E-2
5.776424917E0,-2.852821799E-2,1.732797234E-2,-4.156961024E-2,5.331182179E-2
5.786369917E0,-2.423063326E-2,1.815897589E-2,-4.171929896E-2,5.154970319E-2
5.796315917E0,-2.631436850E-2,1.479408600E-2,-3.872552454E-2,4.910170284E-2
5.806260917E0,-2.833692496E-2,6.013909264E-3,-2.405661464E-2,3.765460302E-2
5.816206917E0,-2.654940144E-2,1.736549502E-2,-1.806906581E-2,3.650920806E-2
5.826152917E0,-3.495994051E-2,9.977348463E-3,-1.836844325E-2,4.073259911E-2
5.836097917E0,-3.371208530E-2,1.585393724E-2,-2.166159511E-2,4.309381306E-2
5.846043917E0,-3.474835353E-2,1.182116970E-2,-3.588202357E-2,5.132940426E-2
5.855989917E0,-2.745921221E-2,9.653481238E-3,-8.333334804E-2,8.827029472E-2
5.865934917E0,-5.347057616E-2,1.033681518E-2,-1.387719691E-2,5.620079054E-2
5.875880917E0,-8.785420390E-3,1.775826346E-2,-7.590855360E-3,2.121698889E-2
5.885825917E0,-3.869590931E-2,1.244977736E-2,-1.327844203E-2,4.276315443E-2
5.895771917E0,-4.801834906E-2,1.646853214E-2,-3.737832606E-2,6.304057151E-2
5.905717917E0,-3.183834961E-2,1.650880940E-2,-2.046291590E-2,4.129106708E-2
5.915662917E0,-2.705262972E-2,1.392674521E-2,1.591202796E-2,3.433644770E-2
5.925608917E0,-2.298793548E-2,1.031488812E-2,-1.911513269E-2,3.162641921E-2
5.935553917E0,-3.213642742E-2,1.144150040E-2,-7.719435632E-2,8.439565478E-2
5.945499917E0,-3.749354362E-2,1.060865132E-2,-7.375034630E-2,8.341116757E-2
5.955445917E0,-5.307922842E-2,4.249164762E-3,-1.087991416E-2,5.434917131E-2
5.965390917E0,-4.106414129E-2,6.819479708E-3,1.382047892E-2,4.386085545E-2
5.975336917E0,-3.061829380E-2,9.994725657E-3,-3.122997880E-2,4.486296950E-2
5.985282917E0,-2.325486772E-2,1.285239699E-2,-5.277989209E-2,5.909052369E-2
5.995227917E0,-4.346206844E-3,2.929402280E-2,-3.541600049E-2,4.616624715E-2
6.005173917E0,-1.498724398E-2,2.042319823E-2,8.741587400E-3,2.679813162E-2
6.015118917E0,-3.036231367E-2,1.119223542E-2,2.505765796E-2,4.092703810E-2
6.025064917E0,7.004354505E-3,1.467992597E-2,-7.748086989E-2,7.916973164E-2
6.035010917E0,5.904239253E-2,1.118887784E-2,-6.386621296E-2,8.769314831E-2
6.044955917E0,2.154712307E-1,9.560692778E-2,-5.645486712E-3,2.357973864E-1
6.054901917E0,2.120993570E0,1.300025343E0,7.278614044E-2,2.488770267E0
6.064846917E0,2.160589014E0,1.164432944E0,-5.250507295E-2,2.454955346E0
6.074792917E0,-2.430041612E-1,-6.543808614E-2,3.117150664E-2,2.535839670E-1
6.084738917E0,-1.855727469E0,-1.000091101E0,-3.215325415E-2,2.108302749E0
6.094683917E0,-1.641548930E0,-1.068380659E0,6.842470229E-2,1.959796434E0
6.104629917E0,-1.119868700E-1,-4.483067550E-1,2.426495093E-1,5.219183748E-1
6.114575917E0,2.294528735E-2,-6.286538161E-1,8.429018641E-1,1.051767873E0
6.124520917E0,-3.502784769E-1,-9.445076148E-1,5.241046500E-1,1.135550673E0
6.134466917E0,-4.964436655E-1,-1.073530521E0,4.638128400E-2,1.183670274E0
6.144411917E0,-6.959547566E-1,-9.981110872E-1,2.106400967E-2,1.216972661E0
6.154357917E0,-1.841000234E-1,-3.314921405E-1,1.469890612E-1,4.066763356E-1
6.164303917E0,2.922593152E-1,3.511731375E-1,-3.494354546E-2,4.582129757E-1
6.174248917E0,5.126449844E-1,7.322088823E-1,-7.325918019E-2,8.968286542E-1
6.184194917E0,-2.101315259E-2,3.884887156E-1,2.925525713E-1,4.867771992E-1
6.194139917E0,-1.572476174E-1,5.370565251E-2,2.502877271E-1,3.004247936E-1
6.204085917E0,4.419685559E-2,6.089790317E-1,-7.992851436E-2,6.157900540E-1
6.214031917E0,5.175794863E-1,1.495169880E0,-3.246409214E-1,1.615182102E0
6.223976917E0,1.353001994E0,1.731036180E0,8.870927811E-2,2.198856519E0
6.233923417E0,1.037482948E0,1.325121300E0,-9.550491214E-2,1.685656702E0
6.243869417E0,1.030537626E0,1.075333218E0,-1.279926270E-1,1.494901816E0
6.253814417E0,6.400071354E-1,5.015780324E-1,-1.498290539E-1,8.268242869E-1
6.263760417E0,1.522755746E-1,4.025850369E-1,3.056310385E-1,5.278947758E-1
6.273705417E0,1.908334759E-2,2.580028358E-1,1.133631274E0,1.162776634E0
6.283651417E0,9.581501557E-2,3.224355709E-2,1.252575919E0,1.256648955E0
6.293597417E0,-2.533617180E-1,-1.556236080E-1,1.176629943E0,1.213618099E0
6.303542417E0,-5.792007704E-1,1.358587401E-1,1.491158105E0,1.605454336E0
6.313488417E0,2.179413687E-1,7.520867112E-1,2.411895765E0,2.535818220E0
6.323433417E0,1.392853400E0,1.392215469E0,3.967910017E0,4.429742025E0
6.333379417E0,3.545069786E0,2.978341273E0,3.751879372E0,5.959415689E0
6.343325417E0,5.142245513E0,4.741113070E0,6.716725856E-1,7.026520200E0
6.353270417E0,8.628103177E-1,3.235462056E0,1.607557458E-1,3.352387026E0
6.363216417E0,-4.293929127E0,3.351755574E-2,-1.017000371E-1,4.295264098E0
6.373161417E0,-6.499331641E0,-4.418437106E0,-4.188898516E0,8.905659381E0
6.383107417E0,-3.630405806E0,-7.666987862E0,-6.126077553E0,1.046381266E1
6.393053417E0,1.672127968E0,-6.593660093E0,-4.361296653E0,8.080425351E0
6.402998417E0,-4.702745980E-1,-2.865409904E0,-2.314671187E0,3.713412826E0
6.412944417E0,-1.564628077E0,1.471727515E0,-4.556320006E-1,2.195824087E0
6.422890417E0,-7.144011140E-1,3.592893578E0,6.771789086E-1,3.725295222E0
6.432835417E0,-8.804915670E-1,2.574738382E0,1.656310372E0,3.185577999E0
6.442781417E0,-1.025973801E0,2.803590070E-1,1.029236255E0,1.480050905E0
6.452726417E0,-6.547082050E-1,-1.018028896E0,5.589534706E-1,1.333212155E0
6.462672417E0,-5.834055032E-1,-1.117072982E0,1.038235120E0,1.632833792E0
6.472618417E0,-6.430628903E-1,-7.263775273E-1,1.740556471E0,1.992659284E0
6.482563417E0,-5.170038279E-1,-5.898462112E-1,1.834111921E0,1.994787721E0
6.492509417E0,-7.527081972E-1,-8.654572792E-1,2.021064363E0,2.323851779E0
6.502454417E0,-1.217346664E0,-1.063720136E0,1.947775362E0,2.531257057E0
6.512400417E0,-1.269667330E0,-1.035755023E0,1.799721522E0,2.433894237E0
6.522346417E0,-1.239777972E0,-1.149706439E0,1.958387473E0,2.587306671E0
6.532291417E0,-8.643620226E-1,-1.181236234E0,1.831964239E0,2.344895247E0
6.542237417E0,-8.914051026E-1,-9.375763985E-1,1.787506689E0,2.206543161E0
6.552182417E0,-1.309128288E0,-5.178384083E-1,1.841500463E0,2.317994273E0
6.562128417E0,-1.634144893E0,-2.825164834E-1,1.954923583E0,2.563585635E0
6.572074417E0,-7.137794088E-1,-2.161413033E-1,1.520595912E0,1.693638107E0
6.582019417E0,-7.598939136E-1,-1.144050866E0,1.480303334E0,2.019304114E0
6.591965417E0,7.477916390E-2,-1.617176274E0,1.624126713E0,2.293172170E0
6.601911417E0,8.389716581E-1,-1.201121883E-1,9.314450812E-1,1.259321373E0
6.611856417E0,6.600512445E-1,-1.519000061E0,1.790971749E0,2.439386939E0
6.621802417E0,1.581024840E0,-6.718615969E-1,1.083689035E0,2.031112866E0
6.631747417E0,1.496458606E0,2.430403957E-1,1.167199554E0,1.913324801E0
6.641693417E0,9.649806172E-1,9.789184789E-1,1.212644699E0,1.833023771E0
6.651639417E0,4.031029540E-1,2.505446538E0,1.248462988E0,2.828146774E0
6.661584417E0,-6.112515521E-1,1.259536737E0,2.012557833E0,2.451621970E0
6.671530417E0,1.022683280E0,-2.113745070E-1,8.378504544E-1,1.338862823E0
6.681475417E0,1.428420405E0,-1.329171520E-1,5.705783200E-1,1.543894893E0
6.691421417E0,4.619768143E-1,4.973746884E-1,5.805109853E-1,8.931949180E-1
6.701367417E0,-1.330148005E-1,-2.117368881E0,1.695739317E0,2.715966816E0
6.711312417E0,7.438073462E-1,-2.394567541E0,1.355185783E-1,2.511089079E0
6.721258417E0,-5.865558368E-1,-2.275340768E0,1.194884366E0,2.636090288E0
6.731203417E0,-3.806385362E-1,-1.261325108E0,2.339544657E0,2.685013208E0
6.741149417E0,3.641183978E-1,1.943743122E-1,3.627805549E-1,5.495209840E-1
6.751095417E0,1.685152933E0,9.511098522E-1,-2.053963721E0,2.821899596E0
6.761040417E0,1.622393598E0,1.880238851E0,-1.972347701E0,3.171374241E0
6.770986417E0,2.036900961E-1,2.525747193E0,-3.949209452E-3,2.533950303E0
6.780932417E0,-7.587697864E-1,1.129841985E0,-2.286214542E-1,1.380051546E0
6.790877417E0,-6.272197133E-1,-8.279128191E-1,-2.185721955E0,2.419963775E0
6.800823417E0,-5.419024050E-2,-2.040017527E0,-2.185754700E0,2.990339730E0
6.810768417E0,-3.329112232E-1,-3.543156870E0,8.320114249E-1,3.654727554E0
6.820714417E0,1.227540773E0,-4.741841926E0,-7.387448269E-1,4.953550758E0
6.830660417E0,1.993021116E0,-4.431774312E0,-1.390350938E-1,4.861284551E0
6.840605417E0,1.887081848E0,-3.344536602E0,-1.358542085E0,4.073406385E0
6.850551417E0,1.735395133E0,-2.177403706E0,-2.402803345E0,3.677791060E0
6.860496417E0,1.058115653E0,-9.141247514E-1,-2.902653744E0,3.221898750E0
6.870442417E0,1.095835456E-1,1.015585053E0,-2.700096254E0,2.886856653E0
6.880388417E0,-8.673034644E-1,2.736484061E0,-2.144231282E0,3.583055695E0
6.890333417E0,-1.362515268E0,2.584847633E0,-1.841229152E0,3.453695113E0
6.900279417E0,-1.631833343E0,2.767912846E0,-2.607532491E0,4.138048728E0
6.910225417E0,-6.832725844E-1,2.960183914E0,-3.942610869E0,4.977321639E0
6.920170417E0,7.238569388E-1,2.555476777E0,-4.401571689E0,5.140842709E0
6.930116417E0,1.208789337E0,2.390925603E0,-5.383179449E0,6.013012380E0
6.940061417E0,1.451081874E0,2.199958756E0,-5.849673237E0,6.415928157E0
6.950007417E0,1.867504785E0,2.123356430E0,-6.356208758E0,6.956838825E0
6.959953417E0,2.014059106E0,1.920114962E0,-6.544048222E0,7.111106994E0
6.969898417E0,-2.419794476E0,3.128619978E-1,3.756633743E0,4.479462581E0
6.979844417E0,-6.110667801E0,-1.337204718E0,9.031057320E0,1.098582604E1
6.989789417E0,-5.484336280E0,-9.475760874E-1,6.108615428E-1,5.599017476E0
6.999735417E0,-2.745832590E0,1.545744202E0,1.515715826E0,3.496614965E0
7.009681417E0,-1.198680378E0,1.784347877E0,3.912810534E-1,2.184910263E0
7.019626417E0,-2.749565452E-2,1.179363955E0,4.090510342E0,4.257220948E0
7.029572417E0,2.912441983E0,2.705693428E-1,4.736516574E0,5.566876623E0
7.039518417E0,4.691834783E0,3.912332159E-1,3.327426479E0,5.765253163E0
7.049463417E0,4.082030709E0,1.237545651E0,-1.352618855E-1,4.267644518E0
7.059409417E0,2.006609753E0,8.723140897E-1,9.346055013E-1,2.379265016E0
7.069354417E0,9.263033321E-1,-4.284291088E-1,2.756964519E0,2.939803178E0
7.079300417E0,9.622903132E-1,-8.176289555E-1,1.990233749E0,2.357021453E0
7.089246417E0,1.389216286E0,-8.133089595E-2,1.558922072E0,2.089682902E0
7.099191417E0,1.745299732E0,8.105878846E-1,2.539934000E0,3.186595142E0
7.109137417E0,1.408627287E0,1.461130752E0,3.599537770E0,4.132288236E0
7.119082417E0,5.176772444E-1,1.981610713E0,4.889555749E0,5.301181583E0
7.129028417E0,-5.208594453E-1,2.129218264E0,4.862322342E0,5.333576993E0
7.138974417E0,-7.361786301E-1,2.215346143E0,3.732060819E0,4.402044464E0
7.148919417E0,2.041105109E-1,1.924390300E0,3.328097155E0,3.849827243E0
7.158865417E0,1.463284136E0,1.189800797E0,3.489922357E0,3.966911198E0
7.168811417E0,1.893037091E0,7.750177369E-1,2.840481470E0,3.500368109E0
7.178756417E0,1.207073764E0,2.035464191E-1,2.914341159E0,3.160987600E0
7.188702417E0,1.231819765E-1,2.211338022E-1,3.075801494E0,3.086199733E0
7.198647417E0,-3.212685397E-1,5.351762067E-1,3.155439987E0,3.216586476E0
7.208593417E0,-5.715703002E-1,5.052498646E-1,3.614828238E0,3.694448975E0
7.218539417E0,-4.161558397E-1,4.342361614E-1,4.043157250E0,4.087648135E0
7.228484417E0,2.171946792E-1,3.708246426E-1,3.382079235E0,3.409273294E0
7.238430458E0,2.444131757E-1,-8.708864920E-2,9.109231085E-1,9.471552897E-1
7.248375458E0,2.766773808E-1,-5.745260677E-1,4.033900523E-1,7.545555710E-1
7.258321458E0,-2.684716907E-1,-9.432540449E-1,-4.827279979E-1,1.093083511E0
7.268267458E0,-1.297867574E0,-1.766147687E0,-1.327896243E0,2.562624890E0
7.278212458E0,-2.444597780E0,-2.053104765E0,-1.099292330E0,3.376350265E0
7.288158458E0,-2.979860380E0,-1.547427616E0,-5.954324949E-1,3.410079173E0
7.298103458E0,-2.674208876E0,-7.231384622E-1,-4.068872720E-1,2.799978500E0
7.308049458E0,-2.030959752E0,-5.433748070E-1,-6.256491512E-1,2.193511011E0
7.317995458E0,-1.116680926E0,-9.061886910E-1,-1.049244842E0,1.780187904E0
7.327940458E0,-1.023322673E0,-9.172815169E-1,-1.382321541E0,1.949206895E0
7.337886458E0,-1.966830122E0,-6.092836351E-1,-1.407627121E0,2.494205563E0
7.347832458E0,-2.913685978E0,-5.021066938E-1,-1.331346100E0,3.242554479E0
7.357777458E0,-2.902103521E0,-5.789281074E-1,-1.183762377E0,3.187264653E0
7.367723458E0,-2.591830963E0,-1.066937493E0,-1.234668821E0,3.062735779E0
7.377668458E0,-2.386017889E0,-1.568243119E0,-1.314704924E0,3.143392575E0
7.387614458E0,-2.664682300E0,-1.663446022E0,-1.316381321E0,3.405942485E0
7.397560458E0,-2.976891164E0,-1.668719333E0,-1.168996403E0,3.607361613E0
7.407505458E0,-2.590633745E0,-1.808133911E0,-1.125282034E0,3.353653396E0
7.417451458E0,-1.988288088E0,-1.795275592E0,-1.336928437E0,2.993940817E0
7.427396458E0,-1.512245796E0,-1.733358694E0,-1.506204745E0,2.749558591E0
7.437342458E0,-1.470489075E0,-1.703242026E0,-1.524621136E0,2.718058337E0
7.447288458E0,-1.994645911E0,-1.594809504E0,-1.718175083E0,3.078011580E0
7.457233458E0,-2.412770947E0,-1.359232349E0,-1.826283084E0,3.317270885E0
7.467179458E0,-2.309606913E0,-1.213225108E0,-1.850190010E0,3.198343685E0
7.477125458E0,-1.913464485E0,-1.115946297E0,-2.060044241E0,3.024973512E0
7.487070458E0,-1.451355377E0,-9.610979929E-1,-2.226363612E0,2.826099205E0
7.497016458E0,-1.102004123E0,-1.021082532E0,-2.397023372E0,2.828912100E0
7.506961458E0,-1.313032328E0,-1.056195866E0,-2.644720198E0,3.135944599E0
7.516907458E0,-1.522079789E0,-9.691315556E-1,-2.271726896E0,2.901152521E0
7.526853458E0,-1.604107893E0,-1.042422895E0,-2.504514492E0,3.151571110E0
7.536798458E0,-1.419036501E0,-8.979617317E-1,-2.953974171E0,3.397935148E0
7.546744458E0,-1.341522156E0,-7.119610709E-1,-3.177490422E0,3.521791538E0
7.556690458E0,-1.046045099E0,-6.018924987E-1,-3.155906010E0,3.378790859E0
7.566635458E0,-6.174440458E-1,-4.861515427E-1,-3.231591784E0,3.325772983E0
7.576581458E0,-4.685666263E-1,-2.509269740E-1,-3.115810483E0,3.160821727E0
7.586526458E0,-3.958794500E-1,-1.496492520E-1,-2.918497360E0,2.949023953E0
7.596472458E0,-1.342988491E-1,-1.398626210E-1,-2.908979847E0,2.915435042E0
7.606418458E0,9.659410223E-2,-4.899381995E-3,-3.005893938E0,3.007449549E0
7.616363458E0,2.237037997E-1,1.304734544E-1,-2.853010299E0,2.864739862E0
7.626309458E0,4.636410780E-1,1.647743909E-1,-2.706814705E0,2.751174203E0
7.636254458E0,7.199379887E-1,2.172451115E-1,-2.696083894E0,2.798995268E0
7.646200458E0,7.444967330E-1,1.917527130E-1,-2.699481711E0,2.806821334E0
7.656146458E0,6.792532083E-1,2.640982658E-2,-2.561278676E0,2.649949218E0
7.666091458E0,8.115218311E-1,-1.374459668E-1,-2.459738268E0,2.593794792E0
7.676037458E0,1.043514351E0,-2.108292541E-1,-2.485897542E0,2.704266585E0
7.685982458E0,1.033439745E0,-2.203425278E-1,-2.424130479E0,2.644419996E0
7.695928458E0,9.351834986E-1,-2.529664828E-1,-2.184615077E0,2.389791467E0
7.705874458E0,1.146459407E0,-4.043848830E-1,-1.989241476E0,2.331303917E0
7.715819458E0,1.322100921E0,-4.598719628E-1,-1.922829385E0,2.378383046E0
7.725765458E0,1.521016181E0,-4.567695764E-1,-2.007433333E0,2.559671318E0
7.735711458E0,1.881837480E0,-6.615073474E-1,-2.508687065E0,3.205060851E0
7.745656458E0,1.337062630E0,-7.394008845E-1,-2.191142909E0,2.671246412E0
7.755602458E0,8.777900802E-1,-6.288999838E-1,-2.104922791E0,2.365741019E0
7.765547458E0,1.062155421E0,-4.111251877E-1,-1.996614815E0,2.298623235E0
7.775493458E0,1.163576473E0,-2.495739283E-1,-1.854749669E0,2.203700000E0
7.785439458E0,1.528128880E0,-1.317501940E-1,-1.763955858E0,2.337536365E0
7.795384458E0,1.749821969E0,-2.493508570E-2,-1.617274945E0,2.382871572E0
7.805330458E0,1.789061317E0,-1.309001550E-1,-1.444347636E0,2.303044798E0
7.815276458E0,1.692770978E0,-2.597961038E-1,-1.324380312E0,2.164936676E0
7.825221458E0,1.756446279E0,-2.792008929E-1,-1.092600777E0,2.087302836E0
7.835167458E0,1.795832832E0,-2.868622072E-1,-8.509833008E-1,2.007854094E0
7.845112458E0,1.709861220E0,-1.974966705E-1,-6.192733473E-1,1.829242959E0
7.855058458E0,1.945911123E0,-1.099214325E-1,-3.768226433E-1,1.985106578E0
7.865004458E0,2.048422023E0,-2.000675633E-1,-4.301667917E-1,2.102641977E0
7.874949458E0,1.863647085E0,-3.264015180E-1,-4.707020295E-1,1.949686848E0
7.884895458E0,1.426828793E0,-2.383721432E-1,-4.011026216E-1,1.501181200E0
7.894840458E0,1.175938071E0,-1.166861037E-1,-3.120904577E-1,1.222230113E0
7.904786458E0,1.275654294E0,-1.364493088E-1,-2.732403874E-3,1.282934043E0
7.914732458E0,1.443390154E0,-1.856632399E-1,1.953829569E-1,1.468339360E0
7.924677458E0,1.748337653E0,-1.268576825E-1,3.965049559E-1,1.797218295E0
7.934623458E0,1.932382566E0,-1.691296164E-1,5.368299454E-1,2.012683184E0
7.944569458E0,1.891177238E0,-3.570764498E-1,6.486503434E-1,2.030960906E0
7.954514458E0,1.716981667E0,-5.291556942E-1,6.451765126E-1,1.909000923E0
7.964460458E0,1.382310724E0,-5.925447743E-1,6.249428076E-1,1.628633096E0
7.974405458E0,1.197082846E0,-5.408854280E-1,7.807652575E-1,1.528122630E0
7.984351458E0,1.396685519E0,-5.228134386E-1,8.988252193E-1,1.741249869E0
7.994297458E0,1.710424599E0,-4.082302313E-1,8.833412075E-1,1.967865829E0
8.004242458E0,1.828129050E0,-2.113044865E-1,1.039519168E0,2.113600130E0
8.014188458E0,1.653239122E0,-1.597972409E-1,1.100023232E0,1.992181183E0
8.024133458E0,1.589312391E0,-2.095000358E-1,1.133378089E0,1.963249865E0
8.034079458E0,1.577378516E0,-2.188970961E-1,1.157535276E0,1.968737371E0
8.044025458E0,1.558417457E0,-1.434313229E-1,1.353811103E0,2.069309551E0
8.053970458E0,1.638055950E0,-1.313081445E-1,1.481134808E0,2.212290542E0
8.063916458E0,1.735732079E0,-2.081478672E-1,1.494988031E0,2.300234901E0
8.073861458E0,1.807529309E0,-2.661788513E-1,1.574555773E0,2.411895368E0
8.083807458E0,1.969374830E0,-2.802430129E-1,1.563047867E0,2.529840312E0
8.093753458E0,2.083582646E0,-2.093272506E-1,1.521587600E0,2.588506010E0
8.103698458E0,1.974231089E0,-1.638822520E-1,1.355672271E0,2.400477680E0
8.113644458E0,1.819857433E0,6.354242340E-2,1.346461152E0,2.264702265E0
8.123590458E0,1.755447575E0,4.659720705E-1,1.373852434E0,2.277322259E0
8.133535458E0,1.694085140E0,6.373381738E-1,1.423188316E0,2.302518055E0
8.143481458E0,1.429471734E0,6.983641018E-1,1.644275048E0,2.287955920E0
8.153426458E0,1.452397351E0,6.330026096E-1,1.571732737E0,2.231702078E0
8.163372458E0,1.404361744E0,4.828507894E-1,1.569654636E0,2.160831430E0
8.173318458E0,1.354116473E0,2.482670756E-1,1.659473716E0,2.156182037E0
8.183263458E0,1.245894598E0,-3.242573440E-2,1.737165670E0,2.138001250E0
8.193209458E0,1.191867787E0,-2.769511767E-1,1.755142935E0,2.139574140E0
8.203154458E0,1.136148500E0,-4.843678495E-1,1.706005273E0,2.106157549E0
8.213100458E0,9.832324085E-1,-5.623682445E-1,1.763504453E0,2.095937014E0
8.223046458E0,9.348836826E-1,-5.664726976E-1,1.733319957E0,2.049218605E0
8.232991458E0,8.796049829E-1,-5.037770972E-1,1.734288840E0,2.008794183E0
8.242937167E0,8.470346030E-1,-4.187354851E-1,1.751690154E0,1.990282749E0
8.252883167E0,7.827331379E-1,-3.018861893E-1,1.820658647E0,2.004645691E0
8.262828167E0,7.717230501E-1,-1.904002520E-1,1.949333645E0,2.105162792E0
8.272774167E0,8.009895339E-1,-1.949900240E-1,1.945347598E0,2.112813910E0
8.282719167E0,7.760754982E-1,-3.050433934E-1,2.016187200E0,2.181823887E0
8.292665167E0,6.214761396E-1,-3.841866267E-1,1.973493755E0,2.104402423E0
8.302611167E0,3.866163275E-1,-4.838351682E-1,1.955023570E0,2.050776881E0
8.312556167E0,1.552401769E-1,-5.792889172E-1,2.024432359E0,2.111398005E0
8.322502167E0,3.458757794E-2,-6.115406969E-1,2.087188185E0,2.175208690E0
8.332447167E0,5.095662518E-2,-7.614083424E-1,2.212122134E0,2.340047772E0
8.342393167E0,9.011838399E-2,-8.317041537E-1,2.397366604E0,2.539137601E0
8.352339167E0,9.561298513E-2,-9.181198615E-1,2.457174264E0,2.624841193E0
8.362284167E0,-8.616767619E-3,-9.773159033E-1,2.585665074E0,2.764214988E0
8.372230167E0,-2.837035961E-1,-9.619801185E-1,2.694495791E0,2.875100180E0
8.382176167E0,-4.956453744E-1,-9.289366257E-1,2.639478169E0,2.841730564E0
8.392121167E0,-6.593894859E-1,-9.119889097E-1,2.536708676E0,2.775141289E0
8.402067167E0,-7.961764714E-1,-8.382179520E-1,2.360154338E0,2.628085769E0
8.412012167E0,-8.063778162E-1,-7.612171385E-1,2.269532436E0,2.525960054E0
8.421958167E0,-8.087528821E-1,-7.389624895E-1,2.151546149E0,2.414393841E0
8.431904167E0,-8.340563424E-1,-7.356883411E-1,2.016567854E0,2.302918415E0
8.441849167E0,-9.781538093E-1,-7.721594717E-1,1.841987536E0,2.223945415E0
8.451795167E0,-1.137422827E0,-8.231083082E-1,1.701125772E0,2.205689658E0
8.461740167E0,-1.276456240E0,-8.803614664E-1,1.619517353E0,2.242144799E0
8.471686167E0,-1.405397139E0,-8.874184710E-1,1.522293359E0,2.253892130E0
8.481632167E0,-1.506884484E0,-9.046661492E-1,1.428985831E0,2.265198047E0
8.491577167E0,-1.571921602E0,-9.180011630E-1,1.277651703E0,2.223973366E0
8.501523167E0,-1.554252632E0,-9.788681929E-1,1.181127622E0,2.183791803E0
8.511468167E0,-1.602250671E0,-1.036786472E0,1.071146758E0,2.188490068E0
8.521414167E0,-1.732353120E0,-1.071886138E0,9.857282925E-1,2.263105718E0
8.531360167E0,-1.915114569E0,-1.055431781E0,9.022370696E-1,2.365508780E0
8.541305167E0,-1.924466460E0,-1.022688031E0,8.087406760E-1,2.324548009E0
8.551251167E0,-1.907386743E0,-9.367697751E-1,7.087304842E-1,2.240080511E0
8.561196167E0,-1.823766443E0,-8.113159360E-1,6.002921158E-1,2.084396366E0
8.571142167E0,-1.696039864E0,-7.617631953E-1,5.129581028E-1,1.928719887E0
8.581088167E0,-1.660637750E0,-7.825753362E-1,4.772257680E-1,1.896809513E0
8.591033167E0,-1.686372662E0,-7.429473670E-1,4.538293040E-1,1.897836817E0
8.600979167E0,-1.621663719E0,-7.551236089E-1,3.564848578E-1,1.824030246E0
8.610925167E0,-1.590063027E0,-7.817013967E-1,2.525517690E-1,1.789731795E0
8.620870167E0,-1.604611630E0,-7.676968767E-1,1.656580514E-1,1.786499250E0
8.630816167E0,-1.670895521E0,-7.592678960E-1,1.214934468E-2,1.835354785E0
8.640761167E0,-1.721719227E0,-7.211157641E-1,-5.885222554E-2,1.867562215E0
8.650707167E0,-1.812713743E0,-7.193313400E-1,-2.542708504E-1,1.966728847E0
8.660653167E0,-1.935359530E0,-7.535273190E-1,-4.467822397E-1,2.124390336E0
8.670598167E0,-1.986705831E0,-7.856668322E-1,-6.423113769E-1,2.230882412E0
8.680544167E0,-1.984710322E0,-8.285852489E-1,-8.316161531E-1,2.305908499E0
8.690489167E0,-2.000685354E0,-8.408607472E-1,-9.000724304E-1,2.349450800E0
8.700435167E0,-2.022658898E0,-8.223357448E-1,-9.433114207E-1,2.378491440E0
8.710381167E0,-2.046899700E0,-8.648407634E-1,-1.034009922E0,2.450902782E0
8.720326167E0,-2.065175173E0,-9.352195320E-1,-1.082107363E0,2.512078903E0
8.730272167E0,-2.154910783E0,-9.653590782E-1,-1.157967970E0,2.629914153E0
8.740218167E0,-2.233476896E0,-9.682738421E-1,-1.138512529E0,2.687412149E0
8.750163167E0,-2.221145411E0,-9.720194223E-1,-1.166061686E0,2.690354725E0
8.760109167E0,-2.111128733E0,-9.494708776E-1,-1.162828175E0,2.590468846E0
8.770054167E0,-1.925955745E0,-9.574081805E-1,-1.245318940E0,2.485307872E0
8.780000167E0,-1.825938098E0,-1.016687107E0,-1.389356911E0,2.509584675E0
8.789946167E0,-1.862702028E0,-1.053467993E0,-1.395356739E0,2.554696477E0
8.799891167E0,-1.797469906E0,-1.065543371E0,-1.447707446E0,2.542073482E0
8.809837167E0,-1.690600491E0,-1.063654574E0,-1.611256406E0,2.566249848E0
8.819782167E0,-1.586371387E0,-1.060297395E0,-1.667788457E0,2.534230274E0
8.829728167E0,-1.535651323E0,-1.086219418E0,-1.700304823E0,2.535573722E0
8.839674167E0,-1.498831114E0,-1.166938622E0,-1.724287178E0,2.565425253E0
8.849619167E0,-1.367596206E0,-1.257634930E0,-1.747015305E0,2.550299487E0
8.859565167E0,-1.308874958E0,-1.392760283E0,-1.904345167E0,2.698048439E0
8.869510167E0,-1.337781253E0,-1.464423758E0,-2.043318281E0,2.847691209E0
8.879456167E0,-1.398933335E0,-1.483896887E0,-2.217313292E0,3.012547540E0
8.889402167E0,-1.399059196E0,-1.455094964E0,-2.298629351E0,3.059144469E0
8.899347167E0,-1.288511152E0,-1.393208034E0,-2.391502431E0,3.052961430E0
8.909293167E0,-1.278708149E0,-1.294894850E0,-2.465156298E0,3.064121861E0
8.919239167E0,-1.252438802E0,-1.295224048E0,-2.469100830E0,3.056577693E0
8.929184167E0,-1.114564088E0,-1.227872310E0,-2.473948172E0,2.978312118E0
8.939130167E0,-9.723526405E-1,-1.091167478E0,-2.462315136E0,2.863409149E0
8.949075167E0,-8.611671039E-1,-1.044804466E0,-2.409145235E0,2.763549514E0
8.959021167E0,-6.873975027E-1,-9.752913049E-1,-2.276260242E0,2.570032908E0
8.968967167E0,-5.141159977E-1,-8.894185111E-1,-2.123827423E0,2.359242139E0
8.978912167E0,-2.421700376E-1,-8.087761979E-1,-1.981939473E0,2.154263062E0
8.988858167E0,1.749853836E-1,-7.789432651E-1,-1.830078512E0,1.996637136E0
8.998803167E0,3.847991225E-1,-7.315144524E-1,-1.733078467E0,1.920089771E0
9.008749167E0,4.855064486E-1,-6.379309353E-1,-1.632781177E0,1.818968598E0
9.018695167E0,4.848340188E-1,-6.908994001E-1,-1.617445684E0,1.824427732E0
9.028640167E0,3.192718618E-1,-7.173717919E-1,-1.632231538E0,1.811280377E0
9.038586167E0,3.280156419E-1,-7.088559070E-1,-1.645645051E0,1.821597813E0
9.048531167E0,4.296829346E-1,-7.063994917E-1,-1.723963827E0,1.911982987E0
9.058477167E0,5.809033334E-1,-6.210805754E-1,-1.640071485E0,1.847437209E0
9.068423167E0,6.978828759E-1,-5.720772538E-1,-1.616066326E0,1.850941183E0
9.078368167E0,7.904463463E-1,-5.456083703E-1,-1.609291742E0,1.874116813E0
9.088314167E0,8.028849819E-1,-5.666080606E-1,-1.596143108E0,1.874391050E0
9.098259167E0,7.289064480E-1,-6.127668580E-1,-1.609426228E0,1.870037597E0
9.108205167E0,6.566474341E-1,-6.579168646E-1,-1.732384987E0,1.966010731E0
9.118151167E0,5.697832449E-1,-7.324872829E-1,-1.778996066E0,2.006493850E0
9.128096167E0,4.773753105E-1,-7.829179099E-1,-1.801808394E0,2.021722317E0
9.138042167E0,6.397402100E-1,-7.206126112E-1,-1.811628208E0,2.051961704E0
9.147987167E0,9.162192240E-1,-6.171701038E-1,-1.739797502E0,2.060886206E0
9.157933167E0,1.131937043E0,-4.883964349E-1,-1.642517960E0,2.053698565E0
9.167879167E0,1.251962546E0,-4.543714871E-1,-1.617863760E0,2.095554058E0
9.177824167E0,1.161568685E0,-5.211158457E-1,-1.624101570E0,2.063615624E0
9.187770167E0,1.027488230E0,-5.955497316E-1,-1.634503182E0,2.020399019E0
9.197716167E0,1.013943008E0,-6.158938028E-1,-1.590122230E0,1.983908845E0
9.207661167E0,1.104232204E0,-5.444152460E-1,-1.539487097E0,1.971227344E0
9.217607167E0,1.216390206E0,-3.992769746E-1,-1.453636522E0,1.937030298E0
9.227552167E0,1.305673315E0,-2.793779173E-1,-1.395031049E0,1.931048020E0
9.237498083E0,1.323244344E0,-2.458072981E-1,-1.402527764E0,1.943831513E0
9.247444083E0,1.271510957E0,-2.085150723E-1,-1.440439941E0,1.932637026E0
9.257389083E0,1.217125128E0,-2.089736402E-1,-1.532985578E0,1.968529487E0
9.267335083E0,1.234664143E0,-2.493198667E-1,-1.465838492E0,1.932676493E0
9.277280083E0,1.292220626E0,-3.196368742E-1,-1.399589539E0,1.931541549E0
9.287226083E0,1.394841892E0,-2.132134563E-1,-1.231645811E0,1.872964304E0
9.297172083E0,1.563600575E0,-1.255587235E-1,-1.062022762E0,1.894334738E0
9.307117083E0,1.810254404E0,-1.092709389E-1,-9.406719875E-1,2.042994110E0
9.317063083E0,1.947630497E0,-8.749934301E-2,-8.965600079E-1,2.145865917E0
9.327008083E0,1.893294953E0,-6.493946940E-2,-9.170164919E-1,2.104685763E0
9.336954083E0,1.833464488E0,-1.381697059E-1,-9.085690194E-1,2.050897501E0
9.346900083E0,1.853734592E0,-2.584946597E-1,-7.828614843E-1,2.028798544E0
9.356845083E0,1.830093130E0,-2.536027329E-1,-5.753777146E-1,1.935100701E0
9.366791083E0,1.827805114E0,-8.705484498E-2,-3.495231628E-1,1.862959077E0
9.376736083E0,1.901548444E0,6.417903900E-3,-2.690491033E-1,1.920498658E0
9.386682083E0,2.035282452E0,7.357781690E-2,-1.762871200E-1,2.044227361E0
9.396628083E0,1.986638003E0,1.283552092E-1,-1.132389325E-1,1.993998162E0
9.406573083E0,1.873340599E0,9.922058014E-2,-1.417663282E-1,1.881315341E0
9.416519083E0,1.740250954E0,-7.642292585E-3,-9.590193808E-2,1.742908193E0
9.426464083E0,1.525856945E0,-9.706027150E-2,1.021982199E-1,1.532352632E0
9.436410083E0,1.621348701E0,-1.136881814E-1,2.943880123E-1,1.651775079E0
9.446356083E0,1.946545254E0,-1.437020490E-1,5.855343282E-1,2.037777994E0
9.456301083E0,2.091233435E0,-1.592644500E-1,9.039432871E-1,2.283798571E0
9.466247083E0,2.121669216E0,-1.613405404E-1,1.125021833E0,2.406903645E0
9.476192083E0,2.117581282E0,-2.347668779E-1,1.080122818E0,2.388709123E0
9.486138083E0,1.983574501E0,-3.263309129E-1,1.012637179E0,2.250887319E0
9.496084083E0,1.791749282E0,-2.973268960E-1,9.149916011E-1,2.033710501E0
9.506029083E0,1.737604212E0,-2.499502697E-1,8.475147325E-1,1.949365219E0
9.515975083E0,1.820666249E0,-2.088634933E-1,7.882760060E-1,1.994950779E0
9.525921083E0,1.954304655E0,-1.541734620E-1,8.561680269E-1,2.139182047E0
9.535866083E0,2.070983066E0,-3.291872777E-2,9.504982334E-1,2.278925491E0
9.545812083E0,2.087152810E0,2.107498781E-1,1.120033574E0,2.378044905E0
9.555757083E0,1.869923340E0,2.621543589E-1,1.264610658E0,2.272570862E0
9.565703083E0,1.646632207E0,1.404360867E-1,1.285240220E0,2.093552565E0
9.575649083E0,1.590804746E0,6.379648492E-2,1.311563215E0,2.062747634E0
9.585594083E0,1.496161568E0,5.254015625E-3,1.378093420E0,2.034125983E0
9.595540083E0,1.477867822E0,-3.389864802E-2,1.391315728E0,2.030025092E0
9.605485083E0,1.577169039E0,-1.089286575E-1,1.432763132E0,2.133573955E0
9.615431083E0,1.646942110E0,-2.104877767E-1,1.493870628E0,2.233466559E0
9.625377083E0,1.779223231E0,-2.727549224E-1,1.531814965E0,2.363575182E0
9.635322083E0,1.825527478E0,-3.113461071E-1,1.520017623E0,2.395817302E0
9.645268083E0,1.783884777E0,-3.078502031E-1,1.497943214E0,2.349649020E0
9.655213083E0,1.697823265E0,-1.989998983E-1,1.449438221E0,2.241221978E0
9.665159083E0,1.511133948E0,-7.687787578E-2,1.408672603E0,2.067315777E0
9.675105083E0,1.483224603E0,-5.920685917E-2,1.298054978E0,1.971904511E0
9.685050083E0,1.481352032E0,-1.536151260E-2,1.239768763E0,1.931752159E0
9.694996083E0,1.414438543E0,5.486398593E-2,1.298826225E0,1.921092401E0
9.704941083E0,1.425464637E0,2.031161919E-2,1.344162027E0,1.959370702E0
9.714887083E0,1.384219840E0,-4.668358505E-2,1.392455351E0,1.963969406E0
9.724833083E0,1.371151898E0,-5.226679891E-2,1.450332845E0,1.996560720E0
9.734778083E0,1.412894585E0,-7.867136300E-2,1.419602219E0,2.004427787E0
9.744724083E0,1.361689349E0,-1.065467942E-1,1.450167954E0,1.992118771E0
9.754669083E0,1.120672601E0,-1.804149619E-1,1.546626547E0,1.918465614E0
9.764615083E0,8.352429617E-1,-2.678746900E-1,1.646444365E0,1.865520491E0
9.774561083E0,7.477588946E-1,-3.836264634E-1,1.749575801E0,1.940960615E0
9.784506083E0,7.500018865E-1,-5.579772779E-1,1.924592321E0,2.139602083E0
9.794452083E0,7.582056762E-1,-6.194122186E-1,2.126072170E0,2.340668754E0
9.804398083E0,6.384782347E-1,-6.670889533E-1,2.235597535E0,2.418792771E0
9.814343083E0,4.480174640E-1,-7.194800055E-1,2.321689600E0,2.471560989E0
9.824289083E0,2.619474406E-1,-7.076332542E-1,2.300755983E0,2.421330084E0
9.834234083E0,8.407870358E-2,-6.665700129E-1,2.328063065E0,2.423068807E0
9.844180083E0,-7.803847499E-2,-6.527056798E-1,2.331124667E0,2.422035698E0
9.854126083E0,-3.387795619E-1,-6.328687084E-1,2.386893656E0,2.492499893E0
9.864071083E0,-6.347047341E-1,-6.089173436E-1,2.482356468E0,2.633576288E0
9.874017083E0,-8.903596205E-1,-6.545513535E-1,2.614573708E0,2.838516057E0
9.883962083E0,-9.666333327E-1,-7.075104627E-1,2.689644356E0,2.944339963E0
9.893908083E0,-1.004982077E0,-7.603143284E-1,2.829017419E0,3.096999582E0
9.903854083E0,-1.097546352E0,-8.869243813E-1,2.960042412E0,3.279191048E0
9.913799083E0,-1.126476694E0,-9.782722154E-1,2.987410305E0,3.339249406E0
9.923745083E0,-1.188336288E0,-1.013994171E0,3.028051377E0,3.407260256E0
9.933690083E0,-1.152182515E0,-1.032394628E0,3.001655876E0,3.376877436E0
9.943636083E0,-1.096562119E0,-1.087609593E0,2.869783621E0,3.258987748E0
9.953582083E0,-1.211952023E0,-1.133396946E0,2.753106526E0,3.214500255E0
9.963527083E0,-1.261914215E0,-1.120284419E0,2.596054991E0,3.096282640E0
9.973473083E0,-1.378829876E0,-1.162103705E0,2.444516212E0,3.037649809E0
9.983418083E0,-1.454558482E0,-1.173387808E0,2.292012057E0,2.957346546E0
9.993364083E0,-1.576695415E0,-1.214837258E0,2.042690290E0,2.852083732E0
1.000331008E1,-1.652630573E0,-1.236469764E0,1.800739523E0,2.739107175E0
1.001325508E1,-1.757263428E0,-1.344486402E0,1.533521767E0,2.692082363E0
1.002320108E1,-1.872725910E0,-1.509578589E0,1.260261499E0,2.715545782E0
1.003314608E1,-2.040167070E0,-1.624381067E0,1.004694906E0,2.794692716E0
1.004309208E1,-2.202707824E0,-1.663369277E0,8.127290618E-1,2.877368179E0
1.005303808E1,-2.283746725E0,-1.620851687E0,6.297690994E-1,2.870412586E0
1.006298308E1,-2.336654525E0,-1.504633891E0,5.411106920E-1,2.831373924E0
1.007292908E1,-2.450354803E0,-1.352382335E0,5.183620995E-1,2.846379438E0
1.008287408E1,-2.484315577E0,-1.139745780E0,5.960768580E-2,2.733934419E0
1.009282008E1,-2.130066256E0,-1.164521091E0,2.194144285E-1,2.437505758E0
1.010276608E1,-2.144131880E0,-1.082003648E0,-7.502211571E-2,2.402844508E0
1.011271108E1,-2.253403038E0,-1.014930749E0,-1.395578349E-1,2.475355745E0
1.012265708E1,-2.248114962E0,-9.952353535E-1,-2.332337379E-1,2.469597593E0
1.013260208E1,-2.153158519E0,-9.886208370E-1,-4.146430188E-1,2.405284100E0
1.014254808E1,-2.096892809E0,-9.481795932E-1,-4.797593665E-1,2.350781369E0
1.015249408E1,-2.119647541E0,-8.853776465E-1,-6.097669441E-1,2.376681511E0
1.016243908E1,-2.176414211E0,-8.931290080E-1,-7.285051829E-1,2.462758219E0
1.017238508E1,-2.190023898E0,-8.430037518E-1,-7.667646843E-1,2.468762459E0
1.018233008E1,-2.253720396E0,-8.647463308E-1,-8.313465965E-1,2.553072463E0
1.019227608E1,-2.328964413E0,-8.802141166E-1,-8.428773057E-1,2.628553648E0
1.020222208E1,-2.281625063E0,-8.650911704E-1,-7.820750338E-1,2.562388928E0
1.021216708E1,-2.179124542E0,-9.190232563E-1,-8.522620869E-1,2.513869165E0
1.022211308E1,-2.127393056E0,-9.907482002E-1,-8.701463807E-1,2.502905898E0
1.023205908E1,-2.093964962E0,-1.089512423E0,-8.362032938E-1,2.504188997E0
1.024200454E1,-2.083326538E0,-1.108244637E0,-9.156663698E-1,2.531185600E0
1.025195054E1,-2.074030196E0,-1.160908535E0,-1.010985340E0,2.582905581E0
1.026189554E1,-2.130946701E0,-1.230290718E0,-1.066066112E0,2.681612584E0
1.027184154E1,-2.126163532E0,-1.264750407E0,-1.137293969E0,2.722793149E0
1.028178754E1,-2.037133681E0,-1.274993121E0,-1.164888734E0,2.670671611E0
1.029173254E1,-1.861950515E0,-1.361799276E0,-1.206823795E0,2.603417113E0
1.030167854E1,-1.756916688E0,-1.438530241E0,-1.272857571E0,2.603131172E0
1.031162354E1,-1.740846493E0,-1.449398460E0,-1.353620483E0,2.638861652E0
1.032156954E1,-1.718421836E0,-1.464251265E0,-1.437539138E0,2.676476069E0
1.033151554E1,-1.694731549E0,-1.543026270E0,-1.580729848E0,2.784196822E0
1.034146054E1,-1.743369859E0,-1.526315513E0,-1.722632416E0,2.887289377E0
1.035140654E1,-1.768506454E0,-1.485757032E0,-1.884421365E0,2.980961743E0
1.036135154E1,-1.703468459E0,-1.497467251E0,-2.043900663E0,3.053152941E0
1.037129754E1,-1.669839075E0,-1.470687149E0,-2.214858046E0,3.139566752E0
1.038124354E1,-1.528100521E0,-1.414047656E0,-2.245792741E0,3.062385836E0
1.039118854E1,-1.414566451E0,-1.377464844E0,-2.303607670E0,3.033976918E0
1.040113454E1,-1.400467498E0,-1.320939956E0,-2.346463668E0,3.035141401E0
1.041107954E1,-1.314562545E0,-1.289365430E0,-2.351306332E0,2.986499517E0
1.042102554E1,-1.218736036E0,-1.287316712E0,-2.339245865E0,2.935059294E0
1.043097154E1,-1.108036841E0,-1.239574927E0,-2.294794162E0,2.833791080E0
1.044091654E1,-9.213392653E-1,-1.213082070E0,-2.260527139E0,2.725879142E0
1.045086254E1,-7.123630670E-1,-1.179802350E0,-2.176137784E0,2.575843625E0
1.046080754E1,-4.026543995E-1,-1.159895504E0,-1.986175196E0,2.335033202E0
1.047075354E1,-1.306950639E-1,-1.180130379E0,-1.864899850E0,2.210800842E0
1.048069954E1,1.131897428E-1,-1.145284482E0,-1.674327398E0,2.031713734E0
1.049064454E1,2.643128586E-1,-1.125827579E0,-1.560635306E0,1.942403559E0
1.050059054E1,3.778783581E-1,-1.068940311E0,-1.480902089E0,1.865072770E0
1.051053554E1,4.693849441E-1,-1.031302076E0,-1.650929765E0,2.002367420E0
1.052048154E1,4.780889632E-1,-1.093554750E0,-1.904618817E0,2.247666320E0
1.053042754E1,3.608215184E-1,-1.128942099E0,-2.032105075E0,2.352478154E0
1.054037254E1,2.632393098E-1,-1.107651510E0,-2.151891135E0,2.434506574E0
1.055031854E1,2.589557127E-1,-1.093600650E0,-2.240288756E0,2.506374704E0
1.056026354E1,4.342515104E-1,-9.832800633E-1,-2.125840035E0,2.382143974E0
1.057020954E1,6.846488728E-1,-7.928622696E-1,-2.119382955E0,2.364140175E0
1.058015554E1,1.026491206E0,-5.734840938E-1,-2.164317053E0,2.463094904E0
1.059010054E1,1.253070155E0,-5.848183367E-1,-2.304425696E0,2.687484900E0
1.060004654E1,1.201292622E0,-6.681829673E-1,-2.501838806E0,2.854605025E0
1.060999154E1,1.001685052E0,-6.934300750E-1,-2.614704101E0,2.884596289E0
1.061993754E1,8.886389311E-1,-6.951915488E-1,-2.774851152E0,2.995458121E0
1.062988354E1,8.515688995E-1,-6.450341329E-1,-2.681607943E0,2.886565395E0
1.063982854E1,8.560645312E-1,-5.287970406E-1,-2.506327128E0,2.700768125E0
1.064977454E1,1.018658495E0,-3.848156409E-1,-2.429430980E0,2.662307851E0
1.065971954E1,1.192974446E0,-2.726650214E-1,-2.401726872E0,2.695519655E0
1.066966554E1,1.303463506E0,-2.203666475E-1,-2.387307054E0,2.728885036E0
1.067961154E1,1.445790875E0,-1.570646909E-1,-2.471804582E0,2.867890944E0
1.068955654E1,1.501369829E0,-5.005201980E-2,-2.499282403E0,2.915995387E0
1.069950254E1,1.733933037E0,9.363321841E-2,-2.298264484E0,2.880505268E0
1.070944854E1,2.264289238E0,7.647778004E-2,-1.789828033E0,2.887271895E0
1.071939354E1,2.658255333E0,2.696209610E-2,-1.368099359E0,2.989773273E0
1.072933954E1,2.876892081E0,8.609147966E-2,-9.345973152E-1,3.026118295E0
1.073928454E1,2.860163198E0,-3.719779328E-2,-6.867005146E-1,2.941678907E0
1.074923054E1,2.567229680E0,-2.860558762E-1,-5.669922227E-1,2.644612708E0
1.075917654E1,2.014225751E0,-5.432785472E-1,-6.469721925E-1,2.184222968E0
1.076912154E1,1.443721983E0,-6.872722992E-1,-8.076864231E-1,1.791377609E0
1.077906754E1,1.124750595E0,-7.981876212E-1,-7.120224667E-1,1.552141544E0
1.078901254E1,1.248424688E0,-7.302719922E-1,-5.060993189E-1,1.532317821E0
1.079895854E1,1.833742523E0,-5.231654410E-1,-4.294744813E-1,1.954676968E0
1.080890454E1,2.479355677E0,-2.300411947E-1,-3.252145332E-1,2.511152727E0
1.081884954E1,2.681946204E0,1.489738986E-2,-2.159066838E-1,2.690664057E0
1.082879554E1,2.563063831E0,8.315511759E-2,-1.779570848E-1,2.570579643E0
1.083874054E1,2.388808326E0,6.567561558E-2,-3.153058416E-1,2.410422428E0
1.084868654E1,2.030913705E0,-2.234158974E-2,-3.444360852E-1,2.060035398E0
1.085863254E1,1.779977814E0,-6.812042780E-3,-1.918138164E-1,1.790296054E0
1.086857754E1,1.830154379E0,5.428573284E-3,-2.575932384E-2,1.830343701E0
1.087852354E1,2.089155920E0,-9.448939696E-2,2.549421108E-1,2.106773880E0
1.088846854E1,2.370434621E0,-1.165713338E-1,4.621715266E-1,2.417881653E0
1.089841454E1,2.393970102E0,-2.610551920E-1,6.310613340E-1,2.489474055E0
1.090836054E1,2.222663787E0,-4.393675317E-1,7.502971709E-1,2.386676346E0
1.091830554E1,2.130530818E0,-4.192205847E-1,8.428182489E-1,2.329216620E0
1.092825154E1,2.201672136E0,-3.798033345E-1,8.752673721E-1,2.399521565E0
1.093819654E1,2.339956448E0,-2.880916574E-1,1.024804065E0,2.570722924E0
1.094814254E1,2.452036316E0,-7.813853547E-2,1.155573535E0,2.711814507E0
1.095808854E1,2.531566927E0,7.921953946E-3,1.409849063E0,2.897683255E0
1.096803354E1,2.435036121E0,6.670503616E-3,1.657106763E0,2.945411386E0
1.097797954E1,2.295514685E0,9.088912010E-3,1.842848831E0,2.943732680E0
1.098792454E1,2.158809268E0,-2.174089797E-1,1.948820259E0,2.916440386E0
1.099787054E1,2.117838413E0,-4.162929569E-1,2.062373772E0,2.985284734E0
1.100781654E1,2.094529511E0,-4.704235558E-1,2.112742272E0,3.011981425E0
1.101776154E1,2.221362781E0,-4.468201004E-1,2.148291589E0,3.122380111E0
1.102770754E1,2.342402923E0,-3.950960693E-1,2.125965750E0,3.187896286E0
1.103765254E1,2.327071523E0,-3.221092232E-1,2.211306447E0,3.226281517E0
1.104759854E1,2.290394571E0,-1.527124621E-1,2.298014224E0,3.248091402E0
1.105754454E1,1.990489564E0,1.108825046E-1,2.416793393E0,3.132927375E0
1.106748954E1,1.653429595E0,2.116393858E-1,2.503470764E0,3.007654654E0
1.107743554E1,1.604650368E0,1.542203128E-3,2.518208671E0,2.986014081E0
1.108738054E1,1.515748424E0,-2.746519053E-1,2.520955693E0,2.954343338E0
1.109732654E1,1.291250134E0,-3.633804792E-1,2.495433181E0,2.833118254E0
1.110727254E1,1.155836367E0,-4.366686031E-1,2.427673307E0,2.724010804E0
1.111721754E1,1.168740149E0,-5.823168978E-1,2.285379560E0,2.632110605E0
1.112716354E1,1.083312694E0,-6.504048005E-1,2.126839324E0,2.473871118E0
1.113710854E1,8.238968783E-1,-5.027892101E-1,1.955750964E0,2.180955040E0
1.114705454E1,5.477557237E-1,-3.084195757E-1,1.828061222E0,1.933123586E0
1.115700054E1,3.249943490E-1,-1.523021337E-1,1.750485043E0,1.786900991E0
1.116694554E1,1.614567904E-1,8.290708601E-2,1.756749750E0,1.766100666E0
1.117689154E1,-1.567682371E-2,2.188270757E-1,1.841971748E0,1.854990829E0
1.118683654E1,-1.184192549E-1,3.239272687E-1,1.967995618E0,1.997988676E0
1.119678254E1,-4.694113662E-2,3.497789785E-1,2.163558084E0,2.192152456E0
1.120672854E1,-1.572864465E-3,2.905215409E-1,2.279676186E0,2.298114173E0
1.121667354E1,7.087640326E-2,3.232022139E-1,2.404489682E0,2.427149308E0
1.122661954E1,1.375218709E-1,2.363225296E-1,2.371458760E0,2.387169298E0
1.123656554E1,3.892926347E-2,1.274251547E-1,2.371417245E0,2.375157344E0
1.124651033E1,-1.094310795E-1,4.328138262E-2,2.447075538E0,2.449903494E0
1.125645633E1,-1.880925753E-1,-1.730360681E-1,2.486969921E0,2.500067936E0
1.126640133E1,-2.212907269E-1,-4.490886739E-1,2.535007721E0,2.583972595E0
1.127634733E1,-3.446889408E-1,-6.358031335E-1,2.510885033E0,2.612967612E0
1.128629333E1,-5.391915628E-1,-7.241595322E-1,2.518426187E0,2.675370073E0
1.129623833E1,-7.222233729E-1,-8.303484768E-1,2.504384683E0,2.735512353E0
1.130618433E1,-7.919560973E-1,-1.007713385E0,2.456243972E0,2.770526155E0
1.131612933E1,-9.105521757E-1,-1.172042218E0,2.372593705E0,2.798569119E0
1.132607533E1,-1.134997183E0,-1.311062547E0,2.301288080E0,2.881497950E0
1.133602133E1,-1.321810753E0,-1.403640197E0,2.252719937E0,2.965153720E0
1.134596633E1,-1.506652057E0,-1.472962301E0,2.157016804E0,3.015350702E0
1.135591233E1,-1.609029787E0,-1.554911467E0,2.090238093E0,3.061996377E0
1.136585733E1,-1.647547589E0,-1.654182863E0,1.992822896E0,3.069540209E0
1.137580333E1,-1.749598897E0,-1.737125471E0,1.875685624E0,3.097886015E0
1.138574933E1,-1.942670158E0,-1.784204620E0,1.717306187E0,3.147458341E0
1.139569433E1,-2.134496545E0,-1.781949787E0,1.609038557E0,3.212541926E0
1.140564033E1,-2.225800672E0,-1.738542836E0,1.448262346E0,3.173985452E0
1.141558533E1,-2.250116026E0,-1.661057581E0,1.343968484E0,3.102964019E0
1.142553133E1,-2.225938081E0,-1.589524937E0,1.274707046E0,3.017659344E0
1.143547733E1,-2.126071000E0,-1.541159254E0,1.170670461E0,2.875033752E0
1.144542233E1,-2.023924674E0,-1.515676357E0,1.061022888E0,2.742137027E0
1.145536833E1,-2.019384311E0,-1.554692781E0,9.385921329E-1,2.715867786E0
1.146531333E1,-2.058303963E0,-1.582967869E0,8.530099458E-1,2.733135278E0
1.147525933E1,-2.029717072E0,-1.596600360E0,7.667640996E-1,2.693846931E0
1.148520533E1,-2.025819172E0,-1.602091773E0,7.002344799E-1,2.675998822E0
1.149515033E1,-2.058547061E0,-1.525721582E0,6.696786851E-1,2.648379106E0
1.150509633E1,-2.065236568E0,-1.474893344E0,5.827282494E-1,2.603859572E0
1.151504133E1,-1.991994345E0,-1.432680978E0,4.455437994E-1,2.493817462E0
1.152498733E1,-1.889071363E0,-1.366324144E0,2.957685399E-1,2.350087511E0
1.153493333E1,-1.866298943E0,-1.340501816E0,1.571269637E-1,2.303194683E0
1.154487833E1,-1.952684391E0,-1.297534722E0,3.223979294E-2,2.344698721E0
1.155482433E1,-1.986648382E0,-1.277977247E0,-9.135163486E-2,2.363967588E0
1.156476933E1,-2.016648838E0,-1.373296218E0,-1.685863370E-1,2.445656638E0
1.157471533E1,-2.184492432E0,-1.404044971E0,-2.032164717E-1,2.604735380E0
1.158466133E1,-2.319642490E0,-1.439158232E0,-3.012818795E-1,2.746395541E0
1.159460633E1,-2.347381242E0,-1.486314856E0,-4.506355548E-1,2.814676349E0
1.160455233E1,-2.321627181E0,-1.573425067E0,-6.136185050E-1,2.870913945E0
1.161449733E1,-2.325094433E0,-1.679935024E0,-8.471136135E-1,2.990960930E0
1.162444333E1,-2.313710051E0,-1.750949897E0,-1.071286506E0,3.093013824E0
1.163438933E1,-2.281446430E0,-1.724923647E0,-1.225496879E0,3.111623692E0
1.164433433E1,-2.195383748E0,-1.649610633E0,-1.382692255E0,3.074534585E0
1.165428033E1,-2.069167944E0,-1.522866386E0,-1.525290642E0,2.987823548E0
1.166422533E1,-1.916516878E0,-1.449270845E0,-1.634162874E0,2.905840880E0
1.167417133E1,-1.818818382E0,-1.390459404E0,-1.685350569E0,2.842865491E0
1.168411733E1,-1.731604968E0,-1.367140269E0,-1.726565253E0,2.801527415E0
1.169406233E1,-1.660555159E0,-1.429714686E0,-1.798981850E0,2.835112557E0
1.170400833E1,-1.683507527E0,-1.470351373E0,-1.829019581E0,2.888155706E0
1.171395333E1,-1.704664653E0,-1.507873102E0,-1.938870637E0,2.989779627E0
1.172389933E1,-1.612646143E0,-1.522734824E0,-2.086372499E0,3.045045013E0
1.173384533E1,-1.489906947E0,-1.438586959E0,-2.228276821E0,3.042132926E0
1.174379033E1,-1.509944917E0,-1.424148429E0,-2.367994870E0,3.148893790E0
1.175373633E1,-1.575635899E0,-1.515304913E0,-2.520905991E0,3.336726612E0
1.176368133E1,-1.641464438E0,-1.580835975E0,-2.668782660E0,3.509394359E0
1.177362733E1,-1.608454567E0,-1.651648095E0,-2.735630953E0,3.577533261E0
1.178357333E1,-1.485332378E0,-1.610384879E0,-2.868173883E0,3.609151307E0
1.179351833E1,-1.399571266E0,-1.526162169E0,-2.932150024E0,3.589634307E0
1.180346433E1,-1.352948492E0,-1.492286910E0,-3.003260352E0,3.616208316E0
1.181340933E1,-1.248644544E0,-1.420254476E0,-3.087414064E0,3.620547138E0
1.182335533E1,-1.073540900E0,-1.293360248E0,-2.968732544E0,3.411545648E0
1.183330133E1,-9.053598482E-1,-1.248734006E0,-2.850205974E0,3.240784961E0
1.184324633E1,-6.773666042E-1,-1.206843676E0,-2.680748402E0,3.016903904E0
1.185319233E1,-4.048965874E-1,-1.202337227E0,-2.502808859E0,2.805995053E0
1.186313733E1,-1.683159032E-1,-1.211082030E0,-2.427989057E0,2.718488695E0
1.187308333E1,1.053319620E-1,-1.171917087E0,-2.359687731E0,2.636780360E0
1.188302933E1,3.027925808E-1,-1.101915976E0,-2.365249602E0,2.626843704E0
1.189297433E1,3.320146988E-1,-9.531736270E-1,-2.434585301E0,2.635522588E0
1.190292033E1,3.543349828E-1,-8.750679821E-1,-2.528075262E0,2.698603673E0
1.191286633E1,3.958170310E-1,-8.331016383E-1,-2.548235877E0,2.710025009E0
1.192281133E1,5.009354965E-1,-7.657314813E-1,-2.588361810E0,2.745341132E0
1.193275733E1,5.987259391E-1,-7.017445233E-1,-2.506841683E0,2.671174527E0
1.194270233E1,6.561754176E-1,-6.694947901E-1,-2.415580096E0,2.591103366E0
1.195264833E1,7.844175746E-1,-6.419491419E-1,-2.377688969E0,2.584727155E0
1.196259433E1,9.091448240E-1,-5.834495035E-1,-2.419032292E0,2.649278178E0
1.197253933E1,9.400963292E-1,-5.627991843E-1,-2.339100854E0,2.583005388E0
1.198248533E1,9.915774085E-1,-5.602103296E-1,-2.334362270E0,2.597365700E0
1.199243033E1,1.132537259E0,-4.728885958E-1,-2.267362534E0,2.578215881E0
1.200237633E1,1.229135601E0,-3.975805512E-1,-2.211133955E0,2.560851027E0
1.201232233E1,1.302238222E0,-3.661237004E-1,-2.230341473E0,2.608504176E0
1.202226733E1,1.315032222E0,-3.599893865E-1,-2.241399727E0,2.623504306E0
1.203221333E1,1.240572170E0,-4.368203384E-1,-2.239625682E0,2.597259039E0
1.204215833E1,1.209145725E0,-4.903893122E-1,-2.169925117E0,2.532013048E0
1.205210433E1,1.172803525E0,-3.887597340E-1,-1.912816613E0,2.277162628E0
1.206205033E1,1.283698455E0,-2.667596260E-1,-1.587226104E0,2.058720265E0
1.207199533E1,1.519298708E0,-1.809356564E-1,-1.253011537E0,1.977636009E0
1.208194133E1,1.818614461E0,-1.866491170E-1,-9.029913604E-1,2.039016882E0
1.209188633E1,2.084372459E0,-2.240296358E-1,-5.761355138E-1,2.174104403E0
1.210183233E1,2.218465778E0,-3.128156586E-1,-4.015516877E-1,2.276112432E0
1.211177833E1,2.184485854E0,-4.766284749E-1,-3.754087865E-1,2.267175535E0
1.212172333E1,2.228077431E0,-6.089015561E-1,-3.660123110E-1,2.338601111E0
1.213166933E1,2.192211488E0,-6.494020030E-1,-4.914561367E-1,2.338598577E0
1.214161433E1,2.234189672E0,-5.001488999E-1,-6.087775952E-1,2.369042544E0
1.215156033E1,2.263715334E0,-4.330570704E-1,-6.006066960E-1,2.381737589E0
1.216150633E1,2.386598517E0,-2.782935512E-1,-5.736562943E-1,2.470299846E0
1.217145133E1,2.457793484E0,-1.243446954E-1,-4.384628212E-1,2.499691993E0
1.218139733E1,2.531974478E0,2.493691295E-2,-3.372405016E-1,2.554456452E0
1.219134233E1,2.462815950E0,8.944821998E-2,-2.789384991E-1,2.480175412E0
1.220128833E1,2.388833908E0,1.405761275E-1,-1.612334633E-1,2.398392236E0
1.221123433E1,2.208060658E0,1.975014031E-1,-1.506552655E-1,2.221989127E0
1.222117933E1,2.028632121E0,2.553349706E-1,-2.993903053E-1,2.066441092E0
1.223112533E1,1.834311165E0,2.899165003E-1,-3.659497458E-1,1.892793767E0
1.224106992E1,1.709405429E0,3.432412067E-1,-3.898362064E-1,1.786575975E0
1.225101592E1,1.710899832E0,4.483434463E-1,-3.500704622E-1,1.802980701E0
1.226096192E1,1.824062165E0,5.236721022E-1,-1.843165165E-1,1.906674548E0
1.227090692E1,1.865196451E0,6.647128641E-1,1.387327927E-1,1.984955359E0
1.228085292E1,1.855370643E0,7.847881418E-1,3.751135021E-1,2.049146845E0
1.229079792E1,1.988107409E0,7.671646339E-1,5.457861257E-1,2.199771611E0
1.230074392E1,1.987968537E0,5.444480634E-1,6.775537151E-1,2.169682381E0
1.231068992E1,1.898568849E0,4.142424115E-1,7.514689529E-1,2.083474511E0
1.232063492E1,1.773711645E0,3.040473933E-1,7.558555341E-1,1.951874844E0
1.233058092E1,1.680794857E0,1.273910034E-1,7.732919312E-1,1.854529652E0
1.234052592E1,1.818225913E0,1.825220243E-2,8.821682560E-1,2.021014460E0
1.235047192E1,1.959905995E0,1.277728083E-2,9.666073126E-1,2.185343100E0
1.236041792E1,2.004645381E0,2.549716758E-2,1.039627926E0,2.258335545E0
1.237036292E1,2.054365717E0,2.578333396E-2,1.068635378E0,2.315829194E0
1.238030892E1,1.956000347E0,6.225040801E-2,1.090580564E0,2.240352302E0
1.239025392E1,1.770866829E0,1.126595465E-1,1.066802276E0,2.070441643E0
1.240019992E1,1.627783123E0,1.416078321E-1,1.066352041E0,1.951111824E0
1.241014592E1,1.559687619E0,7.619609043E-2,1.032560982E0,1.872061295E0
1.242009092E1,1.504488587E0,-2.162768126E-2,1.067378812E0,1.844790285E0
1.243003692E1,1.489094184E0,-1.013140478E-1,1.200829815E0,1.915635213E0
1.243998192E1,1.495724196E0,-2.327870838E-1,1.261511634E0,1.970480220E0
1.244992792E1,1.443877666E0,-2.719117539E-1,1.461278833E0,2.072210063E0
1.245987392E1,1.267018834E0,-3.450148865E-1,1.667110764E0,2.122175841E0
1.246981892E1,1.159332710E0,-4.672823585E-1,1.724290686E0,2.129690941E0
1.247976492E1,1.032405226E0,-5.308356723E-1,1.727196168E0,2.081070317E0
1.248970992E1,8.854419659E-1,-4.212986121E-1,1.781613865E0,2.033629258E0
1.249965592E1,8.127208757E-1,-3.804213122E-1,1.813018675E0,2.022936557E0
1.250960192E1,8.403821526E-1,-3.741232762E-1,1.755929385E0,1.982296243E0
1.251954692E1,8.329575044E-1,-3.087057969E-1,1.714035255E0,1.930552855E0
1.252949292E1,8.082788922E-1,-1.665653931E-1,1.722262287E0,1.909776475E0
1.253943792E1,7.924898019E-1,-5.678947404E-2,1.775079017E0,1.944780359E0
1.254938392E1,7.503569587E-1,5.253577083E-2,1.779362102E0,1.931819107E0
1.255932992E1,5.955477947E-1,2.070787038E-1,1.795357745E0,1.902857903E0
1.256927492E1,3.964980123E-1,3.033355679E-1,1.856197439E0,1.922158181E0
1.257922092E1,3.419589123E-1,2.199792695E-1,1.848686691E0,1.892873281E0
1.258916592E1,2.367402035E-1,6.366287604E-2,1.882753154E0,1.898646445E0
1.259911192E1,1.097462809E-1,-2.871713787E-2,2.026224530E0,2.029397637E0
1.260905792E1,-1.188293092E-2,-1.892137058E-1,2.099456813E0,2.107999512E0
1.261900292E1,-1.621444595E-1,-2.932285094E-1,2.204947016E0,2.230261224E0
1.262894892E1,-2.711969683E-1,-3.127984093E-1,2.295432678E0,2.332466896E0
1.263889392E1,-2.824970049E-1,-3.029356183E-1,2.338766393E0,2.375163739E0
1.264883992E1,-2.782692487E-1,-2.227435407E-1,2.284122409E0,2.311766346E0
1.265878592E1,-4.012660878E-1,-2.153988531E-1,2.244813917E0,2.290545930E0
1.266873092E1,-5.231262647E-1,-2.832962827E-1,2.176830094E0,2.256658400E0
1.267867692E1,-5.889053211E-1,-2.997937632E-1,2.117696033E0,2.218405343E0
1.268862292E1,-7.267108916E-1,-2.772583017E-1,2.092823147E0,2.232686635E0
1.269856792E1,-8.386494765E-1,-2.905772357E-1,2.076559117E0,2.258288254E0
1.270851392E1,-8.854758798E-1,-2.873285227E-1,2.108691321E0,2.305038894E0
1.271845892E1,-9.405142589E-1,-3.400902884E-1,2.160062619E0,2.380356904E0
1.272840492E1,-1.013067534E0,-4.246856117E-1,2.159269152E0,2.422623984E0
1.273835092E1,-1.081693965E0,-4.484260382E-1,2.132260278E0,2.432628545E0
1.274829592E1,-1.096691708E0,-5.687337428E-1,2.084786149E0,2.423329128E0
1.275824192E1,-1.229212784E0,-7.422993493E-1,2.017970016E0,2.476726747E0
1.276818692E1,-1.464247757E0,-8.237496746E-1,1.949089816E0,2.573234566E0
1.277813292E1,-1.628216986E0,-8.991838729E-1,1.883650117E0,2.647217398E0
1.278807892E1,-1.670302759E0,-9.355079459E-1,1.784849129E0,2.617398105E0
1.279802392E1,-1.698239733E0,-9.350343946E-1,1.725681154E0,2.595435022E0
1.280796992E1,-1.779340467E0,-9.883192668E-1,1.670578163E0,2.633184170E0
1.281791492E1,-1.869089088E0,-1.021715274E0,1.654695371E0,2.697297331E0
1.282786092E1,-1.993719128E0,-1.034055676E0,1.556879640E0,2.732775387E0
1.283780692E1,-2.118986806E0,-1.098540232E0,1.558799865E0,2.850745998E0
1.284775192E1,-2.122797144E0,-1.137246899E0,1.481009678E0,2.827187275E0
1.285769792E1,-2.112121152E0,-1.154951537E0,1.386943181E0,2.778233287E0
1.286764292E1,-2.148074950E0,-1.084574011E0,1.315186150E0,2.742305852E0
1.287758892E1,-2.222111079E0,-1.003011054E0,1.296777361E0,2.761419987E0
1.288753492E1,-2.361854124E0,-9.782335507E-1,1.222622972E0,2.833743587E0
1.289747992E1,-2.419058750E0,-9.723589993E-1,1.154880640E0,2.851504262E0
1.290742592E1,-2.441098222E0,-9.996542405E-1,1.028004831E0,2.831088671E0
1.291737092E1,-2.451360378E0,-1.050864667E0,8.954478675E-1,2.813416274E0
1.292731692E1,-2.381568889E0,-1.037041922E0,7.756466049E-1,2.710895420E0
1.293726292E1,-2.354682953E0,-1.046696187E0,6.120479429E-1,2.648529290E0
1.294720792E1,-2.420719944E0,-1.103485003E0,4.731110823E-1,2.702109971E0
1.295715392E1,-2.432581898E0,-1.148204070E0,3.181721467E-1,2.708700942E0
1.296709892E1,-2.376083470E0,-1.255549813E0,2.166223830E-1,2.696127453E0
1.297704492E1,-2.370966863E0,-1.376333992E0,1.087704903E-1,2.743649057E0
1.298699092E1,-2.322197430E0,-1.440495197E0,1.035834253E-2,2.732715612E0
1.299693592E1,-2.244839644E0,-1.449429451E0,-1.289188260E-1,2.675214164E0
1.300688192E1,-2.152466209E0,-1.472086827E0,-3.551236260E-1,2.631779473E0
1.301682692E1,-2.102051077E0,-1.465358289E0,-5.966855532E-1,2.630955586E0
1.302677292E1,-2.101671446E0,-1.454975535E0,-8.368646139E-1,2.689668949E0
1.303671892E1,-2.156045289E0,-1.416502756E0,-9.956749910E-1,2.765208859E0
1.304666392E1,-2.042120186E0,-1.355748431E0,-1.093152754E0,2.683894858E0
1.305660992E1,-1.908964468E0,-1.352984160E0,-1.203269273E0,2.631077426E0
1.306655492E1,-1.776477086E0,-1.295252553E0,-1.254277459E0,2.531158225E0
1.307650092E1,-1.655123095E0,-1.228518866E0,-1.311943284E0,2.443335066E0
1.308644692E1,-1.548479822E0,-1.217090044E0,-1.362560291E0,2.394925569E0
1.309639192E1,-1.430078968E0,-1.247471446E0,-1.421927657E0,2.371326448E0
1.310633792E1,-1.404824258E0,-1.224491011E0,-1.566828092E0,2.434719636E0
1.311628292E1,-1.502627419E0,-1.223393635E0,-1.735612065E0,2.601332425E0
1.312622892E1,-1.571923648E0,-1.292953574E0,-1.949507307E0,2.818377484E0
1.313617492E1,-1.568707387E0,-1.302832591E0,-2.092830164E0,2.922011931E0
1.314611992E1,-1.498400759E0,-1.295001854E0,-2.214000844E0,2.970527626E0
1.315606592E1,-1.449231230E0,-1.307463148E0,-2.332566590E0,3.041479564E0
1.316601092E1,-1.451757227E0,-1.331891353E0,-2.456775484E0,3.149171225E0
1.317595692E1,-1.405023064E0,-1.309295665E0,-2.520486161E0,3.168784536E0
1.318590292E1,-1.288374035E0,-1.328235966E0,-2.560546020E0,3.159195207E0
1.319584792E1,-1.265859770E0,-1.363995490E0,-2.565731916E0,3.169521244E0
1.320579392E1,-1.293452049E0,-1.394470301E0,-2.576574408E0,3.202546066E0
1.321573892E1,-1.198584484E0,-1.444346758E0,-2.520977327E0,3.142939549E0
1.322568492E1,-1.008176119E0,-1.461365080E0,-2.409121846E0,2.992636806E0
1.323563092E1,-7.917067136E-1,-1.420325519E0,-2.310349510E0,2.825214852E0
1.324557633E1,-5.203157274E-1,-1.344362002E0,-2.210591333E0,2.639081600E0
1.325552233E1,-2.529806623E-1,-1.278668242E0,-2.139358213E0,2.505163717E0
1.326546833E1,-7.641514175E-2,-1.154698499E0,-2.114418669E0,2.410380510E0
1.327541333E1,-6.766164064E-2,-1.026842405E0,-2.092648900E0,2.331986887E0
1.328535933E1,-1.210915969E-1,-9.525494367E-1,-1.983666156E0,2.203847777E0
1.329530433E1,-3.487403668E-2,-9.566614911E-1,-1.990046638E0,2.208325843E0
1.330525033E1,1.512596117E-1,-9.470533463E-1,-1.960900607E0,2.182869831E0
1.331519633E1,3.492921247E-1,-8.087965170E-1,-1.887444960E0,2.082931893E0
1.332514133E1,5.744328411E-1,-6.411565518E-1,-1.901183578E0,2.086996361E0
1.333508733E1,7.870303298E-1,-5.375286877E-1,-1.850174223E0,2.081225236E0
1.334503233E1,7.915062272E-1,-4.578109655E-1,-1.846188760E0,2.060215020E0
1.335497833E1,7.294663189E-1,-4.371188387E-1,-1.878433816E0,2.061966923E0
1.336492433E1,7.260525683E-1,-5.175469977E-1,-1.899943383E0,2.098759654E0
1.337486933E1,7.338179630E-1,-5.585894814E-1,-1.835457366E0,2.054121406E0
1.338481533E1,8.397067992E-1,-5.103984842E-1,-1.723125921E0,1.983627248E0
1.339476033E1,1.055326969E0,-4.674723199E-1,-1.674585260E0,2.033834107E0
1.340470633E1,1.125680668E0,-4.425973874E-1,-1.605561218E0,2.010193085E0
1.341465233E1,1.077165443E0,-3.989888531E-1,-1.597904874E0,1.967937368E0
1.342459733E1,1.121118524E0,-4.521508607E-1,-1.668200685E0,2.060155497E0
1.343454333E1,1.168337130E0,-5.199689144E-1,-1.664105296E0,2.098720028E0
1.344448833E1,1.219176477E0,-4.635102466E-1,-1.551642873E0,2.027024577E0
1.345443433E1,1.374359242E0,-3.942982167E-1,-1.552808223E0,2.110816853E0
1.346438033E1,1.446176498E0,-3.333991733E-1,-1.455673108E0,2.078837576E0
1.347432533E1,1.480537954E0,-2.856797540E-1,-1.392698010E0,2.052611337E0
1.348427133E1,1.366337446E0,-2.373972479E-1,-1.428246742E0,1.990759711E0
1.349421633E1,1.189087802E0,-2.386567381E-1,-1.420706173E0,1.867964900E0
1.350416233E1,1.056659550E0,-2.962053269E-1,-1.449538209E0,1.818083612E0
1.351410833E1,9.649304042E-1,-3.350285000E-1,-1.460159091E0,1.781965026E0
1.352405333E1,9.490729015E-1,-3.216888084E-1,-1.391122770E0,1.714481153E0
1.353399933E1,1.057821538E0,-2.440651202E-1,-1.289356075E0,1.685524630E0
1.354394433E1,1.332471250E0,-9.165539771E-2,-1.169257774E0,1.775118049E0
1.355389033E1,1.592466671E0,6.375058427E-2,-1.066063188E0,1.917421434E0
1.356383633E1,1.807207859E0,1.928079893E-1,-1.024590057E0,2.086374835E0
1.357378133E1,1.865485888E0,1.968963625E-1,-1.061844422E0,2.155532266E0
1.358372733E1,1.710719299E0,9.337330967E-2,-1.095392822E0,2.033510395E0
1.359367233E1,1.566382827E0,3.347618669E-2,-1.229042045E0,1.991286058E0
1.360361833E1,1.486209460E0,9.198313415E-2,-1.107216477E0,1.855588258E0
1.361356433E1,1.366917636E0,2.289581077E-1,-7.861207223E-1,1.593383642E0
1.362350933E1,1.542719291E0,2.938854441E-1,-5.709759307E-1,1.671037097E0
1.363345533E1,1.792146016E0,3.365095997E-1,-3.281632841E-1,1.852759346E0
1.364340033E1,1.825767360E0,2.989587808E-1,-1.750785005E-1,1.858347461E0
1.365334633E1,1.811719278E0,1.839631985E-1,-1.545243680E-1,1.827579542E0
1.366329233E1,1.719824875E0,1.712766409E-2,-2.210323530E-1,1.734054861E0
1.367323733E1,1.759489316E0,-7.449659720E-2,-2.563115287E-1,1.779620184E0
1.368318333E1,1.933220765E0,-1.055113254E-1,-2.640970963E-1,1.954027237E0
1.369312833E1,2.112186494E0,-9.985275552E-2,-2.552689701E-1,2.129897792E0
1.370307433E1,2.253040657E0,5.553605027E-2,-6.225472033E-2,2.254584685E0
1.371302033E1,2.356209807E0,2.247992390E-1,6.880886436E-2,2.367909207E0
1.372296533E1,2.433098500E0,3.376600028E-1,1.773659313E-1,2.462811658E0
1.373291133E1,2.345959053E0,3.389608256E-1,2.513197607E-1,2.383606499E0
1.374285733E1,2.103563898E0,3.433428021E-1,3.162074822E-1,2.154727946E0
1.375280233E1,1.801015511E0,2.066917460E-1,3.064315224E-1,1.838553406E0
1.376274833E1,1.637999817E0,1.300665613E-1,3.487302804E-1,1.679754005E0
1.377269333E1,1.672181908E0,9.470618248E-2,4.093571359E-1,1.724162075E0
1.378263933E1,1.832004731E0,1.865203321E-2,4.504080981E-1,1.886652243E0
1.379258433E1,2.020958528E0,-4.808914606E-2,5.689194649E-1,2.100060784E0
1.380253033E1,1.998741301E0,3.652817745E-2,7.444306594E-1,2.133184967E0
1.381247633E1,1.930169395E0,1.854932687E-1,1.015590608E0,2.188923463E0
1.382242133E1,1.965070110E0,2.757313013E-1,1.110483901E0,2.273917936E0
1.383236733E1,2.025091048E0,2.778943326E-1,1.214761391E0,2.377785576E0
1.384231333E1,2.024960362E0,2.223127471E-1,1.320719955E0,2.427795013E0
1.385225833E1,1.914023917E0,1.874773751E-1,1.399633977E0,2.378573226E0
1.386220433E1,1.825804051E0,1.020341324E-1,1.441707618E0,2.328624541E0
1.387214933E1,1.776774709E0,9.083123267E-2,1.543620493E0,2.355407164E0
1.388209533E1,1.768405151E0,8.615916118E-2,1.743143864E0,2.484598702E0
1.389204133E1,1.856998800E0,3.613433093E-3,1.820045274E0,2.600196608E0
1.390198633E1,1.803172549E0,-4.871841609E-2,2.033541736E0,2.718289300E0
1.391193233E1,1.628536683E0,-2.683462679E-2,2.305579936E0,2.822862141E0
1.392187733E1,1.454442269E0,-8.904213086E-2,2.448893437E0,2.849633289E0
1.393182333E1,1.224248790E0,-2.523095481E-1,2.606002859E0,2.890276131E0
1.394176933E1,1.044255851E0,-3.492514135E-1,2.703501672E0,2.919138250E0
1.395171433E1,9.980507147E-1,-4.713959478E-1,2.718581641E0,2.934110685E0
1.396166033E1,8.736232813E-1,-6.014453329E-1,2.697481379E0,2.898509947E0
1.397160533E1,7.974896099E-1,-6.270517521E-1,2.668756932E0,2.855073929E0
1.398155133E1,8.293246293E-1,-7.082198761E-1,2.589292687E0,2.809589178E0
1.399149733E1,7.157475085E-1,-6.765599808E-1,2.545529786E0,2.729422978E0
1.400144233E1,5.792438205E-1,-5.722555938E-1,2.499271878E0,2.628566109E0
1.401138833E1,4.688119901E-1,-4.532529147E-1,2.390703117E0,2.478040411E0
1.402133333E1,3.140370689E-1,-3.672742863E-1,2.339204934E0,2.388595698E0
1.403127933E1,1.830093715E-1,-3.869929978E-1,2.304057321E0,2.343488030E0
1.404122533E1,5.321368240E-2,-4.329933357E-1,2.213185742E0,2.255771721E0
1.405117033E1,-1.259971916E-1,-4.608015239E-1,2.259737180E0,2.309680814E0
1.406111633E1,-2.411903366E-1,-4.973159239E-1,2.316297297E0,2.381329267E0
1.407106133E1,-4.093572821E-1,-5.416091672E-1,2.376275112E0,2.471355353E0
1.408100733E1,-6.688031376E-1,-4.997792096E-1,2.495255426E0,2.631230992E0
1.409095333E1,-7.786153825E-1,-4.776944223E-1,2.559164908E0,2.717307289E0
1.410089833E1,-7.720824346E-1,-5.790674539E-1,2.621540081E0,2.793546634E0
1.411084433E1,-8.750934175E-1,-5.959056808E-1,2.717180648E0,2.916155474E0
1.412078933E1,-9.506879025E-1,-5.945324622E-1,2.791108750E0,3.007916952E0
1.413073533E1,-9.963707366E-1,-6.322288768E-1,2.855861986E0,3.090051080E0
1.414068133E1,-1.044849636E0,-5.999111697E-1,2.865012293E0,3.108037904E0
1.415062633E1,-1.123759273E0,-6.355017096E-1,2.822184947E0,3.103453754E0
1.416057233E1,-1.194086148E0,-7.371479523E-1,2.780565636E0,3.114606570E0
1.417051733E1,-1.347817706E0,-8.059946774E-1,2.698399976E0,3.122115056E0
1.418046333E1,-1.550463928E0,-8.777951235E-1,2.653234913E0,3.195953407E0
1.419040933E1,-1.551563644E0,-1.024355584E0,2.544598909E0,3.151450096E0
1.420035433E1,-1.527806699E0,-1.159603801E0,2.466799951E0,3.124736194E0
1.421030033E1,-1.599997593E0,-1.172831007E0,2.367587904E0,3.088850490E0
1.422024533E1,-1.689001278E0,-1.202407393E0,2.156067801E0,2.991176561E0
1.423019133E1,-1.747640226E0,-1.194568543E0,1.974716408E0,2.894951684E0
1.424013733E1,-1.822822848E0,-1.267997366E0,1.747480744E0,2.825630797E0
1.425008242E1,-1.912386989E0,-1.300027243E0,1.558241456E0,2.788442444E0
1.426002842E1,-2.016449886E0,-1.301800265E0,1.347589080E0,2.752589763E0
1.426997342E1,-2.083417901E0,-1.274283707E0,1.148553953E0,2.698815536E0
1.427991942E1,-2.105696523E0,-1.276691444E0,8.675508016E-1,2.610851065E0
1.428986542E1,-2.182838401E0,-1.262338576E0,6.713047957E-1,2.609393089E0
1.429981042E1,-2.321121250E0,-1.220366093E0,5.331064385E-1,2.676023119E0
1.430975642E1,-2.354799458E0,-1.183455544E0,3.276317722E-1,2.655746617E0
1.431970142E1,-2.513136211E0,-1.123639186E0,1.172343349E-1,2.755387908E0
1.432964742E1,-2.697451266E0,-1.096408630E0,4.639590204E-2,2.912131143E0
1.433959342E1,-2.703000858E0,-1.073734516E0,-7.512736559E-2,2.909426674E0
1.434953842E1,-2.662733715E0,-1.039729302E0,-1.673496509E-1,2.863423435E0
1.435948442E1,-2.565700049E0,-1.030855860E0,-1.600570035E-1,2.769674852E0
1.436942942E1,-2.477110638E0,-1.016343583E0,-2.055822551E-1,2.685385532E0
1.437937542E1,-2.359660833E0,-9.589277988E-1,-2.839823073E-1,2.562847581E0
1.438932142E1,-2.380394475E0,-9.754736649E-1,-4.192494553E-1,2.606452922E0
1.439926642E1,-2.557713921E0,-1.094775868E0,-5.683002448E-1,2.839612627E0
1.440921242E1,-2.746894444E0,-1.197810751E0,-7.506731468E-1,3.089286302E0
1.441915842E1,-2.732169109E0,-1.274176995E0,-8.682220620E-1,3.137209684E0
1.442910342E1,-2.565652101E0,-1.395469006E0,-9.485832703E-1,3.070784048E0
1.443904942E1,-2.422671306E0,-1.472126149E0,-9.419121820E-1,2.987254629E0
1.444899442E1,-2.281925317E0,-1.566867853E0,-9.658255398E-1,2.931736175E0
1.445894042E1,-2.273434137E0,-1.639041937E0,-1.054781570E0,2.994582676E0
1.446888642E1,-2.268077064E0,-1.715706974E0,-1.136072486E0,3.062431172E0
1.447883142E1,-2.201521132E0,-1.777737453E0,-1.233302327E0,3.086758879E0
1.448877742E1,-2.129432564E0,-1.754661855E0,-1.333364559E0,3.064503601E0
1.449872242E1,-2.026217806E0,-1.724250194E0,-1.509551107E0,3.058977259E0
1.450866842E1,-1.905734758E0,-1.708565915E0,-1.679735488E0,3.061459417E0
1.451861442E1,-1.874079102E0,-1.748562186E0,-1.852302609E0,3.162383145E0
1.452855942E1,-1.942599699E0,-1.719653552E0,-1.922352253E0,3.228984378E0
1.453850542E1,-1.942771607E0,-1.690107571E0,-2.059867070E0,3.297556287E0
1.454845042E1,-1.871610700E0,-1.693277054E0,-2.225271353E0,3.364810008E0
1.455839642E1,-1.792624172E0,-1.693022701E0,-2.358931101E0,3.412386734E0
1.456834242E1,-1.786288568E0,-1.726780138E0,-2.522802243E0,3.540780656E0
1.457828742E1,-1.847622059E0,-1.693244310E0,-2.716190130E0,3.695737056E0
1.458823342E1,-1.911724938E0,-1.630678518E0,-2.846841486E0,3.797145127E0
1.459817842E1,-1.894575639E0,-1.620389172E0,-2.889543702E0,3.816351756E0
1.460812442E1,-1.708314193E0,-1.548464327E0,-2.931320304E0,3.729439351E0
1.461807042E1,-1.467061437E0,-1.444185375E0,-2.855262061E0,3.520008821E0
1.462801542E1,-1.223443336E0,-1.383984197E0,-2.761671528E0,3.322507409E0
1.463796142E1,-9.833382431E-1,-1.393880610E0,-2.653698598E0,3.154674864E0
1.464790642E1,-8.138577937E-1,-1.439740907E0,-2.551453015E0,3.040580681E0
1.465785242E1,-6.530462801E-1,-1.391707784E0,-2.447015312E0,2.889844968E0
1.466779842E1,-4.768834866E-1,-1.353289239E0,-2.436022546E0,2.827192153E0
1.467774342E1,-3.811584999E-1,-1.269105705E0,-2.348679762E0,2.696703120E0
1.468768942E1,-2.331874719E-1,-1.208076269E0,-2.395206057E0,2.692737775E0
1.469763442E1,-1.787166381E-1,-1.180444959E0,-2.430539612E0,2.707935144E0
1.470758042E1,-9.712912247E-2,-1.136523891E0,-2.467574122E0,2.718463292E0
1.471752642E1,5.240640119E-2,-1.103235108E0,-2.509232025E0,2.741554211E0
1.472747142E1,2.014947590E-1,-9.245842507E-1,-2.403627217E0,2.583191819E0
1.473741742E1,4.780144843E-1,-7.381867102E-1,-2.283925357E0,2.447393002E0
1.474736342E1,8.948677506E-1,-5.827238640E-1,-2.130703164E0,2.383327793E0
1.475730842E1,1.209140097E0,-4.367180121E-1,-2.081611111E0,2.446599112E0
1.476725442E1,1.343858995E0,-4.045387378E-1,-2.102466960E0,2.527840166E0
1.477719942E1,1.273976875E0,-4.827692208E-1,-2.146480706E0,2.542334089E0
1.478714542E1,1.150525780E0,-5.541719100E-1,-2.214266893E0,2.556128703E0
1.479709042E1,9.510908487E-1,-5.654535279E-1,-2.248387150E0,2.505904282E0
1.480703642E1,7.788305600E-1,-5.728657508E-1,-2.192422864E0,2.396136521E0
1.481698242E1,7.930935270E-1,-5.545119256E-1,-2.188744966E0,2.393132956E0
1.482692742E1,9.316118731E-1,-4.850557745E-1,-2.095714011E0,2.344183653E0
1.483687342E1,1.142042128E0,-3.627551195E-1,-1.967491003E0,2.303664981E0
1.484681942E1,1.324548712E0,-3.038806745E-1,-1.821639810E0,2.272695394E0
1.485676442E1,1.425928614E0,-2.577908742E-1,-1.772683997E0,2.289571379E0
1.486671042E1,1.535908455E0,-2.260434169E-1,-1.741971497E0,2.333361331E0
1.487665542E1,1.575611487E0,-2.507508266E-1,-1.731703786E0,2.354617918E0
1.488660142E1,1.518627155E0,-2.268082327E-1,-1.680891482E0,2.276634926E0
1.489654742E1,1.375932289E0,-2.043331437E-1,-1.605886908E0,2.124573948E0
1.490649242E1,1.168507649E0,-1.870315249E-1,-1.554325576E0,1.953540098E0
1.491643842E1,1.021887693E0,-1.834948365E-1,-1.522243658E0,1.842593435E0
1.492638342E1,9.584839220E-1,-2.617832069E-1,-1.546845233E0,1.838464591E0
1.493632942E1,9.593904597E-1,-2.617035386E-1,-1.492756149E0,1.793666557E0
1.494627542E1,1.116689112E0,-2.344768560E-1,-1.201810393E0,1.657203123E0
1.495622042E1,1.487509296E0,-2.208810563E-1,-9.921649075E-1,1.801628028E0
1.496616642E1,1.908425939E0,-1.405400209E-1,-8.632928592E-1,2.099313131E0
1.497611142E1,2.158531087E0,-1.145378914E-1,-8.204006088E-1,2.312019148E0
1.498605742E1,2.175671469E0,-1.459390475E-1,-8.568626761E-1,2.342873917E0
1.499600342E1,2.008302961E0,-2.140063387E-1,-9.733854049E-1,2.241998805E0
1.500594842E1,1.812869133E0,-2.320793514E-1,-9.914012611E-1,2.079238269E0
1.501589442E1,1.807634121E0,-2.513596679E-1,-9.282045543E-1,2.047507385E0
1.502583942E1,1.956214940E0,-2.127726493E-1,-7.198945731E-1,2.095303627E0
1.503578542E1,2.152822596E0,-1.367238356E-1,-5.318674135E-1,2.221760897E0
1.504573142E1,2.378429811E0,-9.390482157E-2,-4.269783050E-1,2.418275616E0
1.505567642E1,2.477112392E0,-1.328155567E-1,-2.899330187E-1,2.497556192E0
1.506562242E1,2.372157357E0,-1.760726734E-1,-2.595871389E-1,2.392805381E0
1.507556742E1,2.233529960E0,-1.727459731E-1,-2.521284306E-1,2.254343807E0
1.508551342E1,2.128667018E0,-1.965279148E-1,-1.822968882E-1,2.145478653E0
1.509545942E1,2.068237944E0,-2.568831671E-1,1.533490777E-2,2.084186248E0
1.510540442E1,2.129519834E0,-2.664744828E-1,1.884329563E-1,2.154383985E0
1.511535042E1,2.315956112E0,-2.443024806E-1,3.982702303E-1,2.362616260E0
1.512529542E1,2.426572130E0,-2.136590872E-1,6.420383120E-1,2.519149798E0
1.513524142E1,2.408694999E0,-2.744235350E-2,8.335626912E-1,2.548998125E0
1.514518742E1,2.390354915E0,1.401579236E-1,1.068983873E0,2.622244722E0
1.515513242E1,2.357794841E0,2.245036623E-1,1.226081600E0,2.666997281E0
1.516507842E1,2.373657460E0,3.064361271E-1,1.355885695E0,2.750741510E0
1.517502342E1,2.346606778E0,3.421423322E-1,1.546941712E0,2.831369529E0
1.518496942E1,2.226411413E0,3.763197096E-1,1.710873665E0,2.832951289E0
1.519491542E1,2.251077162E0,3.018736178E-1,1.831948451E0,2.917963536E0
1.520486042E1,2.380911662E0,8.158641927E-2,1.934398102E0,3.068760776E0
1.521480642E1,2.454795325E0,-9.174347140E-2,1.956573667E0,3.140480451E0
1.522475142E1,2.457702560E0,-1.139874492E-1,1.931615412E0,3.128007850E0
1.523469742E1,2.313046392E0,-8.101076089E-2,2.007269027E0,3.063637593E0
1.524464367E1,2.243797817E0,-9.004142001E-2,2.013740140E0,3.016270123E0
1.525458867E1,2.244827219E0,-3.272365004E-2,1.976775212E0,2.991314146E0
1.526453467E1,1.974086370E0,2.650363053E-1,2.176955225E0,2.950660145E0
1.527448067E1,1.782403093E0,3.945132481E-1,2.399313726E0,3.014847898E0
1.528442567E1,1.864588925E0,2.847557478E-1,2.436361685E0,3.081174444E0
1.529437167E1,1.866591889E0,6.890227363E-2,2.605925092E0,3.206206229E0
1.530431667E1,1.827670190E0,-1.488896987E-1,2.733813638E0,3.291851071E0
1.531426267E1,1.718140292E0,-2.741214167E-1,2.820419673E0,3.313897365E0
1.532420767E1,1.533745423E0,-4.113039663E-1,2.864812903E0,3.275469271E0
1.533415367E1,1.355346581E0,-5.500889455E-1,2.886240025E0,3.235729236E0
1.534409967E1,1.261134050E0,-5.534879319E-1,2.883529256E0,3.195551432E0
1.535404467E1,1.120376659E0,-5.794158018E-1,2.842756621E0,3.110021179E0
1.536399067E1,1.066056464E0,-5.953789929E-1,2.768247891E0,3.025582409E0
1.537393667E1,1.080518748E0,-5.489203794E-1,2.726781777E0,2.983986127E0
1.538388167E1,1.040734658E0,-5.036540133E-1,2.650664477E0,2.891853759E0
1.539382767E1,1.012236352E0,-4.706508663E-1,2.527350792E0,2.762903672E0
1.540377267E1,8.971976468E-1,-4.214421612E-1,2.469872078E0,2.661361530E0
1.541371867E1,6.494778706E-1,-3.191943862E-1,2.462360160E0,2.566500364E0
1.542366467E1,3.555298613E-1,-2.333294861E-1,2.474434075E0,2.510710681E0
1.543360967E1,7.227845594E-2,-1.734803103E-1,2.462588786E0,2.469749607E0
1.544355567E1,-2.772134974E-1,-2.314814736E-1,2.533048319E0,2.558664648E0
1.545350067E1,-5.310721191E-1,-3.991201231E-1,2.502154555E0,2.588843736E0
1.546344667E1,-6.998107760E-1,-4.424937455E-1,2.431231338E0,2.568349987E0
1.547339267E1,-9.523101394E-1,-4.474631479E-1,2.502446331E0,2.714655689E0
1.548333767E1,-1.026344368E0,-5.140310669E-1,2.559913352E0,2.805488739E0
1.549328367E1,-9.601757408E-1,-5.811043315E-1,2.618276165E0,2.848682112E0
1.550322867E1,-1.010970284E0,-7.062552117E-1,2.687984916E0,2.957384021E0
1.551317467E1,-1.251041463E0,-8.094702624E-1,2.813468503E0,3.183700970E0
1.552312067E1,-1.389981394E0,-8.378225340E-1,2.917260089E0,3.338323127E0
1.553306567E1,-1.579161624E0,-9.353109679E-1,2.951030098E0,3.475217502E0
1.554301167E1,-1.742310343E0,-1.077767121E0,2.887175580E0,3.540199165E0
1.555295667E1,-1.807169706E0,-1.105865916E0,2.764724359E0,3.483174206E0
1.556290267E1,-1.900756146E0,-1.172652521E0,2.681202731E0,3.489532339E0
1.557284867E1,-2.000846445E0,-1.221041593E0,2.540263783E0,3.456482194E0
1.558279367E1,-2.072383620E0,-1.262822580E0,2.360210472E0,3.385275204E0
1.559273967E1,-2.091716562E0,-1.293285696E0,2.255164073E0,3.336709616E0
1.560268467E1,-2.179473182E0,-1.373425295E0,2.070789669E0,3.305233766E0
1.561263067E1,-2.224468530E0,-1.377248936E0,1.908520079E0,3.238444652E0
1.562257667E1,-2.195532998E0,-1.333544361E0,1.716719127E0,3.089632708E0
1.563252167E1,-2.125942069E0,-1.372963073E0,1.480937172E0,2.932206027E0
1.564246767E1,-2.180550970E0,-1.411602643E0,1.259118953E0,2.886659851E0
1.565241267E1,-2.377794511E0,-1.477640804E0,1.033082553E0,2.984055738E0
1.566235867E1,-2.496904633E0,-1.514079337E0,7.769136965E-1,3.021682292E0
1.567230467E1,-2.615738181E0,-1.538693922E0,5.008222067E-1,3.075790646E0
1.568224967E1,-2.767642412E0,-1.541148291E0,2.769966388E-1,3.179891462E0
1.569219567E1,-2.823034255E0,-1.494381090E0,9.033363461E-2,3.195443227E0
1.570214067E1,-2.625206870E0,-1.406763780E0,-1.052680081E-1,2.980230997E0
1.571208667E1,-2.370949760E0,-1.362187824E0,-2.616921365E-1,2.746896650E0
1.572203267E1,-2.322481605E0,-1.322048881E0,-3.869973832E-1,2.700277953E0
1.573197767E1,-2.389583813E0,-1.239312095E0,-4.726491523E-1,2.733020763E0
1.574192367E1,-2.444623654E0,-1.238517166E0,-6.054189545E-1,2.806535532E0
1.575186967E1,-2.573455795E0,-1.299996107E0,-7.206839472E-1,2.971876505E0
1.576181467E1,-2.713924626E0,-1.270141832E0,-7.809991461E-1,3.096547564E0
1.577176067E1,-2.834652673E0,-1.284547032E0,-9.235723901E-1,3.246275221E0
1.578170567E1,-2.907796955E0,-1.273110902E0,-9.578084224E-1,3.315643448E0
1.579165167E1,-2.924099285E0,-1.235855952E0,-9.530224764E-1,3.314505755E0
1.580159767E1,-2.846794124E0,-1.218902827E0,-9.570208025E-1,3.241272852E0
1.581154267E1,-2.680663617E0,-1.279262611E0,-9.901569736E-1,3.130955300E0
1.582148867E1,-2.593426376E0,-1.303166321E0,-9.633129913E-1,3.058116209E0
1.583143367E1,-2.366857733E0,-1.263631103E0,-1.005455044E0,2.865260710E0
1.584137967E1,-2.197704654E0,-1.325181673E0,-1.113810967E0,2.797603811E0
1.585132567E1,-2.272369798E0,-1.439205302E0,-1.156330749E0,2.927810991E0
1.586127067E1,-2.460625876E0,-1.509830604E0,-1.266025100E0,3.152314658E0
1.587121667E1,-2.449531076E0,-1.529333114E0,-1.429108622E0,3.222020131E0
1.588116167E1,-2.361560155E0,-1.620241823E0,-1.585197705E0,3.273377720E0
1.589110767E1,-2.338065604E0,-1.667314686E0,-1.710381914E0,3.342438530E0
1.590105367E1,-2.325836445E0,-1.638422132E0,-1.825056923E0,3.380055476E0
1.591099867E1,-2.272239697E0,-1.622652483E0,-1.876090252E0,3.363894909E0
1.592094467E1,-2.183195812E0,-1.683412363E0,-1.940560482E0,3.371349303E0
1.593088967E1,-2.168965005E0,-1.644119805E0,-2.043135263E0,3.403225062E0
1.594083567E1,-2.135097932E0,-1.525130282E0,-2.113446862E0,3.369172479E0
1.595078167E1,-2.122043438E0,-1.506883168E0,-2.271545048E0,3.454516195E0
1.596072667E1,-2.123045212E0,-1.519522364E0,-2.497387320E0,3.612923001E0
1.597067267E1,-2.088103859E0,-1.453595592E0,-2.564695789E0,3.612586658E0
1.598061767E1,-1.946105397E0,-1.468268741E0,-2.634397523E0,3.589316038E0
1.599056367E1,-1.785595088E0,-1.480697436E0,-2.715911803E0,3.571693105E0
1.600050967E1,-1.614947900E0,-1.427201114E0,-2.753089569E0,3.496349799E0
1.601045467E1,-1.479560591E0,-1.410274156E0,-2.709371692E0,3.393916278E0
1.602040067E1,-1.440160152E0,-1.317435574E0,-2.641592522E0,3.284464767E0
1.603034567E1,-1.359480563E0,-1.281904968E0,-2.704702690E0,3.287382605E0
1.604029167E1,-1.257892208E0,-1.293562708E0,-2.713042574E0,3.258250649E0
1.605023767E1,-1.118754861E0,-1.294821175E0,-2.770814819E0,3.256622341E0
