"Time (s)","Linear Acceleration x (m/s^2)","Linear Acceleration y (m/s^2)","Linear Acceleration z (m/s^2)","Absolute acceleration (m/s^2)"
2.889287500E-2,-3.349693746E-2,-2.487131450E-2,2.192939758E-2,4.713306252E-2
3.893087500E-2,-1.702309714E-2,-1.233805443E-2,2.178029358E-2,3.027201037E-2
4.896787500E-2,1.813863169E-2,-1.930586156E-2,3.330574036E-2,4.255582910E-2
5.900587500E-2,1.794966384E-2,2.184260298E-2,1.369651794E-2,3.141471535E-2
6.904387500E-2,1.255065554E-2,1.082442043E-2,3.240877748E-2,3.640076771E-2
7.908087500E-2,4.036922255E-2,1.828246177E-2,3.495348573E-2,5.644172837E-2
8.911887500E-2,2.294439885E-2,1.397553063E-2,2.252873719E-2,3.506144455E-2
9.915587500E-2,1.360513464E-2,2.475851806E-2,3.225908875E-2,4.288044674E-2
1.091938750E-1,-1.547236987E-2,2.289404199E-3,2.297721863E-2,2.779547044E-2
1.192318750E-1,-3.676512216E-2,-3.140104640E-2,2.836542785E-2,5.605619876E-2
1.292688750E-1,-3.651309803E-2,-4.609264168E-2,1.204935730E-2,6.002436968E-2
1.393068750E-1,-5.376543115E-2,-2.496417560E-2,1.998169005E-2,6.255557199E-2
1.493448750E-1,-5.255290592E-2,-8.026628243E-3,2.552075744E-2,5.897070240E-2
1.593818750E-1,-4.866594190E-3,-5.165750077E-3,2.971204162E-2,3.054789894E-2
1.694198750E-1,1.180652197E-2,-2.891320232E-3,3.899332702E-2,4.084401114E-2
1.794568750E-1,3.420595575E-2,2.770831958E-2,2.147916198E-2,4.898114721E-2
1.894948750E-1,4.709264346E-2,3.799463172E-2,3.285433531E-2,6.885286092E-2
1.995328750E-1,3.312559130E-2,3.115635870E-2,2.491732478E-2,5.185457126E-2
2.095698750E-1,3.581528537E-2,6.526068253E-3,2.955358207E-2,4.689070746E-2
2.196078750E-1,1.183295093E-2,-1.975078898E-2,1.622836232E-2,2.816863747E-2
2.296448750E-1,-2.156412476E-2,-1.448583724E-2,2.670540333E-2,3.725626825E-2
2.396828750E-1,-4.993151234E-2,-2.538339355E-2,4.781092823E-2,7.364344812E-2
2.497208750E-1,-3.024169429E-2,-2.595393562E-2,2.304387689E-3,3.991837985E-2
2.597578750E-1,-3.276576598E-2,-2.760257634E-2,3.419159353E-2,5.481389157E-2
2.697958750E-1,-2.040539391E-2,-7.800980536E-3,3.569257379E-2,4.184728452E-2
2.798338750E-1,-4.255169579E-3,5.535348924E-3,3.285082698E-2,3.358457070E-2
2.898708750E-1,2.781345755E-2,1.552528946E-2,3.479794979E-2,4.717542096E-2
2.999088750E-1,3.784108521E-2,1.800539511E-2,2.162358820E-2,4.715635217E-2
3.099458750E-1,5.581263271E-2,4.352717581E-2,3.269821465E-2,7.796690481E-2
3.199838750E-1,4.625803566E-2,1.889038034E-2,2.595871389E-2,5.630725672E-2
3.300218750E-1,2.264127325E-2,-4.269079557E-3,2.430921435E-2,3.349313657E-2
3.400588750E-1,-1.173202479E-2,1.055543481E-2,2.700068772E-2,3.127450634E-2
3.500968750E-1,-4.967706253E-2,-9.886289500E-3,4.047033370E-2,6.483361143E-2
3.601338750E-1,-4.021189590E-2,-1.839593430E-3,3.777593672E-2,5.520327953E-2
3.701718750E-1,-2.255476872E-2,-2.983550009E-2,3.972130537E-2,5.455874594E-2
3.802098750E-1,-2.983890336E-2,-3.302450299E-2,2.400515914E-2,5.056901834E-2
3.902468750E-1,-1.749135405E-2,1.865206975E-3,2.101606250E-2,2.740622824E-2
4.002848750E-1,2.250345255E-2,1.757176925E-2,1.353455007E-2,3.159677985E-2
4.103228750E-1,3.921370310E-2,8.270539362E-3,3.479034841E-2,5.307056316E-2
4.203598750E-1,5.204744610E-2,1.827072166E-4,1.667801321E-2,5.465460778E-2
4.303978750E-1,4.046094617E-2,2.741757592E-2,1.922096729E-2,5.251911289E-2
4.404348750E-1,4.656881517E-2,3.843881912E-2,3.314084888E-2,6.888042701E-2
4.504728750E-1,2.015775976E-2,1.452128598E-3,2.430570602E-2,3.161030372E-2
4.605108750E-1,-1.349219202E-2,-2.910895157E-2,3.672928512E-2,4.876895214E-2
4.705478750E-1,-6.290020726E-2,-3.651125707E-2,2.250885665E-2,7.613249368E-2
4.805858750E-1,-7.530419818E-2,-2.873880455E-2,2.251061082E-2,8.368613236E-2
4.906228750E-1,-5.207000813E-2,-2.738656741E-2,1.921921313E-2,6.189255185E-2
5.006608750E-1,-7.896710420E-4,-3.104021838E-2,2.625516772E-2,4.066266801E-2
5.106988750E-1,-4.818215333E-3,-6.944664940E-4,2.910217702E-2,2.950651098E-2
5.207358750E-1,3.350408202E-2,3.800010435E-2,2.940447807E-2,5.857605973E-2
5.307738750E-1,6.191961092E-2,5.763504538E-2,1.353864312E-2,8.566873134E-2
5.408108750E-1,4.579794201E-2,2.920290445E-2,2.461443901E-2,5.963331056E-2
5.508488750E-1,2.400048594E-2,9.704970997E-3,3.954471946E-3,2.618869289E-2
5.608868750E-1,-1.773396553E-4,7.723395294E-4,4.526388109E-2,4.527081719E-2
5.709238750E-1,-2.487986834E-2,-2.407492373E-2,2.834554732E-2,4.474460698E-2
5.809618750E-1,-5.071772074E-2,-2.957091358E-2,2.145752728E-2,6.250721242E-2
5.909998750E-1,-5.571333054E-2,-5.029707753E-2,3.433017254E-2,8.253685210E-2
6.010368750E-1,-5.091024945E-2,-2.441835172E-2,3.433251143E-2,6.608200013E-2
6.110748750E-1,6.128220046E-3,6.402842752E-3,2.805143237E-2,2.941826532E-2
6.211118750E-1,3.779883679E-2,2.107203132E-2,2.775556326E-2,5.141161210E-2
6.311498750E-1,5.060279097E-2,1.660033660E-2,2.012260795E-2,5.693094923E-2
6.411878750E-1,4.158904766E-2,2.554234645E-2,4.302381277E-2,6.506234559E-2
6.512248750E-1,3.576584214E-2,7.382580279E-3,3.239298999E-2,4.881601946E-2
6.612628750E-1,-1.830048307E-3,-1.229816089E-2,3.403839648E-2,3.623818805E-2
6.712998750E-1,-1.275592250E-2,-1.191173759E-2,2.101313889E-2,2.731583895E-2
6.813378750E-1,-6.378659033E-2,-2.356347509E-2,5.214663863E-2,8.569269738E-2
6.913758750E-1,-5.816147751E-2,-3.093096224E-2,2.040678263E-4,6.587506004E-2
7.014128750E-1,-3.281935480E-2,-3.737620187E-2,4.032298386E-2,6.403150430E-2
7.114508750E-1,-1.972504068E-2,-1.500247986E-2,6.195709705E-3,2.554483217E-2
7.214878750E-1,7.136672884E-3,-4.481315212E-3,3.284264088E-2,3.390653839E-2
7.315258750E-1,4.611554175E-2,2.276193146E-2,1.742528737E-2,5.429907324E-2
7.415638750E-1,7.140896127E-2,2.985105003E-2,2.730591238E-2,8.207275911E-2
7.516008750E-1,6.487401256E-2,1.736684719E-2,2.131836355E-2,7.046075156E-2
7.616388750E-1,2.199854548E-2,2.894671418E-2,1.577812672E-2,3.963328838E-2
7.716768750E-1,-3.039403710E-2,-1.176583129E-3,3.658310473E-2,4.757631123E-2
7.817138750E-1,-4.061493808E-2,-8.242248888E-3,3.134107590E-2,5.195931967E-2
7.917518750E-1,-4.650161330E-2,-4.193701638E-2,1.487473190E-2,6.436125412E-2
8.017888750E-1,-6.068332681E-2,-3.779220843E-2,2.176041305E-2,7.472772408E-2
8.118268750E-1,-5.229668824E-2,-9.488021024E-4,3.418633103E-2,6.248639096E-2
8.218648750E-1,-7.110351278E-3,1.155711310E-3,-6.377558112E-3,9.621123188E-3
8.319018750E-1,4.116734921E-2,2.488250644E-3,7.640147388E-2,8.682238907E-2
8.419398750E-1,7.390392708E-2,5.965930576E-2,1.593015432E-2,9.630572681E-2
8.519768750E-1,5.640173055E-2,6.244301895E-2,3.374369681E-2,9.065827540E-2
8.620148750E-1,4.287055177E-2,-1.546332724E-2,2.110844851E-4,4.557459001E-2
8.720528750E-1,1.831841073E-2,1.630094089E-4,6.008423388E-2,6.281485417E-2
8.820894167E-1,-4.440804058E-2,7.114878302E-3,1.861636519E-2,4.867509234E-2
8.921274167E-1,-7.898219733E-2,-1.197488752E-2,3.358523726E-2,8.665768049E-2
9.021654167E-1,-6.305049440E-2,-8.900614307E-2,2.744741499E-2,1.124758594E-1
9.122024167E-1,-2.381276747E-2,-2.812090003E-2,2.116107345E-2,4.249263398E-2
9.222404167E-1,-2.622508425E-2,1.670311512E-2,2.116341233E-2,3.761168861E-2
9.322774167E-1,-1.053010677E-2,4.800121855E-2,4.526797414E-2,6.681459132E-2
9.423154167E-1,4.569096537E-2,2.182263108E-3,-1.434906721E-3,4.576554978E-2
9.523534167E-1,9.029358119E-2,9.852512693E-3,2.146863699E-2,9.333223015E-2
9.623904167E-1,5.197019890E-2,5.386023827E-2,2.176742971E-2,7.794644210E-2
9.724284167E-1,5.291191125E-3,4.521774747E-2,6.277980030E-2,7.754962743E-2
9.824654167E-1,-1.519342799E-2,-2.578189957E-2,5.594615936E-3,3.044415095E-2
9.925034167E-1,-5.102136025E-2,-5.520761948E-2,3.193924606E-2,8.167726666E-2
1.002541417E0,-6.406066029E-2,-5.802457958E-2,2.999387741E-2,9.148908522E-2
1.012578417E0,-5.181175763E-2,-1.990171110E-2,3.673103929E-2,6.655603339E-2
1.022616417E0,-3.693614636E-2,-2.689341415E-2,2.610314012E-2,5.262041958E-2
1.032653417E0,1.954025268E-3,-1.317166182E-2,2.939980030E-2,3.227474473E-2
1.042691417E0,5.015116209E-2,1.509531811E-2,1.712883353E-2,5.510358088E-2
1.052729417E0,4.301988874E-2,5.095337723E-2,4.736770928E-2,8.179643856E-2
1.062766417E0,6.361737739E-2,6.325396380E-2,5.095965385E-2,1.031751955E-1
1.072804417E0,4.009055247E-2,1.665134442E-2,2.506058156E-2,5.012536700E-2
1.082841417E0,2.822199291E-2,-3.174033109E-3,2.116516650E-2,3.541919879E-2
1.092879417E0,-2.717113634E-2,-1.833795093E-2,3.613286912E-2,4.878663060E-2
1.102917417E0,-4.560362259E-2,-3.617654508E-2,2.864726365E-2,6.487756563E-2
1.112954417E0,-7.154974669E-2,-4.220964738E-2,2.804733932E-2,8.767938085E-2
1.122992417E0,-5.796107790E-2,-4.508344423E-2,1.427773118E-2,7.480546172E-2
1.133030417E0,-2.241100259E-2,-2.355901659E-2,1.757322192E-2,3.696076877E-2
1.143067417E0,-1.037014431E-2,-3.708231077E-3,2.505999684E-2,2.737324081E-2
1.153105417E0,2.929558282E-2,2.353891678E-2,1.593073905E-2,4.081789096E-2
1.163142417E0,4.087794858E-2,1.113909200E-2,2.880513847E-2,5.123301721E-2
1.173180417E0,4.079920303E-2,1.843581414E-3,2.206739187E-2,4.642136948E-2
1.183218417E0,2.498224258E-2,2.391220668E-2,4.242271900E-2,5.473201221E-2
1.193255417E0,1.530054396E-2,-3.033517208E-3,3.568321824E-2,3.894356091E-2
1.203293417E0,-2.984721508E-2,-2.153644642E-2,2.834613204E-2,4.645619414E-2
1.213330417E0,-6.006925953E-2,-3.436026286E-2,1.517235518E-2,7.084591707E-2
1.223368417E0,-7.597131981E-2,-4.200648404E-2,3.687663496E-2,9.431899247E-2
1.233406417E0,-3.344968693E-2,-1.838087772E-2,3.642873824E-2,5.276164507E-2
1.243443417E0,1.551179518E-3,-2.701071021E-3,2.625048995E-2,2.643463949E-2
1.253481417E0,2.776476120E-2,9.537260975E-3,1.696920455E-2,3.390863038E-2
1.263518417E0,6.065815637E-2,1.502362119E-2,2.595169723E-2,6.766543961E-2
1.273556417E0,6.559515241E-2,4.517406694E-2,3.029267013E-2,8.521189006E-2
1.283594417E0,5.803936207E-2,3.630505592E-2,3.163986862E-2,7.541688087E-2
1.293631417E0,2.471650718E-2,3.207037901E-3,2.220714033E-2,3.338184987E-2
1.303669417E0,-1.948614309E-3,-1.497337169E-2,3.223394573E-2,3.559531169E-2
1.313707417E0,-2.886872694E-2,-2.001865085E-2,2.160487711E-2,4.124221735E-2
1.323744417E0,-7.599905754E-2,-2.421640808E-2,2.742928863E-3,7.981111968E-2
1.333782417E0,-9.218609649E-2,-3.132154254E-2,3.103409708E-2,1.021882116E-1
1.343819417E0,-2.728620086E-2,-8.619330344E-3,3.028740764E-2,4.166721342E-2
1.353857417E0,4.273524811E-2,2.450397688E-2,4.944873333E-2,6.979916577E-2
1.363895417E0,3.383961855E-2,2.515584093E-2,2.415426314E-2,4.859387353E-2
1.373932417E0,1.078977340E-2,-1.026389172E-2,2.894547164E-2,3.255160537E-2
1.383970417E0,3.832362897E-2,9.076500381E-3,3.797766566E-3,3.956648111E-2
1.394007417E0,6.155042320E-2,2.090008663E-2,2.969099164E-2,7.146204029E-2
1.404045417E0,2.453738367E-2,1.839096417E-2,4.181343913E-2,5.185242957E-2
1.414083417E0,-2.231083247E-2,-1.689293036E-2,1.187277138E-2,3.039912897E-2
1.424120417E0,-6.220093051E-2,-1.629391052E-2,3.028448403E-2,7.107458934E-2
1.434158417E0,-1.835312629E-2,-1.024836462E-2,3.627320230E-2,4.192387657E-2
1.444195417E0,-2.977219485E-2,7.902630726E-3,3.013771892E-2,4.309428338E-2
1.454233417E0,-3.859408553E-2,-2.066277647E-2,8.731062412E-3,4.463950291E-2
1.464271417E0,9.580423019E-3,-2.724435216E-2,3.073588908E-2,4.217504128E-2
1.474308417E0,3.925501733E-2,1.096525610E-2,2.804324627E-2,4.947339576E-2
1.484346417E0,5.301595515E-2,2.992639689E-2,3.762332439E-2,7.156671901E-2
1.494383417E0,2.934443905E-2,2.414850272E-2,2.909048259E-2,4.785919414E-2
1.504421417E0,1.275468682E-2,-9.581119660E-4,1.666573405E-2,2.100825328E-2
1.514459417E0,-2.265341536E-3,-8.646967574E-3,2.504830241E-2,2.659547469E-2
1.524496417E0,-2.015706541E-3,9.480986092E-3,2.639374673E-2,2.811729071E-2
1.534534417E0,-3.303384711E-2,-6.305596246E-3,3.133172035E-2,4.596381511E-2
1.544572417E0,-4.403628557E-2,-2.753952691E-2,3.492483437E-2,6.258884921E-2
1.554609417E0,-2.353646141E-2,1.917242627E-3,2.818942666E-2,3.677342261E-2
1.564647417E0,7.547611089E-3,2.309722359E-2,3.103468180E-2,3.941572840E-2
1.574684417E0,2.170909460E-2,2.078810788E-2,2.190483928E-2,3.719209864E-2
1.584722417E0,-1.000744107E-3,1.533198416E-2,1.756328166E-2,2.333538278E-2
1.594760417E0,3.004453120E-2,2.204995072E-2,2.115405679E-2,4.285286806E-2
1.604797417E0,2.490422108E-2,2.671645822E-2,2.579499185E-2,4.471432625E-2
1.614835417E0,1.872577665E-3,2.135011667E-2,2.848880410E-2,3.565032942E-2
1.624872417E0,-1.133228081E-2,-3.274883875E-3,1.905724525E-2,2.241258685E-2
1.634910417E0,-1.214780522E-2,-2.555847198E-2,1.890814126E-2,3.403413679E-2
1.644948417E0,-3.768613857E-2,-2.332488585E-2,3.208250284E-2,5.471363933E-2
1.654985417E0,-2.624770567E-2,-2.392749167E-2,2.010798991E-2,4.081419078E-2
1.665023417E0,-2.409026354E-2,-6.868491252E-3,5.319095135E-2,5.879450888E-2
1.675060417E0,-2.290436598E-3,-2.282131724E-3,1.681776166E-2,1.712575056E-2
1.685098417E0,1.356543296E-2,-5.110429935E-3,5.143210888E-3,1.538148510E-2
1.695136417E0,2.220266127E-2,2.408425644E-2,4.615967453E-2,5.660145871E-2
1.705173417E0,1.806955460E-2,2.751567210E-2,2.190951705E-2,3.954298866E-2
1.715211417E0,2.210178081E-2,8.982922090E-3,2.898464799E-3,2.403295035E-2
1.725248417E0,1.460428447E-2,-2.253060099E-2,2.116048872E-2,3.418595309E-2
1.735286417E0,-1.208167915E-2,6.915118229E-3,1.936305463E-2,2.384771930E-2
1.745324417E0,7.250723282E-3,-3.396903388E-3,1.442274213E-2,1.649628538E-2
1.755361417E0,-1.849962188E-2,-1.857028183E-2,2.684807539E-2,3.752213385E-2
1.765399417E0,-2.906477768E-2,-2.314405614E-3,3.957103193E-2,4.915266364E-2
1.775436417E0,-1.139477521E-2,2.460334757E-3,3.073939741E-2,3.287559432E-2
1.785474417E0,-7.355107502E-3,2.333496316E-2,2.101080000E-2,3.225014463E-2
1.795512417E0,6.317007453E-3,1.263493767E-2,2.460449874E-2,2.837124586E-2
1.805549417E0,3.693008216E-2,-5.660173274E-3,2.041379929E-2,4.257454323E-2
1.815587417E0,2.714482387E-2,1.008822401E-2,3.628021896E-2,4.642055594E-2
1.825624417E0,6.602349293E-3,1.741702361E-2,2.939336836E-2,3.479818718E-2
1.835662417E0,-1.015206372E-2,-1.474230617E-2,1.771647871E-2,2.518478919E-2
1.845700417E0,-2.758741926E-2,-2.379066682E-2,2.340348065E-2,4.329878100E-2
1.855737417E0,-2.066108626E-2,-2.002149680E-2,1.067993939E-2,3.068879152E-2
1.865775417E0,-2.593603080E-2,-1.826977605E-2,3.133873701E-2,4.459348437E-2
1.875812750E0,-2.992350526E-2,-2.780072386E-3,2.505298018E-2,3.912539821E-2
1.885849750E0,-7.912470493E-4,-1.267246492E-2,3.148959517E-2,3.395308592E-2
1.895887750E0,5.217146189E-3,-1.073292064E-2,3.044177413E-2,3.269733647E-2
1.905924750E0,2.311381735E-2,9.746203003E-3,2.101196945E-2,3.272216199E-2
1.915962750E0,2.226717022E-2,-1.770948032E-3,3.882492721E-2,4.479216560E-2
1.926000750E0,4.070953050E-2,7.871275032E-3,1.262998581E-2,4.334442739E-2
1.936037750E0,7.767820428E-4,-9.984965832E-3,1.786792159E-2,2.048329942E-2
1.946075750E0,-7.536821149E-3,-2.960440717E-3,1.711889327E-2,1.893738073E-2
1.956112750E0,-1.963229379E-2,1.162693708E-2,2.759651899E-2,3.580754789E-2
1.966150750E0,-2.071265824E-2,7.794142035E-3,4.510951459E-2,5.024570796E-2
1.976188750E0,-1.814253288E-2,-5.634810976E-3,3.972072065E-2,4.402996982E-2
1.986225750E0,-2.429979485E-2,1.324796341E-3,1.487356246E-2,2.852118468E-2
1.996263750E0,5.356241399E-3,2.277943199E-2,4.511068404E-2,5.081894979E-2
2.006300750E0,1.139757091E-2,1.866159432E-2,4.017095625E-2,4.573691563E-2
2.016338750E0,8.798677695E-3,1.340981252E-3,3.822500288E-2,3.924749426E-2
2.026376750E0,1.685909873E-3,-1.016749489E-2,1.816612959E-2,2.088608409E-2
2.036413750E0,9.215488241E-3,5.504614497E-3,1.786733687E-2,2.084388954E-2
2.046451750E0,5.138731829E-3,-1.325897262E-3,1.101030707E-3,5.420040312E-3
2.056488750E0,-6.136040697E-3,-6.944061946E-3,4.181577802E-2,4.283024962E-2
2.066526750E0,-1.299338113E-2,-2.580014014E-2,3.118787885E-2,4.251069244E-2
2.076564750E0,-8.818503411E-3,-8.594698948E-3,2.175748944E-2,2.500046398E-2
2.086601750E0,-9.703331036E-3,1.493652966E-3,4.271215618E-2,4.382595028E-2
2.096639750E0,-1.152435956E-2,1.590305613E-3,2.160546184E-2,2.453845790E-2
2.106676750E0,-6.996474469E-3,9.186953371E-3,2.938810587E-2,3.157548945E-2
2.116714750E0,1.096666766E-2,1.631519347E-3,2.175339639E-2,2.441597652E-2
2.126752750E0,2.943083394E-2,1.447338450E-2,1.771063149E-2,3.727357392E-2
2.136789750E0,7.780570099E-3,1.996148061E-3,2.609261513E-2,2.730103372E-2
2.146827750E0,1.943184393E-2,-1.047345045E-2,3.671934485E-2,4.284390283E-2
2.156864750E0,-1.280585909E-3,-1.723967938E-2,1.920517981E-2,2.583960869E-2
2.166902750E0,-1.908759367E-2,-2.334170116E-2,1.636226356E-2,3.430590203E-2
2.176940750E0,-1.765365540E-2,4.917279957E-3,1.920517981E-2,2.654562342E-2
2.186977750E0,-2.952656154E-2,8.659794903E-3,3.477280676E-2,4.643229452E-2
2.197015750E0,-6.183202146E-5,3.378128344E-3,2.279712439E-2,2.304613752E-2
2.207052750E0,-6.446157829E-3,-7.284671394E-3,3.117969275E-2,3.266179156E-2
2.217090750E0,5.702115626E-3,1.241027668E-2,3.492015660E-2,3.749595214E-2
2.227128750E0,2.744307983E-2,2.649172871E-2,2.713458896E-2,4.681047146E-2
2.237165750E0,7.511844859E-3,-2.566306405E-3,1.845322788E-2,2.008818959E-2
2.247203750E0,2.335884995E-3,4.496846879E-3,2.249306917E-2,2.305680271E-2
2.257241750E0,-3.206647325E-3,1.173088504E-2,2.189431429E-2,2.504510429E-2
2.267278750E0,-1.114261175E-2,1.070981957E-2,2.414022982E-2,2.866371797E-2
2.277316750E0,-1.726892688E-2,-2.453039442E-3,2.997925937E-2,3.468413514E-2
2.287353750E0,-5.492100085E-3,-1.547768490E-2,3.027863681E-2,3.444586681E-2
2.297391750E0,-1.584686576E-2,-3.842712468E-3,3.896116734E-2,4.223579233E-2
2.307429750E0,3.899951228E-3,2.012154814E-3,1.935311437E-2,1.984443051E-2
2.317466750E0,-5.659574848E-3,6.385433581E-3,3.926112950E-2,4.017761614E-2
2.327504750E0,-2.208710338E-3,-1.469026138E-3,3.267424107E-2,3.278173986E-2
2.337541750E0,2.480669820E-3,-9.790523071E-4,2.369408727E-2,2.384370017E-2
2.347579750E0,-1.299825990E-2,6.248330078E-3,3.761455357E-2,4.028462522E-2
2.357617750E0,6.742499743E-3,2.194578806E-3,2.668669224E-2,2.761262431E-2
2.367654750E0,6.763172848E-3,-2.144821285E-2,7.378016710E-3,2.366857562E-2
2.377692750E0,-1.142395190E-2,-1.071753059E-2,7.976771593E-3,1.757842496E-2
2.387729750E0,-5.531810902E-3,1.291115466E-2,2.264685094E-2,2.664917830E-2
2.397767750E0,-1.076170448E-2,1.627015164E-2,3.162992835E-2,3.716159960E-2
2.407805750E0,-2.928954831E-3,1.171425245E-2,2.564296424E-2,2.834367835E-2
2.417842750E0,5.431220520E-3,4.486253369E-3,2.564296424E-2,2.659297352E-2
2.427880750E0,-4.435551614E-3,-5.818619113E-4,3.028389931E-2,3.061253401E-2
2.437917750E0,1.084775676E-2,1.298614976E-2,2.265035927E-2,2.827282596E-2
2.447955750E0,1.304568630E-2,3.644934967E-3,3.612175941E-2,3.857793391E-2
2.457993750E0,6.330835205E-3,-1.072733381E-2,2.429751992E-2,2.730429709E-2
2.468030750E0,4.991505335E-3,-3.972178046E-4,3.537565470E-2,3.572827805E-2
2.478068750E0,1.793772730E-3,1.514314651E-2,3.327942789E-2,3.660673199E-2
2.488105750E0,-1.995027725E-2,-2.962208586E-3,3.073471963E-2,3.676154558E-2
2.498143750E0,-2.583080605E-3,-1.574342715E-2,2.624464273E-2,3.071333710E-2
2.508181750E0,-1.009534573E-2,-2.003954551E-2,2.519623697E-2,3.373943904E-2
2.518218750E0,2.624319464E-3,-7.808472281E-3,1.995713174E-2,2.159042379E-2
2.528256750E0,2.380186790E-3,7.457351550E-3,9.480675459E-3,1.229473824E-2
2.538293750E0,2.248567336E-3,-8.795541669E-3,2.295207560E-2,2.468228885E-2
2.548331750E0,1.245846596E-2,3.567527882E-3,1.397016764E-2,1.905534605E-2
2.558369750E0,7.343278311E-3,3.920877865E-3,2.908872843E-2,3.025642314E-2
2.568406750E0,-7.322381367E-4,-3.768352331E-3,1.456775308E-2,1.506506162E-2
2.578444750E0,-9.297570814E-3,-2.221658723E-3,2.474600136E-2,2.652819583E-2
2.588481750E0,-5.394773637E-3,-1.029366227E-2,1.546588540E-2,1.934571469E-2
2.598519750E0,-1.718865557E-2,6.891861842E-3,3.028506875E-2,3.549835249E-2
2.608557750E0,-1.447384588E-2,1.820372536E-2,2.773977578E-2,3.619893633E-2
2.618594750E0,1.908616842E-2,5.820016963E-3,2.160195351E-2,2.940746194E-2
2.628632750E0,-7.892528290E-3,1.262696627E-2,2.938518226E-2,3.294269595E-2
2.638669750E0,-8.313980063E-3,9.121898529E-3,1.950631142E-2,2.308305617E-2
2.648707750E0,1.388265355E-2,7.395626879E-3,3.118203163E-2,3.492481157E-2
2.658745750E0,6.488075056E-3,5.552812913E-3,2.010389686E-2,2.184251629E-2
2.668782750E0,1.127489358E-3,-1.616179543E-3,2.324619055E-2,2.332956587E-2
2.678820750E0,3.180478751E-3,-1.787293284E-2,2.863381505E-2,3.390357706E-2
2.688857750E0,5.929120069E-3,-7.546882471E-4,2.369408727E-2,2.443632113E-2
2.698895750E0,-4.419003536E-3,4.354092591E-3,1.965249181E-2,2.060839996E-2
2.708933750E0,4.191293316E-3,3.899316257E-3,3.252747595E-2,3.302738710E-2
2.718970750E0,-7.444807445E-4,-1.097571714E-2,2.893494666E-2,3.095564175E-2
2.729008750E0,-2.666085942E-3,9.826976806E-5,2.908522010E-2,2.920732270E-2
2.739045750E0,-3.832667135E-5,4.811554989E-3,2.773743689E-2,2.815169508E-2
2.749083750E0,-5.104893353E-5,8.662202312E-3,2.115171790E-2,2.285676104E-2
2.759121750E0,7.028339510E-3,3.822270054E-3,2.983424842E-2,3.088834220E-2
2.769158750E0,1.199053796E-3,-6.754338071E-3,1.232066810E-2,1.410169051E-2
2.779196750E0,-1.066384584E-2,1.114131668E-2,2.145226479E-2,2.642056415E-2
2.789234750E0,-1.041948933E-2,3.897804203E-3,3.148082435E-2,3.338863485E-2
2.799271750E0,-6.924128879E-3,4.682340659E-4,2.220012367E-2,2.325958501E-2
2.809309750E0,9.934951582E-3,5.248743994E-4,2.070440590E-2,2.297065911E-2
2.819346750E0,-9.633310628E-3,-5.339832650E-4,2.280180216E-2,2.475899823E-2
2.829384750E0,-3.606256549E-3,-1.112496732E-3,2.819001138E-2,2.844150975E-2
2.839422750E0,1.479226789E-3,1.531113062E-2,2.340055704E-2,2.800365873E-2
2.849459750E0,3.035378724E-3,2.592213225E-2,1.561615884E-2,3.041438609E-2
2.859497750E0,-1.609446337E-2,9.957780847E-3,1.980744302E-2,2.739569217E-2
2.869534750E0,7.293467342E-3,1.740894257E-3,3.941608071E-2,4.012297095E-2
2.879572875E0,-1.068499403E-2,-2.787431655E-3,3.717191935E-2,3.877744783E-2
2.889610875E0,1.292437484E-2,-4.373717308E-4,2.789180338E-2,3.074383605E-2
2.899647875E0,4.403800776E-3,7.063879617E-3,2.759242594E-2,2.882071869E-2
2.909685875E0,-2.369929038E-3,1.207612658E-2,3.911787271E-2,4.100801583E-2
2.919722875E0,-1.113775810E-2,-1.142324841E-2,4.136203408E-2,4.433235977E-2
2.929760875E0,2.148123134E-3,-3.539155181E-3,3.971721232E-2,3.993240547E-2
2.939798875E0,9.868750137E-3,6.858455054E-3,2.085701823E-2,2.407168138E-2
2.949835875E0,-3.980021537E-3,-5.821597539E-3,1.876020670E-2,2.004187927E-2
2.959873875E0,-2.414086936E-3,-1.044769529E-3,1.366962075E-2,1.392041273E-2
2.969910875E0,-2.430333516E-3,1.523342203E-2,1.621491373E-2,2.238050703E-2
2.979948875E0,-1.916203832E-2,-2.720001382E-3,3.761981606E-2,4.230641418E-2
2.989986875E0,6.132703673E-3,-1.358573148E-3,3.731985390E-2,3.784477864E-2
3.000023875E0,-6.841792774E-3,-9.178575408E-3,1.786032021E-2,2.121432094E-2
3.010061875E0,-1.272562661E-2,7.042441349E-3,2.923783243E-2,3.265560286E-2
3.020098875E0,7.459832048E-3,-5.138354958E-3,2.339938760E-2,2.509149509E-2
3.030136875E0,2.004241658E-2,-1.427562984E-2,3.731985390E-2,4.470194140E-2
3.040174875E0,-1.048009937E-2,-1.951544769E-3,2.205101967E-2,2.449262089E-2
3.050211875E0,3.077158907E-3,3.240275667E-3,2.519506752E-2,2.558827311E-2
3.060249875E0,4.174222187E-3,2.738196272E-3,2.564471841E-2,2.612610633E-2
3.070286875E0,8.031897589E-3,9.560553906E-3,4.211047769E-2,4.392274924E-2
3.080324875E0,-5.019603947E-3,-6.198870856E-4,2.669078529E-2,2.716576344E-2
3.090362875E0,-1.297464491E-2,4.887166796E-3,1.336848915E-2,1.925986272E-2
3.100399875E0,-8.839304424E-3,7.531259442E-3,3.013304114E-2,3.229323985E-2
3.110437875E0,-2.576680644E-4,-3.194863815E-3,3.507159948E-2,3.521776026E-2
3.120474875E0,-3.875813191E-4,-3.405313329E-3,3.761630774E-2,3.777211916E-2
3.130512875E0,-1.499388262E-3,-2.045192496E-2,2.100027502E-2,2.935201783E-2
3.140550875E0,-1.748482847E-2,1.751743583E-3,3.507101476E-2,3.922708132E-2
3.150587875E0,-5.542637387E-3,-6.650677901E-3,2.055120885E-2,2.230032581E-2
3.160625875E0,1.346704442E-2,1.861049971E-3,4.674790442E-2,4.868461112E-2
3.170662875E0,5.425866663E-3,9.571987954E-3,3.671934485E-2,3.833240495E-2
3.180700875E0,5.421693670E-3,4.105037749E-3,2.893611610E-2,2.972448338E-2
3.190738875E0,1.340545908E-2,3.240307644E-3,2.519389808E-2,2.872174137E-2
3.200775875E0,4.048774287E-3,-7.214239854E-3,3.282685339E-2,3.385321453E-2
3.210813875E0,-1.568654927E-3,1.530572651E-3,2.833385289E-2,2.841848959E-2
3.220850875E0,-2.191609517E-3,3.332711924E-3,2.399287999E-2,2.432217941E-2
3.230888875E0,4.837623064E-3,-4.391318341E-3,2.010097325E-2,2.113611599E-2
3.240926875E0,-5.564450242E-3,1.035345919E-2,2.534007847E-2,2.793343518E-2
3.250963875E0,-7.545162567E-3,8.778269542E-4,3.237544835E-2,3.325461944E-2
3.261001875E0,-2.450878713E-3,5.917336559E-3,3.177552402E-2,3.241458939E-2
3.271038875E0,4.697614226E-3,-1.338537298E-3,2.893026888E-2,2.933972936E-2
3.281076875E0,9.557982045E-4,9.795159730E-3,2.773275912E-2,2.942727702E-2
3.291114875E0,-6.519083572E-3,6.309972522E-3,8.122951984E-3,1.217770721E-2
3.301151875E0,-2.175646618E-2,1.119107283E-2,1.560797274E-2,2.902055728E-2
3.311189875E0,-1.289327268E-2,-1.098355606E-2,2.473898470E-2,2.998153346E-2
3.321226875E0,7.705732591E-3,4.612142094E-3,2.683579624E-2,2.829858882E-2
3.331264875E0,9.373534368E-3,3.142691120E-3,2.189665318E-2,2.402505097E-2
3.341302875E0,1.837996866E-3,4.025497343E-3,2.788420200E-2,2.823316459E-2
3.351339875E0,-1.373111245E-3,-1.163422326E-3,2.025007725E-2,2.032989460E-2
3.361377875E0,5.252003360E-3,2.530857660E-3,2.863206089E-2,2.921957718E-2
3.371414875E0,-7.822864198E-3,4.815451610E-3,3.132587314E-2,3.264500124E-2
3.381452875E0,-7.728294621E-3,1.495461948E-3,2.548859775E-2,2.667642329E-2
3.391490875E0,-2.312886708E-3,1.795026683E-3,2.743455112E-2,2.759032731E-2
3.401527875E0,-7.334199138E-3,1.065678807E-2,2.503953159E-2,2.818396266E-2
3.411565875E0,-1.166857336E-2,7.273068326E-4,2.144641757E-2,2.442608045E-2
3.421602875E0,-1.955643987E-2,5.177266351E-3,1.979984164E-2,2.830710434E-2
3.431640875E0,1.467340495E-3,-3.517081942E-3,2.084824741E-2,2.119368712E-2
3.441678875E0,1.272924230E-2,2.040038723E-3,2.234513462E-2,2.579729459E-2
3.451715875E0,2.613971491E-2,1.856882916E-2,5.333186924E-2,6.222840500E-2
3.461753875E0,1.380579692E-2,8.011018918E-3,3.731459141E-2,4.058515966E-2
3.471790875E0,1.273581128E-2,7.605368332E-3,3.551832676E-2,3.849148025E-2
3.481828875E0,-9.277936961E-3,1.542258860E-2,3.252396762E-2,3.717182835E-2
3.491866875E0,-1.009131207E-3,1.267487689E-2,4.479902744E-2,4.656848408E-2
3.501903875E0,-9.508038601E-3,-1.873524640E-2,2.758423984E-2,3.467423457E-2
3.511941875E0,-1.370944577E-2,-1.456185104E-2,2.863206089E-2,3.492551102E-2
3.521978875E0,-1.386788704E-2,-1.612060453E-2,3.971019566E-2,4.504544173E-2
3.532016875E0,-7.067070461E-3,-6.926209666E-5,3.282509923E-2,3.357730516E-2
3.542053875E0,5.589634383E-3,2.870114939E-4,2.444486976E-2,2.507744097E-2
3.552091875E0,1.392230041E-2,6.771546244E-3,1.172366738E-2,1.941980083E-2
3.562129875E0,2.188013022E-2,2.451072859E-2,2.564530313E-2,4.167970114E-2
3.572166875E0,1.922536184E-2,2.313268147E-2,1.471744180E-2,3.348639400E-2
3.582204875E0,1.031785284E-2,1.838955261E-2,2.848938882E-2,3.544402641E-2
3.592241875E0,1.589060796E-3,2.934187632E-3,3.791919351E-2,3.806573009E-2
3.602279875E0,-1.502443204E-2,2.024009130E-3,3.567386270E-2,3.876150991E-2
3.612317875E0,-2.052082160E-2,-7.012958592E-4,4.330798745E-2,4.792888182E-2
3.622354875E0,-2.234642511E-2,-2.287125612E-2,3.791977823E-2,4.960208315E-2
3.632392875E0,-1.947359213E-2,-1.333785979E-2,4.750044107E-2,5.304159874E-2
3.642429875E0,4.829229112E-3,-4.578091200E-3,2.834203899E-2,2.911273857E-2
3.652467875E0,7.510456145E-3,-3.421534784E-5,3.687546551E-2,3.763254016E-2
3.662505875E0,3.149488736E-2,6.663167188E-3,1.621842206E-2,3.604667725E-2
3.672542875E0,3.434473119E-2,6.631642473E-3,2.519974530E-2,4.311109376E-2
3.682580875E0,1.915377913E-2,3.722008578E-3,3.552709758E-2,4.053264444E-2
3.692617875E0,1.789539208E-2,1.328061646E-2,1.936071575E-2,2.952045300E-2
3.702655875E0,-1.620005358E-3,-3.990583071E-3,1.726507366E-2,1.779415463E-2
3.712693875E0,-5.227305726E-3,-5.766058126E-3,2.849172771E-2,2.953558361E-2
3.722730875E0,-3.913465605E-2,-1.091104145E-3,2.340231121E-2,4.561118264E-2
3.732768875E0,-2.535787594E-2,-2.216038087E-2,3.582705975E-2,4.916993555E-2
3.742805875E0,-1.614344522E-2,-1.478066938E-2,4.151523113E-2,4.693179548E-2
3.752843875E0,3.100554622E-4,-9.666785938E-3,4.256422162E-2,4.364923650E-2
3.762881875E0,1.938231162E-2,2.852911334E-3,3.642756879E-2,4.136158695E-2
3.772918875E0,1.622399290E-2,3.944463157E-3,3.807472944E-2,4.157477309E-2
3.782956875E0,2.065832710E-2,2.534503033E-3,2.086111128E-2,2.946822269E-2
3.792993875E0,8.831856076E-3,2.313482850E-3,2.804558516E-2,2.949421522E-2
3.803031875E0,1.075036864E-2,7.571504731E-4,3.732453167E-2,3.884925183E-2
3.813069875E0,-1.872265204E-2,-1.654923742E-2,4.031713665E-2,4.743296813E-2
3.823106875E0,-8.404511407E-3,-1.437875097E-2,2.265269816E-2,2.811634801E-2
3.833144875E0,-1.209266552E-2,-1.278466750E-2,3.732219279E-2,4.126289322E-2
3.843181875E0,-3.372076704E-2,-1.774310638E-2,2.908931315E-2,4.793846153E-2
3.853219875E0,-8.586471733E-3,-2.172991160E-2,2.729246378E-2,3.592763747E-2
3.863257875E0,-8.798849001E-4,-1.675140490E-3,2.280238688E-2,2.288075918E-2
3.873294875E0,7.348504260E-3,7.843171852E-3,7.682656646E-3,1.321132365E-2
3.883332917E0,2.424498863E-2,8.982433300E-3,3.372790933E-2,4.249794641E-2
3.893369917E0,3.807549232E-3,1.598643377E-2,2.414783120E-2,2.920926647E-2
3.903407917E0,4.960903383E-3,-3.741806885E-4,2.295032144E-2,2.348335214E-2
3.913445917E0,-2.519560657E-3,-2.299563736E-3,2.729129434E-2,2.750365295E-2
3.923482917E0,-8.039754785E-3,-9.698447697E-3,4.794775307E-2,4.957503978E-2
3.933520917E0,-1.457136190E-2,-1.381532149E-2,1.696043372E-2,2.628391157E-2
3.943557917E0,2.065097240E-3,-1.593508334E-2,1.695984900E-2,2.336296184E-2
3.953595917E0,-1.120433185E-2,-2.617153883E-2,3.162934363E-2,4.255469276E-2
3.963633917E0,1.320034058E-2,-7.364326003E-3,1.905607581E-2,2.432316415E-2
3.973670917E0,1.070700332E-2,-4.776476263E-3,2.489335120E-2,2.751606039E-2
3.983708917E0,2.364416666E-2,1.430444565E-2,2.144992590E-2,3.498232559E-2
3.993745917E0,4.302854079E-3,-2.440705472E-3,3.087856114E-2,3.127230619E-2
4.003783917E0,1.733973529E-4,1.973840020E-2,2.698606968E-2,3.343474937E-2
4.013821917E0,1.455328579E-3,-8.538465179E-3,2.893143833E-2,3.020019027E-2
4.023858917E0,-7.380312199E-3,-1.470438606E-2,4.120649815E-2,4.436962325E-2
4.033896917E0,-2.664255261E-2,-2.070412268E-3,2.084766269E-2,3.389302666E-2
4.043933917E0,-2.281439880E-2,-1.204167369E-2,2.653524935E-2,3.700835251E-2
4.053971917E0,-7.455357558E-3,-5.885926047E-3,3.162642002E-2,3.302206724E-2
4.064009917E0,-7.123153482E-3,7.291130740E-3,2.638789952E-2,2.828818029E-2
4.074046917E0,5.385826940E-3,-1.364475181E-3,2.369174838E-2,2.433449950E-2
4.084084917E0,2.480523640E-2,1.019411343E-2,1.680548251E-2,3.164875896E-2
4.094121917E0,2.663242505E-2,1.062583437E-2,3.985813022E-2,4.910055972E-2
4.104159917E0,3.264821639E-2,1.408975233E-2,1.920108676E-2,4.041174194E-2
4.114197917E0,1.600929045E-2,1.017895178E-2,4.255369663E-2,4.659104567E-2
4.124234917E0,-2.110205311E-3,-1.327846030E-2,6.179922223E-3,1.479736169E-2
4.134272917E0,-2.346096152E-2,-2.209405609E-2,2.459163487E-2,4.053779145E-2
4.144309917E0,-2.453853256E-2,-1.065241636E-2,2.923256993E-2,3.962520283E-2
4.154347917E0,-2.001097638E-2,2.078612074E-3,2.923198521E-2,3.548617707E-2
4.164385917E0,-5.605182038E-3,-4.571942487E-3,2.548976719E-2,2.649620643E-2
4.174422917E0,2.062167237E-2,-1.029798373E-2,1.201953650E-2,2.599559766E-2
4.184460917E0,5.576649453E-3,8.344132053E-3,3.088090003E-2,3.247081066E-2
4.194497917E0,4.238411824E-2,2.970751916E-2,1.785739660E-2,5.475250485E-2
4.204535917E0,4.605896537E-2,1.337187414E-2,2.040210485E-2,5.211987329E-2
4.214572917E0,1.735826137E-2,1.091635420E-2,1.591085851E-2,2.595441090E-2
4.224610917E0,-3.296836058E-3,-8.851483078E-3,1.845381260E-2,2.073067968E-2
4.234648917E0,-1.169650296E-2,-9.879839290E-3,1.605879307E-2,2.218793007E-2
4.244685917E0,2.002426966E-3,2.075026087E-3,3.282509923E-2,3.295151873E-2
4.254723917E0,-5.178726328E-2,-6.062617027E-3,-2.315789759E-2,5.705229341E-2
4.264760917E0,-2.746404073E-2,-3.140995884E-2,4.899440467E-2,6.435301653E-2
4.274798917E0,-2.127843574E-2,-2.412552042E-3,4.181051552E-2,4.697564734E-2
4.284836917E0,3.173652355E-2,7.644983218E-3,6.755639076E-2,7.503011814E-2
4.294873917E0,3.708761437E-2,-4.279622817E-3,5.318510413E-2,6.498047101E-2
4.304911917E0,4.831552010E-3,8.026536880E-3,1.995245397E-2,2.204245015E-2
4.314949917E0,2.010886014E-2,1.957845144E-2,2.069914341E-2,3.487314948E-2
4.324986917E0,-2.076090463E-3,2.644334757E-2,1.389298439E-3,2.656107928E-2
4.335024917E0,-3.848616786E-2,1.739000764E-2,-3.124108851E-2,5.253192452E-2
4.345061917E0,-6.032457728E-2,-1.307961842E-2,-2.239717484E-2,6.566402731E-2
4.355099917E0,3.049811023E-1,-5.360411561E-1,6.217052042E-2,6.198538274E-1
4.365136917E0,-1.018092923E0,-3.301401180E-1,3.412429208E-1,1.123366561E0
4.375174917E0,-2.304332140E0,-3.478414305E-1,5.066132891E-1,2.384868403E0
4.385212917E0,-2.353253016E0,-8.063986469E-1,2.450106150E-1,2.499621719E0
4.395249917E0,-1.527866633E0,-9.134322949E-1,-5.059303343E-2,1.780812921E0
4.405287917E0,8.239771313E-1,-4.742843261E-1,-4.067130250E-1,1.034069350E0
4.415324917E0,2.848616701E0,4.473905694E-1,-1.377756035E-1,2.886824821E0
4.425362917E0,3.015297138E0,8.019841453E-1,1.026437777E-1,3.121815360E0
4.435400917E0,1.721787201E0,5.805956968E-1,-1.474492371E-2,1.817102072E0
4.445437917E0,7.495129131E-1,1.114147291E-1,5.401073098E-3,7.577677879E-1
4.455475917E0,2.837136643E-1,1.966239553E-1,1.202292788E-1,3.655263364E-1
4.465512917E0,-2.486701315E-1,3.854538645E-1,3.529478770E-1,5.787777810E-1
4.475550917E0,-2.785486360E-1,3.464739312E-2,6.564949679E-1,7.139855933E-1
4.485588917E0,-3.774634981E-1,-1.077213719E-1,1.017176372E0,1.090289117E0
4.495625917E0,-2.794635425E-1,1.839432083E-1,1.060511257E0,1.112033768E0
4.505663917E0,1.504905201E-2,4.197854988E-1,9.309223402E-1,1.021304432E0
4.515700917E0,1.526571145E-1,2.615685776E-1,7.239373380E-1,7.847340854E-1
4.525738917E0,-1.372734885E0,-1.790067513E-1,-7.268486667E-1,1.563570742E0
4.535776917E0,-9.186005757E-1,-9.344605269E-2,-2.144076331E0,2.334442652E0
4.545813917E0,3.012780058E-1,-3.371427801E-1,-1.326050277E0,1.401014999E0
4.555851917E0,-4.214253505E-1,-7.776042527E-1,-6.886312652E-1,1.120928508E0
4.565888917E0,-1.278058542E-1,-1.620808345E-1,1.144601235E0,1.163063420E0
4.575926917E0,3.372107905E-1,2.805434867E-1,2.158827102E0,2.202941266E0
4.585964917E0,2.220503898E-2,1.179903434E-1,2.197606421E0,2.200883633E0
4.596001917E0,1.728479522E-1,1.477730267E-1,1.950301943E0,1.963514948E0
4.606039917E0,5.256820095E-1,1.151147558E-1,1.655847858E0,1.741098822E0
4.616076917E0,5.707667466E-1,5.412105332E-1,2.616460020E0,2.732132236E0
4.626114917E0,2.615058479E-1,8.505119421E-1,4.014925139E0,4.112344799E0
4.636151917E0,-2.863189461E-1,1.044910886E0,4.651817316E0,4.776318838E0
4.646189917E0,1.769819154E-1,3.266085094E-1,4.523253416E0,4.538481815E0
4.656227917E0,8.180623072E-1,-6.258592124E-1,4.108723834E0,4.235863222E0
4.666264917E0,6.170288935E-1,-1.192793109E0,3.671800584E0,3.909680241E0
4.676302917E0,-4.764570784E-1,-1.052694407E0,3.725668643E0,3.900741430E0
4.686339917E0,-1.478229034E0,-8.593915969E-2,4.181048629E0,4.435506088E0
4.696377917E0,-2.023073173E0,8.390061566E-1,5.047022436E0,5.501744439E0
4.706415917E0,-2.261540023E0,9.476611644E-1,5.900315972E0,6.389550339E0
4.716452917E0,-2.652675920E0,1.821875453E-1,6.429388416E0,6.957507977E0
4.726490917E0,-3.409146581E0,-1.032979642E0,6.300533325E0,7.237820634E0
4.736527917E0,-4.427498243E0,-1.212147978E0,4.592599640E0,6.493382390E0
4.746565917E0,-5.275860237E0,-7.496545619E-1,3.267691324E0,6.250959110E0
4.756603917E0,-5.415916255E0,-6.179322883E-1,2.914382089E0,6.181230635E0
4.766640917E0,-5.260751617E0,-1.000759730E0,3.045222895E0,6.160390417E0
4.776678917E0,-5.372686620E0,-1.339287496E0,2.697221763E0,6.159095530E0
4.786715917E0,-5.558035755E0,-1.336329097E0,1.940110831E0,6.036685096E0
4.796753917E0,-5.653966345E0,-1.146005736E0,9.987126195E-1,5.854749480E0
4.806791917E0,-5.311561582E0,-8.713649404E-1,3.855022502E-1,5.396348329E0
4.816828917E0,-4.893657863E0,-6.627216679E-1,2.393347228E-1,4.944124635E0
4.826866917E0,-4.512087866E0,-6.947433597E-1,2.720136416E-1,4.573357264E0
4.836903917E0,-4.282459813E0,-8.706410551E-1,2.723060024E-1,4.378541819E0
4.846941917E0,-3.921907048E0,-1.711555451E0,6.104575002E-1,4.322433957E0
4.856979917E0,-3.523843224E0,-2.444900959E0,6.440982860E-1,4.337035205E0
4.867016917E0,-3.221991826E0,-1.949303239E0,-1.768186319E-1,3.769917674E0
4.877054917E0,-3.023745195E0,-1.375983744E0,-6.255684596E-1,3.380488451E0
4.887092375E0,-2.752521512E0,-1.384980270E0,-4.545929503E-1,3.114674907E0
4.897130375E0,-2.741907646E0,-1.886521100E0,1.259513640E-1,3.330598016E0
4.907168375E0,-2.487008513E0,-2.521742728E0,3.540214258E-1,3.559456264E0
4.917205375E0,-1.233960723E0,-2.260041236E0,-2.762248063E-1,2.589738519E0
4.927243375E0,-7.543726802E-2,-1.712973400E0,-1.361404297E0,2.189381262E0
4.937280375E0,4.239750288E-1,-1.607415955E0,-1.887861282E0,2.515464390E0
4.947318375E0,5.314563543E-1,-1.657085128E0,-1.962209213E0,2.622716526E0
4.957355375E0,9.086498572E-1,-1.937379597E0,-1.722199137E0,2.746826193E0
4.967393375E0,1.242950964E0,-2.110937237E0,-1.232533418E0,2.742284037E0
4.977431375E0,1.524045185E0,-1.804778194E0,-9.881326675E-1,2.560535925E0
4.987468375E0,1.813399475E0,-1.041076282E0,-9.155704755E-1,2.282657832E0
4.997506375E0,2.048477864E0,-3.672846651E-1,-7.983343863E-1,2.229012646E0
5.007543375E0,2.147286453E0,-4.200511086E-1,-3.913114589E-1,2.222702567E0
5.017581375E0,2.637933919E0,-7.669167119E-1,1.308431447E-1,2.750268448E0
5.027619375E0,3.227901899E0,-9.277923256E-1,3.277452081E-1,3.374546813E0
5.037656375E0,3.176282094E0,-7.365293169E-1,2.096694589E-1,3.267293170E0
5.047694375E0,3.003150132E0,-3.712350440E-1,6.145423651E-4,3.026008353E0
5.057731375E0,3.230563259E0,-1.921588022E-1,-9.301516771E-2,3.237609581E0
5.067769375E0,3.900670545E0,-4.191687638E-1,-6.323383659E-2,3.923637556E0
5.077807375E0,4.324065384E0,-6.575772876E-1,-7.032855570E-2,4.374345144E0
5.087844375E0,4.189258704E0,-5.610304016E-1,-5.860839665E-2,4.227065004E0
5.097882375E0,3.892831768E0,-6.014352465E-1,2.527213383E-1,3.947116872E0
5.107919375E0,3.428392691E0,-1.253731914E0,5.175622004E-1,3.686948709E0
5.117957375E0,3.237557991E0,-1.494092238E0,2.273783362E-1,3.572925170E0
5.127995375E0,3.465457022E0,-1.365916008E0,-7.655964106E-2,3.725718761E0
5.138032375E0,3.650144252E0,-1.305906619E0,-1.953177604E-1,3.881635503E0
5.148070375E0,3.660596150E0,-1.074310101E0,3.162203461E-2,3.815115505E0
5.158107375E0,3.730534696E0,-7.724932015E-1,7.479881054E-1,3.882411759E0
5.168145375E0,3.842022680E0,-9.482154804E-1,1.619989808E0,4.276051665E0
5.178182375E0,3.731382835E0,-1.092161651E0,1.814935977E0,4.290690799E0
5.188220375E0,3.683094189E0,-1.040638325E0,1.486755152E0,4.105916683E0
5.198258375E0,3.723631181E0,-1.222357509E0,9.628788355E-1,4.035681194E0
5.208295375E0,3.993888026E0,-1.733861409E0,4.256264287E-1,4.374765686E0
5.218333375E0,4.166855097E0,-2.139332485E0,7.724815071E-2,4.684590928E0
5.228370375E0,4.076313887E0,-2.407780495E0,-1.820217767E-1,4.737813181E0
5.238408375E0,3.612582908E0,-2.642771906E0,-3.478110981E-1,4.489540196E0
5.248446375E0,2.847394048E0,-2.679981832E0,-2.452971286E-1,3.917923706E0
5.258483375E0,2.536768025E0,-2.485587054E0,1.628885177E-1,3.555259159E0
5.268521375E0,2.996875193E0,-2.505540093E0,5.899896142E-1,3.950579682E0
5.278558375E0,3.466325041E0,-2.803369777E0,7.796376219E-1,4.525718309E0
5.288596375E0,3.427928422E0,-3.089738917E0,7.166043448E-1,4.670192890E0
5.298634375E0,2.818202116E0,-3.264953073E0,5.192929763E-1,4.344173907E0
5.308671375E0,2.102154134E0,-3.478240204E0,2.938532844E-1,4.074746210E0
5.318709375E0,1.649108064E0,-3.802489362E0,1.409259371E-1,4.147088482E0
5.328746375E0,1.672075343E0,-4.095454747E0,7.606496662E-3,4.423645939E0
5.338784375E0,1.930073793E0,-4.145748988E0,-2.199874556E-1,4.578298155E0
5.348822375E0,1.854755516E0,-3.990663287E0,-4.885548945E-1,4.427662745E0
5.358859375E0,1.302597095E0,-3.943247046E0,-6.594659382E-1,4.204860495E0
5.368897375E0,6.142277849E-1,-4.038069003E0,-6.895426999E-1,4.142311695E0
5.378934375E0,2.936629575E-1,-4.091924198E0,-6.127332366E-1,4.147954146E0
5.388972375E0,2.449053651E-1,-4.052194122E0,-5.281520927E-1,4.093800248E0
5.399009375E0,2.610331553E-1,-3.937255989E0,-3.025238281E-1,3.957479462E0
5.409047375E0,3.877028498E-1,-3.852073751E0,-7.310042828E-2,3.872225375E0
5.419085375E0,4.481519499E-1,-3.775681048E0,-6.355411783E-2,3.802715697E0
5.429122375E0,3.234507206E-1,-3.906974428E0,-1.831038040E-1,3.924614192E0
5.439160375E0,1.074490196E-1,-4.198097940E0,-3.267687231E-1,4.212166830E0
5.449197375E0,-2.822766745E-1,-4.259462129E0,-4.797014791E-1,4.295673552E0
5.459235375E0,-8.785470754E-1,-4.127376451E0,-4.590792266E-1,4.244742050E0
5.469273375E0,-1.343368560E0,-4.003226615E0,-3.802739623E-1,4.239701723E0
5.479310375E0,-1.602379164E0,-3.863500965E0,-3.168214399E-1,4.194595870E0
5.489348375E0,-1.793075577E0,-3.707734648E0,-2.446264529E-1,4.125803964E0
5.499385375E0,-1.933547332E0,-3.553199170E0,-2.620657736E-1,4.053703010E0
5.509423375E0,-2.118304728E0,-3.501590475E0,-2.463703850E-1,4.099884041E0
5.519461375E0,-2.629205488E0,-3.610906511E0,-2.375969303E-1,4.473010131E0
5.529498375E0,-3.373365422E0,-3.674061118E0,-2.348721278E-1,4.993343998E0
5.539536375E0,-4.079721352E0,-3.564441612E0,-3.203686532E-1,5.426970277E0
5.549573375E0,-4.460837313E0,-3.342578954E0,-4.628781626E-1,5.593403239E0
5.559611375E0,-4.476791148E0,-3.021934605E0,-5.927907228E-1,5.433704867E0
5.569649375E0,-4.024530652E0,-2.714326038E0,-7.317427862E-1,4.909160857E0
5.579686375E0,-3.503181503E0,-2.512648553E0,-7.305441070E-1,4.372571107E0
5.589724375E0,-3.358621083E0,-2.302955706E0,-6.726134026E-1,4.127511278E0
5.599761375E0,-3.504365856E0,-2.073029153E0,-5.674234548E-1,4.110960873E0
5.609799375E0,-3.574846147E0,-1.778145297E0,-2.652536756E-1,4.001460382E0
5.619836375E0,-3.490208578E0,-1.473415314E0,6.950556010E-2,3.789108025E0
5.629874375E0,-3.233344780E0,-1.255784286E0,3.112899739E-1,3.482587269E0
5.639912375E0,-3.021721766E0,-9.736315727E-1,5.678807071E-1,3.225096800E0
5.649949375E0,-2.944489403E0,-6.647553295E-1,7.692658308E-1,3.115074222E0
5.659987375E0,-2.821385633E0,-4.455654341E-1,8.285644913E-1,2.974098949E0
5.670024375E0,-2.698107323E0,-1.066099441E-1,8.123139095E-1,2.819752240E0
5.680062375E0,-2.707607587E0,9.283624291E-2,7.253836468E-1,2.804628112E0
5.690100375E0,-2.878529887E0,3.647259235E-2,6.966966221E-1,2.961866091E0
5.700137375E0,-3.166017892E0,1.052107054E-1,7.129732239E-1,3.247009301E0
5.710175375E0,-3.308289712E0,4.672550958E-1,6.952976757E-1,3.412703767E0
5.720212375E0,-3.201047099E0,7.871223503E-1,7.887993318E-1,3.389464340E0
5.730250375E0,-2.954557723E0,9.232613182E-1,9.883729881E-1,3.249415942E0
5.740287375E0,-2.774252397E0,1.323057087E0,1.192983436E0,3.296993463E0
5.750325375E0,-2.723313501E0,1.668284301E0,1.389290838E0,3.482777334E0
5.760363375E0,-2.760811110E0,1.553317516E0,1.649101633E0,3.571331612E0
5.770400375E0,-2.941740627E0,1.376389541E0,1.750903119E0,3.689708364E0
5.780438375E0,-3.239428223E0,1.598601277E0,1.506508800E0,3.913948137E0
5.790475375E0,-3.489452240E0,2.044824523E0,1.184795580E0,4.214418683E0
5.800513375E0,-3.671285444E0,2.358589624E0,1.115621849E0,4.503986450E0
5.810551375E0,-3.341936930E0,2.557451089E0,1.286083388E0,4.400353281E0
5.820588375E0,-2.641162460E0,2.488560364E0,1.595887585E0,3.964281650E0
5.830626375E0,-2.009740352E0,2.439220973E0,1.886096592E0,3.680518387E0
5.840663375E0,-1.198851848E0,2.479888943E0,2.040001155E0,3.427637617E0
5.850701375E0,-9.307152025E-1,2.588062432E0,2.029462718E0,3.418042842E0
5.860739375E0,-1.520425905E0,2.718209174E0,1.789284242E0,3.591920676E0
5.870776375E0,-2.527514807E0,2.526787121E0,1.548128697E0,3.894828201E0
5.880813875E0,-3.313970867E0,2.314404554E0,1.179870470E0,4.210815321E0
5.890850875E0,-3.258195446E0,2.237974429E0,6.567259330E-1,4.006950968E0
5.900888875E0,-2.774663748E0,2.284850972E0,4.502689344E-1,3.622436334E0
5.910925875E0,-2.020851524E0,2.395201964E0,6.270115525E-1,3.195931291E0
5.920963875E0,-1.498765187E0,2.507341620E0,1.137855302E0,3.134928033E0
5.931001875E0,-1.293473099E0,2.663161147E0,1.627312860E0,3.378408960E0
5.941038875E0,-1.185413923E0,2.584057674E0,1.609650176E0,3.267037484E0
5.951076875E0,-1.528968687E0,2.440479294E0,1.275763637E0,3.149802738E0
5.961113875E0,-1.669320135E0,2.352686859E0,7.868972325E-1,2.990145887E0
5.971151875E0,-1.313904440E0,2.274286222E0,4.420483339E-1,2.663480698E0
5.981189875E0,-7.854941931E-1,2.290713975E0,3.478853577E-1,2.446506870E0
5.991226875E0,-3.294835854E-1,2.423758011E0,5.186579686E-1,2.500433646E0
6.001264875E0,-1.643349726E-1,2.620260710E0,9.128117591E-1,2.779567858E0
6.011301875E0,-1.892677926E-1,2.764907377E0,1.177770150E0,3.011258479E0
6.021339875E0,-4.060116515E-2,2.761690823E0,1.191853754E0,3.008172207E0
6.031377875E0,4.540808804E-1,2.717247891E0,9.705126679E-1,2.920876647E0
6.041414875E0,1.226181441E0,2.721712825E0,7.649947321E-1,3.081632452E0
6.051452875E0,1.789330143E0,2.840445217E0,7.528699458E-1,3.440442493E0
6.061489875E0,2.114280967E0,2.983517813E0,9.225204760E-1,3.771287125E0
6.071527875E0,2.103805680E0,2.990093007E0,1.285919666E0,3.875595944E0
6.081564875E0,2.005948579E0,2.904903753E0,1.566307105E0,3.862073726E0
6.091602875E0,2.191273887E0,2.831954475E0,1.651988695E0,3.943439367E0
6.101640875E0,2.535217929E0,2.835714819E0,1.653946343E0,4.147788204E0
6.111677875E0,2.779951093E0,2.865145025E0,1.694250616E0,4.336780977E0
6.121715875E0,2.719172210E0,2.987624897E0,1.923693604E0,4.474415841E0
6.131752875E0,2.586806158E0,3.073439219E0,2.382063271E0,4.670312640E0
6.141790875E0,2.596019908E0,2.984034707E0,2.755843023E0,4.820627891E0
6.151828875E0,2.499640253E0,2.762771389E0,2.845589597E0,4.688121937E0
6.161865875E0,2.247698787E0,2.374984632E0,2.720175592E0,4.253475883E0
6.171903875E0,2.008619003E0,2.085442792E0,2.478492628E0,3.811370835E0
6.181940875E0,1.709881100E0,1.955414749E0,2.239129254E0,3.429437276E0
6.191978875E0,1.408932074E0,1.769461597E0,2.315828351E0,3.237150735E0
6.202015875E0,1.442707345E0,1.525652584E0,2.522357270E0,3.281966863E0
6.212053875E0,1.819278120E0,1.335467802E0,2.527344945E0,3.388321059E0
6.222091875E0,2.049522761E0,1.104925538E0,2.543286794E0,3.448146126E0
6.232128875E0,2.062594358E0,7.882321519E-1,2.454624293E0,3.301633813E0
6.242166875E0,1.969700081E0,5.639510858E-1,2.246767764E0,3.040678316E0
6.252203875E0,1.946835129E0,2.955340666E-1,2.117894254E0,2.891882341E0
6.262241875E0,2.248677464E0,3.468568325E-2,2.079764853E0,3.063196905E0
6.272279875E0,2.613019518E0,-1.622368455E-1,2.018883936E0,3.306067777E0
6.282316875E0,2.825362324E0,-3.350249916E-1,1.956760778E0,3.453089450E0
6.292354875E0,3.042329108E0,-6.626099861E-1,1.845403479E0,3.619438133E0
6.302391875E0,3.078708145E0,-9.372694927E-1,1.582280529E0,3.586158058E0
6.312429875E0,2.802674543E0,-1.179338374E0,1.378345435E0,3.338511604E0
6.322467875E0,2.477574323E0,-1.462511426E0,1.280047015E0,3.148941815E0
6.332504875E0,2.533395644E0,-1.676276860E0,1.069279742E0,3.220459092E0
6.342542875E0,2.903084684E0,-1.898452343E0,8.458082226E-1,3.570352018E0
6.352579875E0,3.188527333E0,-2.079672759E0,5.817368540E-1,3.850995080E0
6.362617875E0,3.078201191E0,-2.195969201E0,3.957272762E-1,3.801868407E0
6.372654875E0,2.808874930E0,-2.312919361E0,3.204461288E-1,3.652678478E0
6.382692875E0,2.447717124E0,-2.470145727E0,3.170532820E-1,3.491913776E0
6.392730875E0,2.165605487E0,-2.778413860E0,3.187653467E-1,3.537095143E0
6.402767875E0,2.211891607E0,-3.070929594E0,1.104539037E-1,3.786195072E0
6.412805875E0,2.172337094E0,-3.240697069E0,-1.386474234E-1,3.903894088E0
6.422842875E0,2.031752780E0,-3.186057177E0,-1.842416722E-1,3.783242616E0
6.432880875E0,1.927727013E0,-3.083332708E0,1.960571408E-3,3.636354750E0
6.442918875E0,1.904863523E0,-2.992065273E0,2.795495331E-1,3.557963966E0
6.452955875E0,1.933749938E0,-2.929539827E0,5.980628648E-1,3.560796485E0
6.462993875E0,1.963491800E0,-2.917094028E0,7.761681765E-1,3.600996342E0
6.473030875E0,1.953013590E0,-3.004681810E0,6.995120564E-1,3.651258958E0
6.483068875E0,1.835168805E0,-3.204534963E0,4.324206010E-1,3.718047398E0
6.493105875E0,1.536465840E0,-3.350046433E0,4.316005290E-2,3.685837920E0
6.503143875E0,1.244338654E0,-3.445525033E0,-3.177452999E-1,3.677089000E0
6.513181875E0,1.122556939E0,-3.502644144E0,-5.761135867E-1,3.722976893E0
6.523218875E0,1.168730355E0,-3.455626683E0,-6.425341558E-1,3.704070268E0
6.533256875E0,1.179345098E0,-3.279481065E0,-4.962701494E-1,3.520246437E0
6.543293875E0,1.102839544E0,-3.117273456E0,-2.732754707E-1,3.317880097E0
6.553331875E0,1.122064312E0,-3.158131460E0,-8.521439731E-2,3.352623470E0
6.563369875E0,1.070067654E0,-3.368337693E0,-8.646131605E-2,3.535282048E0
6.573406875E0,8.674306414E-1,-3.531455129E0,-3.329615092E-1,3.651639990E0
6.583444875E0,6.521687593E-1,-3.583431614E0,-6.224723589E-1,3.695101901E0
6.593481875E0,5.547143854E-1,-3.452113091E0,-8.102901882E-1,3.589061581E0
6.603519875E0,5.507094812E-1,-3.213727371E0,-7.935323605E-1,3.355744054E0
6.613556875E0,6.183196664E-1,-3.054435768E0,-5.321318538E-1,3.161496700E0
6.623594875E0,5.315345608E-1,-2.979330622E0,-1.995555300E-1,3.032946151E0
6.633632875E0,8.255727634E-2,-2.942259859E0,5.104882389E-2,2.943860521E0
6.643669875E0,-4.161742584E-1,-2.947900084E0,4.487182528E-2,2.977470302E0
6.653707875E0,-8.140550642E-1,-2.906645054E0,-1.159102330E-1,3.020712879E0
6.663744875E0,-1.031579380E0,-2.834519649E0,-2.967409319E-1,3.030959062E0
6.673782875E0,-9.996836959E-1,-2.792083481E0,-3.586933511E-1,2.987266071E0
6.683820875E0,-1.148643123E0,-2.656710498E0,-1.380244026E-1,2.897678800E0
6.693857875E0,-1.499417297E0,-2.553748047E0,2.093022537E-1,2.968785737E0
6.703895875E0,-1.950158687E0,-2.587858949E0,4.961429724E-1,3.278153549E0
6.713932875E0,-2.355969779E0,-2.714062913E0,5.548779613E-1,3.636567151E0
6.723970875E0,-2.659218661E0,-2.727997997E0,3.175961959E-1,3.822863365E0
6.734007875E0,-3.122521332E0,-2.615490552E0,6.221729815E-3,4.073201321E0
6.744045875E0,-3.438139415E0,-2.509187586E0,-2.039739785E-1,4.261270980E0
6.754083875E0,-3.306317446E0,-2.433007722E0,-1.983895952E-1,4.109819955E0
6.764120875E0,-2.989561495E0,-2.301647099E0,-4.518143535E-2,3.773208007E0
6.774158875E0,-2.798579445E0,-2.130467522E0,1.533575562E-1,3.520576275E0
6.784195875E0,-2.745858025E0,-1.943494030E0,2.348516625E-1,3.372248603E0
6.794233875E0,-2.852652449E0,-1.856489800E0,1.446919826E-1,3.406628266E0
6.804271875E0,-2.928028614E0,-1.771380068E0,2.341575980E-2,3.422234242E0
6.814308875E0,-2.818101836E0,-1.536062382E0,-1.116186690E-1,3.211486312E0
6.824346875E0,-2.698104692E0,-1.376938010E0,-1.130839813E-1,3.031256373E0
6.834383875E0,-2.515799033E0,-1.232086106E0,3.704503477E-3,2.801302317E0
6.844421875E0,-2.369142240E0,-9.910890198E-1,6.575194001E-4,2.568091281E0
6.854458875E0,-2.607586870E0,-8.098130554E-1,-7.704963773E-2,2.731527616E0
6.864496875E0,-2.957209143E0,-6.497484505E-1,-1.648555210E-1,3.032232892E0
6.874534875E0,-3.234599592E0,-4.488767123E-1,-3.755201760E-1,3.287117313E0
6.884572375E0,-3.329322147E0,-3.632091558E-1,-4.625855094E-1,3.380871515E0
6.894610375E0,-2.998055161E0,-3.404073536E-1,-5.153335342E-1,3.061009730E0
6.904647375E0,-2.493250415E0,-2.910989535E-1,-5.392810982E-1,2.567461847E0
6.914685375E0,-2.354720082E0,-2.080334079E-1,-4.588117164E-1,2.408005971E0
6.924723375E0,-2.625883977E0,-1.002487582E-1,-3.321791518E-1,2.648709019E0
6.934760375E0,-3.010567910E0,1.970447356E-1,-2.091630900E-1,3.024251141E0
6.944798375E0,-3.293517891E0,4.199306560E-1,-1.751629928E-1,3.324798329E0
6.954835375E0,-3.443948039E0,5.344518828E-1,-1.271708009E-1,3.487490405E0
6.964873375E0,-3.622703269E0,5.938286036E-1,-1.069251090E-1,3.672607297E0
6.974910375E0,-3.958553887E0,6.946544820E-1,-2.207090020E-2,4.019101996E0
6.984948375E0,-4.111632531E0,7.847249919E-1,1.153129399E-2,4.185862916E0
6.994986375E0,-4.028605869E0,9.796764243E-1,8.734453797E-2,4.146933833E0
7.005023375E0,-3.380829100E0,1.545301568E0,2.835303175E-1,3.728049326E0
7.015061375E0,-2.365798363E0,2.217168866E0,6.744096673E-1,3.311746982E0
7.025098375E0,-1.927667810E0,2.641952711E0,1.205086588E0,3.485405428E0
7.035136375E0,-2.324649899E0,2.707463745E0,1.604753718E0,3.912747319E0
7.045174375E0,-3.248548710E0,2.526387756E0,1.652907878E0,4.434840275E0
7.055211375E0,-3.747866720E0,2.376402581E0,1.425902594E0,4.661222199E0
7.065249375E0,-3.639516937E0,2.414769087E0,1.215166018E0,4.533632289E0
7.075286375E0,-3.169689651E0,2.805216327E0,1.079864956E0,4.368326848E0
7.085324375E0,-2.774248596E0,3.338257277E0,1.113613915E0,4.481132990E0
7.095361375E0,-2.920577214E0,3.425729869E0,1.525220475E0,4.753072049E0
7.105399375E0,-3.330739512E0,3.207945644E0,1.854817497E0,4.982478188E0
7.115437375E0,-3.547842536E0,3.040232881E0,1.866456964E0,5.031288526E0
7.125474375E0,-3.148090037E0,3.115387144E0,1.720060810E0,4.751285839E0
7.135512375E0,-2.008082813E0,3.303579195E0,1.710057394E0,4.227331117E0
7.145549375E0,-1.210524206E0,3.385690475E0,1.832824949E0,4.035779496E0
7.155587375E0,-1.443476693E0,3.373786129E0,1.867305980E0,4.117388666E0
7.165625375E0,-1.846736206E0,3.348951834E0,1.803867783E0,4.228457400E0
7.175662375E0,-1.538959239E0,3.359269246E0,1.746765044E0,4.087086191E0
7.185700375E0,-8.055473654E-1,3.316511482E0,1.920251348E0,3.916059270E0
7.195737375E0,5.822072625E-2,3.355231159E0,2.285997026E0,4.060387689E0
7.205775375E0,8.915879743E-1,3.420894222E0,2.640932372E0,4.412705540E0
7.215812375E0,1.224650933E0,3.264439688E0,2.695011515E0,4.406747491E0
7.225850375E0,1.178805985E0,3.134791129E0,2.363455092E0,4.099075377E0
7.235888375E0,1.309471081E0,3.264939040E0,1.935854643E0,4.015230335E0
7.245925375E0,1.675306222E0,3.412747296E0,1.932604176E0,4.264792368E0
7.255963375E0,2.127659542E0,3.432148942E0,2.386428802E0,4.690588867E0
7.266000375E0,2.630541869E0,3.357749555E0,2.977928460E0,5.202142877E0
7.276038375E0,2.965316308E0,3.208098841E0,3.268319900E0,5.455906336E0
7.286076375E0,3.035576159E0,3.026574370E0,3.085054128E0,5.281328811E0
7.296113375E0,2.845494288E0,2.831514180E0,2.754487638E0,4.868419912E0
7.306151375E0,2.566713663E0,2.626623650E0,2.610925046E0,4.506007149E0
7.316188375E0,2.410641976E0,2.383470696E0,2.830843504E0,4.416537358E0
7.326226375E0,2.501758699E0,2.237692008E0,3.152309972E0,4.604684600E0
7.336263375E0,2.764080873E0,2.040625638E0,3.450903887E0,4.869603033E0
7.346301375E0,2.859638410E0,1.560622442E0,3.530442976E0,4.803863222E0
7.356339375E0,2.734808834E0,1.226525989E0,3.176237948E0,4.367153863E0
7.366376375E0,2.542088992E0,1.001928003E0,2.822720552E0,3.928591030E0
7.376414375E0,2.408957101E0,7.727738678E-1,2.593189856E0,3.622828645E0
7.386451375E0,2.510998469E0,5.337186420E-1,2.549153305E0,3.617755032E0
7.396489375E0,2.754115171E0,2.533966917E-1,2.594195577E0,3.791993005E0
7.406526375E0,3.072763281E0,-9.411736786E-2,2.509267108E0,3.968268348E0
7.416564375E0,3.034732406E0,-3.480642825E-1,2.156664217E0,3.739244585E0
7.426602375E0,2.525794263E0,-4.845973527E-1,1.827512754E0,3.155039480E0
7.436639375E0,2.154969986E0,-6.081232917E-1,1.639944600E0,2.775450931E0
7.446677375E0,2.211634769E0,-8.568597525E-1,1.506725732E0,2.809939397E0
7.456714375E0,2.486424083E0,-1.180076292E0,1.507767706E0,3.138191873E0
7.466752375E0,2.740048524E0,-1.367093053E0,1.414225704E0,3.372957704E0
7.476790375E0,2.761156096E0,-1.493351980E0,1.263839118E0,3.383987653E0
7.486827375E0,2.672772215E0,-1.666196845E0,1.091035185E0,3.333208816E0
7.496865375E0,2.502702147E0,-1.753962967E0,8.507567212E-1,3.172332127E0
7.506902375E0,2.284801563E0,-1.868114650E0,7.685723510E-1,3.049733428E0
7.516940375E0,2.312192844E0,-2.085944483E0,7.990986174E-1,3.214958590E0
7.526977375E0,2.484196587E0,-2.292098011E0,8.080989441E-1,3.475337376E0
7.537015375E0,2.727528174E0,-2.351734348E0,7.488347822E-1,3.678426010E0
7.547053375E0,2.751428083E0,-2.428376727E0,8.896000671E-1,3.776077105E0
7.557090375E0,2.375048366E0,-2.567135248E0,9.537311590E-1,3.625002241E0
7.567128375E0,1.937407956E0,-2.625320891E0,7.339135650E-1,3.344321828E0
7.577165375E0,1.725384993E0,-2.943875445E0,6.794128373E-1,3.479217989E0
7.587203375E0,1.833997900E0,-3.192539400E0,3.118752801E-1,3.695013168E0
7.597241375E0,2.117038221E0,-3.410182707E0,-6.978710353E-2,4.014482179E0
7.607278375E0,2.296183168E0,-3.596879625E0,-3.038944155E-1,4.278124822E0
7.617316375E0,2.337032986E0,-3.729791515E0,-3.143015823E-1,4.412692308E0
7.627353375E0,2.282729017E0,-3.856352159E0,-9.813528210E-2,4.482402734E0
7.637391375E0,1.975909240E0,-3.772192014E0,-7.346909523E-2,4.258996082E0
7.647428375E0,1.771284174E0,-3.685131651E0,-1.097443441E-1,4.090193972E0
7.657466375E0,1.894007875E0,-3.723351392E0,-1.547287282E-1,4.180257455E0
7.667504375E0,2.244269541E0,-3.795669755E0,-2.505053897E-1,4.416628534E0
7.677541375E0,2.591987668E0,-3.903978900E0,-2.900482088E-1,4.695059029E0
7.687579375E0,2.628551185E0,-4.044868730E0,-3.830160141E-1,4.839105872E0
7.697616375E0,2.394871597E0,-4.159558357E0,-6.445075911E-1,4.842801434E0
7.707654375E0,2.040589385E0,-4.004693096E0,-9.715072793E-1,4.598412577E0
7.717692375E0,1.800943883E0,-3.815875978E0,-1.096759901E0,4.359723687E0
7.727729375E0,1.603906749E0,-3.691443720E0,-9.087124224E-1,4.126140069E0
7.737767375E0,1.469094222E0,-3.615024120E0,-5.563390343E-1,3.941592361E0
7.747804375E0,1.592638579E0,-3.621388814E0,-3.112553291E-1,3.968354126E0
7.757842375E0,1.625280953E0,-3.741749071E0,-1.908427401E-1,4.083949710E0
7.767879375E0,1.208666253E0,-3.834574204E0,-1.900228143E-1,4.025039392E0
7.777917375E0,5.770798391E-1,-3.829680085E0,-3.726623493E-1,3.890802991E0
7.787955375E0,1.125972006E-1,-3.930418839E0,-4.768059379E-1,3.960835049E0
7.797992375E0,-1.322561243E-1,-4.125273793E0,-4.490837038E-1,4.151752849E0
7.808030375E0,-2.328343731E-1,-4.175175101E0,-3.400853182E-1,4.195468626E0
7.818067375E0,-3.389133900E-1,-4.038778270E0,-1.558758058E-1,4.055969609E0
7.828105375E0,-6.364036426E-1,-3.757975094E0,1.083214241E-1,3.813019792E0
7.838142375E0,-1.045119339E0,-3.451465804E0,4.265331857E-1,3.631366298E0
7.848180375E0,-1.348083901E0,-3.418350098E0,6.942364061E-1,3.739573744E0
7.858218375E0,-1.635106176E0,-3.652721704E0,7.723661707E-1,4.075843171E0
7.868255375E0,-2.047549033E0,-3.891919017E0,5.856296378E-1,4.436491041E0
7.878293375E0,-2.633031614E0,-3.956976308E0,2.637415856E-1,4.760260141E0
7.888330417E0,-3.375683843E0,-3.825740231E0,-5.256909996E-2,5.102381133E0
7.898368417E0,-3.983216273E0,-3.517289080E0,-2.259656489E-1,5.318683561E0
7.908406417E0,-4.367121064E0,-3.287937309E0,-1.617762311E-1,5.468861827E0
7.918443417E0,-4.498209792E0,-3.123144645E0,4.879676878E-2,5.476340469E0
7.928481417E0,-4.425447040E0,-3.004833253E0,2.258025116E-1,5.353932308E0
7.938518417E0,-4.257084067E0,-2.929439839E0,2.932530677E-1,5.175942415E0
7.948556417E0,-4.165944686E0,-2.691873899E0,3.616719228E-1,4.973136515E0
7.958593417E0,-4.058929530E0,-2.303331681E0,4.830472559E-1,4.691863213E0
7.968631417E0,-3.677061909E0,-1.814993865E0,5.897776526E-1,4.142803965E0
7.978669417E0,-3.347639719E0,-1.425587429E0,5.419447973E-1,3.678681200E0
7.988706417E0,-3.446976312E0,-1.257488165E0,3.707932869E-1,3.687873349E0
7.998744417E0,-3.800743968E0,-1.268687922E0,1.795712087E-1,4.010918794E0
8.008781417E0,-4.330750798E0,-1.335766010E0,7.388249338E-3,4.532077658E0
8.018819417E0,-4.503165892E0,-1.195395997E0,-4.740425438E-2,4.659369249E0
8.028856417E0,-4.007795044E0,-8.109573555E-1,-3.155800760E-2,4.089140357E0
8.038894417E0,-3.293183723E0,-2.139069360E-1,-2.517401755E-2,3.300219529E0
8.048932417E0,-2.968275876E0,3.878961003E-1,-3.568555713E-3,2.993515959E0
8.058969417E0,-3.489308399E0,6.434264410E-1,2.352247149E-1,3.555924824E0
8.069007417E0,-4.482399798E0,6.012884814E-1,5.758823293E-1,4.559067475E0
8.079044417E0,-5.176024293E0,7.065868950E-1,8.579689693E-1,5.294015798E0
8.089082417E0,-4.860585135E0,9.130626047E-1,8.930329674E-1,5.025582459E0
8.099119417E0,-4.030946510E0,9.770545328E-1,8.295392221E-1,4.229810947E0
8.109157417E0,-3.455311225E0,1.231457530E0,7.001935494E-1,3.734425568E0
8.119195417E0,-3.713830663E0,1.636823357E0,2.770580345E-1,4.067983536E0
8.129232417E0,-4.434868074E0,1.972345362E0,-5.351927251E-2,4.853974183E0
8.139270417E0,-4.866255180E0,2.141698269E0,-1.124337709E-1,5.317889835E0
8.149307417E0,-4.862394848E0,2.223696697E0,-2.884548426E-2,5.346825481E0
8.159345417E0,-4.144946165E0,2.363874337E0,1.485192776E-1,4.773943712E0
8.169383417E0,-3.322453130E0,2.454449462E0,4.099477047E-1,4.151032893E0
8.179420417E0,-3.105323501E0,2.922089889E0,7.359989744E-1,4.327047245E0
8.189458417E0,-2.933463308E0,3.248755701E0,9.955393356E-1,4.488955241E0
8.199495417E0,-2.772547933E0,3.191181092E0,1.210894627E0,4.397377014E0
8.209533417E0,-2.870369220E0,3.117902616E0,1.271593988E0,4.424622860E0
8.219570417E0,-3.277837998E0,3.151556266E0,1.111316544E0,4.680977814E0
8.229608417E0,-3.538600427E0,3.327245800E0,9.318076086E-1,4.945758083E0
8.239646417E0,-3.072031794E0,3.452221264E0,9.379419225E-1,4.715394581E0
8.249683417E0,-2.485966831E0,3.651432393E0,1.198527181E0,4.577057681E0
8.259721417E0,-1.581121611E0,3.981863227E0,1.660436752E0,4.594804731E0
8.269758417E0,-6.589908519E-1,4.072448877E0,2.194334319E0,4.672709268E0
8.279796417E0,-3.957967119E-1,3.952987338E0,2.648574682E0,4.774694941E0
8.289833417E0,-5.440414627E-1,3.998186315E0,2.752252833E0,4.884298371E0
8.299871417E0,-3.691662991E-1,4.051961403E0,2.623094271E0,4.841001810E0
8.309909417E0,3.302381685E-1,4.003759296E0,2.409322405E0,4.684440223E0
8.319946417E0,1.035849163E0,3.875781872E0,2.260832364E0,4.605000715E0
8.329984417E0,1.212401893E0,3.704995812E0,2.226339054E0,4.489264740E0
8.340021417E0,9.662374762E-1,3.559133509E0,2.205442275E0,4.297094580E0
8.350059417E0,8.184226419E-1,3.405937629E0,2.124177672E0,4.096627580E0
8.360097417E0,1.175058504E0,3.313321241E0,1.962177054E0,4.026040105E0
8.370134417E0,1.984942749E0,3.259266071E0,2.005733548E0,4.311122836E0
8.380172417E0,2.786705797E0,3.248948075E0,2.175276489E0,4.801376948E0
8.390209417E0,3.123481445E0,3.164925925E0,2.400173852E0,5.053090833E0
8.400247417E0,2.952627265E0,2.958394666E0,2.459099168E0,4.849461360E0
8.410284417E0,2.477975442E0,2.803541100E0,2.339918879E0,4.413097025E0
8.420322417E0,2.283187585E0,2.692695433E0,2.168301930E0,4.143077057E0
8.430360417E0,2.583558615E0,2.528840663E0,2.153752888E0,4.208142312E0
8.440397417E0,3.144487275E0,2.434975895E0,2.363849194E0,4.626520381E0
8.450435417E0,3.563416595E0,2.297864535E0,2.678369170E0,5.015155098E0
8.460472417E0,3.760610434E0,2.080027100E0,2.958714509E0,5.217537266E0
8.470510417E0,3.696396312E0,1.860284058E0,3.129095356E0,5.187989998E0
8.480547417E0,3.299226235E0,1.838703155E0,2.987593907E0,4.815749204E0
8.490585417E0,2.952266784E0,1.711651930E0,2.806967568E0,4.418676094E0
8.500623417E0,2.870834074E0,1.381377216E0,2.831954475E0,4.262611575E0
8.510660417E0,2.887236391E0,1.029316946E0,3.013464328E0,4.298440951E0
8.520698417E0,2.880750074E0,5.473964489E-1,3.253172688E0,4.379668526E0
8.530735417E0,2.959548907E0,1.440303701E-1,3.256305918E0,4.402635882E0
8.540773417E0,3.010320280E0,6.973272443E-2,2.914059908E0,4.190302613E0
8.550810417E0,3.086711229E0,-2.164814651E-2,2.616522000E0,4.046534596E0
8.560848417E0,3.034233638E0,-2.835794342E-1,2.434848425E0,3.900702234E0
8.570886417E0,2.812949855E0,-5.486559391E-1,2.404265733E0,3.740882776E0
8.580923417E0,2.824693403E0,-8.862367487E-1,2.477975149E0,3.860656581E0
8.590961417E0,3.081021596E0,-1.351770424E0,2.540895867E0,4.216174707E0
8.600998417E0,3.138701455E0,-1.783392588E0,2.349881950E0,4.307421633E0
8.611036417E0,2.996831923E0,-2.000521924E0,1.946017104E0,4.095127851E0
8.621074417E0,3.008279017E0,-2.258011082E0,1.527059717E0,4.059589643E0
8.631111417E0,3.098761756E0,-2.547901416E0,1.211757091E0,4.190761422E0
8.641149417E0,3.045023797E0,-2.764909716E0,1.115797266E0,4.261677980E0
8.651186417E0,2.962711081E0,-3.015614934E0,1.139639288E0,4.378397890E0
8.661224417E0,2.871789216E0,-3.313704234E0,1.224550507E0,4.552728083E0
8.671261417E0,2.744263490E0,-3.458149756E0,1.117701412E0,4.554013426E0
8.681299417E0,2.673725896E0,-3.617526729E0,8.153500763E-1,4.571663324E0
8.691337417E0,2.552071066E0,-3.884355059E0,4.376597062E-1,4.668278802E0
8.701374417E0,2.462561012E0,-4.134521749E0,1.531678140E-2,4.812349887E0
8.711412417E0,2.566831777E0,-4.192540746E0,-2.459815452E-1,4.922045327E0
8.721449417E0,2.690480215E0,-4.123364677E0,-2.796594608E-1,4.931432800E0
8.731487417E0,2.683243994E0,-3.986259164E0,-1.776167768E-1,4.808493337E0
8.741524417E0,2.573039766E0,-3.879036432E0,4.240400791E-3,4.654833537E0
8.751562417E0,2.339713057E0,-4.013666818E0,1.133117303E-2,4.645848352E0
8.761600417E0,2.127415275E0,-4.164804479E0,-1.866369841E-1,4.680419368E0
8.771637417E0,1.987809493E0,-4.278060368E0,-5.026781130E-1,4.744035453E0
8.781675417E0,1.752358783E0,-4.316359631E0,-7.340512669E-1,4.715989083E0
8.791712417E0,1.618447312E0,-4.197910829E0,-7.640436825E-1,4.563506303E0
8.801750417E0,1.589708832E0,-3.928758815E0,-6.198506136E-1,4.283285512E0
8.811787417E0,1.372145632E0,-3.700881127E0,-4.500385541E-1,3.972636335E0
8.821825417E0,1.078099389E0,-3.550049860E0,-3.013739732E-1,3.722361962E0
8.831863417E0,9.757868564E-1,-3.613866372E0,-2.944087699E-1,3.754845758E0
8.841900417E0,9.752278626E-1,-3.801269048E0,-3.639894667E-1,3.941218605E0
8.851938417E0,8.197027436E-1,-3.945259073E0,-4.729473603E-1,4.057174010E0
8.861975417E0,5.026371825E-1,-4.063423700E0,-5.488073820E-1,4.131010269E0
8.872013417E0,1.247219869E-1,-4.033300599E0,-6.926863092E-1,4.094250068E0
8.882050417E0,-4.479899821E-1,-3.879786630E0,-8.546538904E-1,3.997983565E0
8.892088125E0,-9.998129193E-1,-3.800138197E0,-8.535854580E-1,4.021104864E0
8.902126125E0,-1.142677355E0,-3.763017148E0,-8.012211567E-1,4.013472927E0
8.912163125E0,-9.490719514E-1,-3.796873696E0,-6.757630053E-1,3.971604597E0
8.922201125E0,-8.388547137E-1,-3.902988381E0,-5.023521307E-1,4.023599533E0
8.932238125E0,-1.174844204E0,-4.008206103E0,-4.169468218E-1,4.197596899E0
8.942276125E0,-1.864255341E0,-4.081586906E0,-4.631298852E-1,4.511018614E0
8.952314125E0,-2.549257970E0,-4.097163303E0,-7.173998585E-1,4.878537270E0
8.962351125E0,-3.080992945E0,-3.911321833E0,-1.095003982E0,5.098037831E0
8.972389125E0,-3.477880308E0,-3.815221090E0,-1.389645471E0,5.346277017E0
8.982426125E0,-3.868904377E0,-3.832069842E0,-1.447093488E0,5.634470686E0
8.992464125E0,-3.959246197E0,-3.825235616E0,-1.280253130E0,5.652177107E0
9.002501125E0,-3.797206988E0,-3.750170816E0,-1.108357269E0,5.450781402E0
9.012539125E0,-3.550043428E0,-3.527321148E0,-1.014869061E0,5.106345272E0
9.022577125E0,-3.528645835E0,-3.317759863E0,-1.046488172E0,4.955200241E0
9.032614125E0,-3.893612371E0,-3.178862763E0,-1.115906024E0,5.148847640E0
9.042652125E0,-4.449498685E0,-3.013342121E0,-1.142658497E0,5.493991056E0
9.052689125E0,-4.797512096E0,-2.762290163E0,-1.021305384E0,5.629336901E0
9.062727125E0,-4.729040909E0,-2.431473997E0,-7.265340865E-1,5.366912101E0
9.072764125E0,-4.228142104E0,-2.012768333E0,-4.167430463E-1,4.701286715E0
9.082802125E0,-3.497661147E0,-1.522027311E0,-3.201876819E-2,3.814606904E0
9.092840125E0,-3.156463249E0,-1.019679565E0,2.552438271E-1,3.326883838E0
9.102877125E0,-3.312565781E0,-6.016445768E-1,3.417019272E-1,3.384055032E0
9.112915125E0,-3.646683285E0,-4.027363336E-1,3.755122823E-1,3.688021828E0
9.122952125E0,-4.011067731E0,-2.132649118E-1,4.869093418E-1,4.046137290E0
9.132990125E0,-4.207931787E0,1.361582637E-1,6.502138889E-1,4.260047782E0
9.143027125E0,-4.066288543E0,4.542397785E-1,1.068587431E0,4.228819621E0
9.153065125E0,-4.031302605E0,7.884058142E-1,1.633124408E0,4.420416242E0
9.163103125E0,-4.261414515E0,1.179394507E0,2.014613714E0,4.858939543E0
9.173140125E0,-4.752931463E0,1.699310796E0,2.083465848E0,5.460663385E0
9.183178125E0,-4.976323752E0,2.151464873E0,1.906740772E0,5.747021798E0
9.193215125E0,-4.901541957E0,2.291080595E0,1.844216495E0,5.716231129E0
9.203253125E0,-4.506167852E0,2.430655387E0,1.731423705E0,5.404762934E0
9.213291125E0,-3.542048822E0,2.616234902E0,1.688603960E0,4.716161390E0
9.223328125E0,-2.587896664E0,2.820447155E0,1.850567155E0,4.251673799E0
9.233366125E0,-2.163032127E0,3.064441524E0,2.012629169E0,4.256781179E0
9.243403125E0,-2.251858496E0,3.215832369E0,2.078745975E0,4.442254984E0
9.253441125E0,-2.640121363E0,3.129191836E0,1.982469816E0,4.548875567E0
9.263478125E0,-3.311037319E0,3.168918988E0,1.695052269E0,4.886534342E0
9.273516125E0,-3.590697949E0,3.297555978E0,1.409057935E0,5.074685355E0
9.283554125E0,-3.524165113E0,3.140216761E0,1.414647873E0,4.927669800E0
9.293591125E0,-3.376849777E0,3.155530034E0,1.568855322E0,4.880757240E0
9.303629125E0,-2.707163783E0,3.337786576E0,1.678711640E0,4.613851726E0
9.313666125E0,-2.039838749E0,3.352704577E0,1.815921818E0,4.324250473E0
9.323704125E0,-1.777864630E0,3.335842377E0,1.922445223E0,4.240806839E0
9.333741125E0,-1.639926913E0,3.444035747E0,1.905920992E0,4.264185424E0
9.343779125E0,-1.494868456E0,3.531908289E0,1.972925406E0,4.312938965E0
9.353817125E0,-9.313943566E-1,3.623151750E0,2.036091707E0,4.259154081E0
9.363854125E0,-7.970675871E-2,3.568892512E0,2.029156324E0,4.106193166E0
9.373892125E0,3.885204367E-1,3.426753132E0,2.044248573E0,4.009056919E0
9.383929125E0,2.812617441E-1,3.311670572E0,2.092551836E0,3.927472894E0
9.393967125E0,7.832184568E-2,3.337319968E0,2.162987981E0,3.977732506E0
9.404004125E0,4.266252793E-1,3.389740257E0,2.237378597E0,4.083896561E0
9.414042125E0,8.137121250E-1,3.307855264E0,2.359484832E0,4.143814975E0
9.424080125E0,8.826095746E-1,3.220553411E0,2.340846248E0,4.078054081E0
9.434117125E0,9.081471428E-1,3.095908315E0,2.159495439E0,3.882370420E0
9.444155125E0,8.235655604E-1,2.992413182E0,1.969282590E0,3.675713646E0
9.454192125E0,7.959370279E-1,2.984864427E0,1.982006716E0,3.670324512E0
9.464230125E0,9.628588088E-1,3.072689021E0,2.129315035E0,3.860375296E0
9.474267125E0,1.340147621E0,3.000525025E0,2.298632859E0,4.010344011E0
9.484305125E0,1.569653905E0,2.860965436E0,2.372953309E0,4.034828870E0
9.494343125E0,1.550313070E0,2.735363735E0,2.298286704E0,3.894586904E0
9.504380125E0,1.481221347E0,2.620609204E0,2.120975152E0,3.682410199E0
9.514418125E0,1.573358555E0,2.570941785E0,2.102658164E0,3.675101381E0
9.524455125E0,2.041111980E0,2.540931535E0,2.276013490E0,3.975262078E0
9.534493125E0,2.703787016E0,2.393363600E0,2.586703539E0,4.441811427E0
9.544530125E0,3.313373281E0,2.138383482E0,2.876870447E0,4.881343051E0
9.554568125E0,3.620835375E0,1.832276480E0,2.985473122E0,5.037929702E0
9.564606125E0,3.649588181E0,1.543076702E0,2.879104668E0,4.897940719E0
9.574643125E0,3.730675029E0,1.376854979E0,2.604163325E0,4.753454789E0
9.584681125E0,3.911787856E0,1.243533200E0,2.454665224E0,4.782660391E0
9.594718125E0,3.989020219E0,1.041842267E0,2.573195887E0,4.859943898E0
9.604756125E0,3.984191004E0,6.169367999E-1,2.727106882E0,4.867391593E0
9.614793125E0,3.846220688E0,5.532284617E-2,2.719863351E0,4.711064726E0
9.624831125E0,3.781676198E0,-3.377234817E-1,2.457333308E0,4.522567745E0
9.634869125E0,3.688073385E0,-6.348667020E-1,2.027995944E0,4.256490171E0
9.644906125E0,3.619312468E0,-9.900148863E-1,1.708534194E0,4.122940857E0
9.654944125E0,3.626425314E0,-1.325445675E0,1.529164422E0,4.152843679E0
9.664981125E0,3.627044534E0,-1.568460635E0,1.407196181E0,4.194725486E0
9.675019125E0,3.594022383E0,-1.769043521E0,1.446451464E0,4.258959228E0
9.685057125E0,3.608639838E0,-1.978903014E0,1.454608330E0,4.365114433E0
9.695094125E0,3.780467579E0,-2.268431405E0,1.346029043E0,4.609719117E0
9.705132125E0,3.909604506E0,-2.452246816E0,1.163174331E0,4.759358818E0
9.715169125E0,3.795077724E0,-2.495916746E0,1.036020194E0,4.658921890E0
9.725207125E0,3.488993819E0,-2.573989938E0,1.124454653E0,4.479162906E0
9.735244125E0,3.162810694E0,-2.826849271E0,1.378062137E0,4.460213397E0
9.745282125E0,2.931557701E0,-3.078684171E0,1.550431038E0,4.525059467E0
9.755320125E0,2.896918210E0,-3.288179383E0,1.373097559E0,4.592347513E0
9.765357125E0,2.999680102E0,-3.372266437E0,1.051484033E0,4.634207625E0
9.775395125E0,2.945282285E0,-3.357315692E0,7.837941152E-1,4.534378635E0
9.785432125E0,2.708809775E0,-3.344638343E0,5.954827809E-1,4.344980528E0
9.795470125E0,2.471511929E0,-3.461960387E0,6.005543634E-1,4.295835946E0
9.805507125E0,2.337469773E0,-3.715189848E0,7.160509059E-1,4.447373320E0
9.815545125E0,2.292594147E0,-3.892687342E0,6.957818252E-1,4.570898709E0
9.825583125E0,2.255515783E0,-3.953883131E0,5.087103930E-1,4.580319806E0
9.835620125E0,2.120649754E0,-3.942612623E0,2.846231622E-1,4.485795361E0
9.845658125E0,1.944070566E0,-3.994210793E0,1.006124550E-1,4.443338057E0
9.855695125E0,1.769906277E0,-4.053852977E0,-4.516506314E-2,4.423610751E0
9.865733125E0,1.689384563E0,-4.169260642E0,-1.514653972E-1,4.501077234E0
9.875770125E0,1.554553033E0,-4.234764660E0,-2.558756188E-1,4.518333674E0
9.885807750E0,1.238310175E0,-4.203756291E0,-3.221885991E-1,4.394176206E0
9.895845750E0,8.709331235E-1,-4.141437836E0,-3.758194073E-1,4.248678863E0
9.905882750E0,5.375313190E-1,-4.153950292E0,-2.936544791E-1,4.198866026E0
9.915920750E0,2.309384134E-1,-4.203109589E0,-1.913849232E-1,4.213797688E0
9.925957750E0,9.104407132E-2,-4.114832420E0,-2.560603908E-1,4.123797011E0
9.935995750E0,-4.929232031E-2,-3.982595299E0,-2.331375512E-1,3.989717805E0
9.946032750E0,-2.721577755E-1,-3.760867712E0,-1.759497356E-1,3.774805175E0
9.956070750E0,-4.747773926E-1,-3.523791184E0,-6.569200605E-2,3.556238648E0
9.966108750E0,-7.851619251E-1,-3.466935198E0,9.078971744E-2,3.555891124E0
9.976145750E0,-1.138755042E0,-3.543807372E0,1.454003727E-1,3.725114093E0
9.986183750E0,-1.376665383E0,-3.599002749E0,1.767554820E-2,3.853354486E0
9.996220750E0,-1.526247392E0,-3.635399328E0,-1.767174751E-1,3.946744030E0
1.000625875E1,-1.551726342E0,-3.653074876E0,-3.636740094E-1,3.985607793E0
1.001629575E1,-1.739807589E0,-3.581959870E0,-4.927740991E-1,4.012504613E0
1.002633375E1,-2.247259953E0,-3.501221516E0,-5.038257752E-1,4.190771983E0
1.003637175E1,-2.702802930E0,-3.490574906E0,-5.098429987E-1,4.444006833E0
1.004640875E1,-3.049974927E0,-3.490914629E0,-5.357715994E-1,4.666463673E0
1.005644675E1,-3.190464224E0,-3.541634547E0,-5.792678672E-1,4.801852610E0
1.006648375E1,-2.969963382E0,-3.577617728E0,-6.603835125E-1,4.696396223E0
1.007652175E1,-2.966443943E0,-3.419687356E0,-6.931102324E-1,4.579787449E0
1.008655875E1,-3.447610150E0,-3.198738618E0,-6.246519086E-1,4.744273865E0
1.009659675E1,-3.972804721E0,-2.881974481E0,-5.389054146E-1,4.937547297E0
1.010663475E1,-4.257655925E0,-2.656338031E0,-3.878323656E-1,5.033307029E0
1.011667175E1,-4.061885882E0,-2.622525921E0,-3.929293835E-1,4.850871327E0
1.012670975E1,-3.479729490E0,-2.610483581E0,-5.987314939E-1,4.391084291E0
1.013674675E1,-3.074884943E0,-2.468133700E0,-7.533070251E-1,4.014233781E0
1.014678475E1,-3.136295910E0,-2.116347080E0,-7.662708870E-1,3.860368904E0
1.015682175E1,-3.351999988E0,-1.613257324E0,-6.763866109E-1,3.781005416E0
1.016685975E1,-3.503380308E0,-1.197185245E0,-4.080029207E-1,3.724700321E0
1.017689775E1,-3.320143772E0,-8.978276843E-1,-1.272023758E-1,3.441748054E0
1.018693475E1,-3.094688878E0,-7.600906724E-1,5.846046209E-2,3.187201705E0
1.019697275E1,-3.110578979E0,-7.534546673E-1,1.635729343E-1,3.204707728E0
1.020700975E1,-3.388158585E0,-6.590987331E-1,2.148576933E-1,3.458351278E0
1.021704775E1,-3.424695497E0,-3.211296684E-1,2.387985331E-1,3.447997716E0
1.022708475E1,-3.269484958E0,1.660024524E-3,4.354634920E-1,3.298357636E0
1.023712275E1,-3.212179905E0,4.023825771E-1,7.518013671E-1,3.323434485E0
1.024716075E1,-3.388284885E0,7.315509975E-1,7.848112383E-1,3.554092008E0
1.025719775E1,-3.937243125E0,6.797838432E-1,6.397903499E-1,4.046396074E0
1.026723575E1,-4.369417850E0,7.180679029E-1,4.358175409E-1,4.449423647E0
1.027727275E1,-4.346017586E0,9.785771477E-1,2.179187107E-1,4.460153658E0
1.028731075E1,-3.790751369E0,1.298140932E0,2.860633314E-1,4.017063362E0
1.029734775E1,-2.945119733E0,1.799293506E0,5.491231316E-1,3.494670739E0
1.030738575E1,-2.433151563E0,2.319593958E0,9.791753179E-1,3.501360730E0
1.031742375E1,-2.356101633E0,2.743668535E0,1.409646749E0,3.881499182E0
1.032746075E1,-2.469074225E0,2.770343533E0,1.592734766E0,4.038308415E0
1.033749875E1,-2.867671899E0,2.578934344E0,1.424627316E0,4.111448341E0
1.034753575E1,-2.897560819E0,2.471131568E0,1.042797702E0,3.948389162E0
1.035757375E1,-2.744137774E0,2.613475016E0,7.126729694E-1,3.855962467E0
1.036761075E1,-2.419041209E0,2.845310100E0,5.596001726E-1,3.776334505E0
1.037764875E1,-2.040498315E0,3.126383418E0,6.250702769E-1,3.785316301E0
1.038768675E1,-1.798920746E0,3.336918265E0,9.290939158E-1,3.903121169E0
1.039772375E1,-1.773829467E0,3.411291924E0,1.382024503E0,4.085752721E0
1.040776175E1,-2.029774229E0,3.402974845E0,1.832587552E0,4.365615460E0
1.041779875E1,-2.456380212E0,3.436699246E0,2.152485212E0,4.741086167E0
1.042783675E1,-2.030973931E0,3.617931941E0,2.038956842E0,4.622946208E0
1.043787375E1,-8.715217189E-1,3.544344732E0,1.785694052E0,4.063327815E0
1.044791175E1,-3.033208767E-1,3.404765847E0,1.640577269E0,3.791560075E0
1.045794975E1,-3.637657376E-1,3.325682840E0,1.404614051E0,3.628420110E0
1.046798675E1,-8.522484190E-1,3.143205857E0,1.199017178E0,3.470405253E0
1.047802475E1,-1.544896502E0,3.003620540E0,1.133695008E0,3.562822747E0
1.048806175E1,-1.777700908E0,2.949896908E0,1.090444323E0,3.612641846E0
1.049809975E1,-1.226779173E0,2.999134557E0,1.185697805E0,3.450460044E0
1.050813675E1,-2.058321505E-1,3.039589688E0,1.339740947E0,3.328119311E0
1.051817475E1,2.166755927E-1,2.969949349E0,1.480642473E0,3.325635215E0
1.052821275E1,-1.745381447E-1,2.813702391E0,1.494061248E0,3.190549126E0
1.053824975E1,-7.582288458E-1,2.695136645E0,1.381670746E0,3.122128532E0
1.054828775E1,-9.361898044E-1,2.669912927E0,1.209149818E0,3.076837608E0
1.055832475E1,-2.644638629E-1,2.745244360E0,1.120149933E0,2.976750511E0
1.056836275E1,5.801972090E-1,2.740969461E0,1.276008636E0,3.078593904E0
1.057839975E1,7.946119027E-1,2.676305103E0,1.432153267E0,3.137687056E0
1.058843775E1,6.653783503E-1,2.701517127E0,1.435159321E0,3.130591863E0
1.059847575E1,5.648978231E-1,2.710031843E0,1.386160823E0,3.095936686E0
1.060851275E1,5.681143764E-1,2.816195644E0,1.493538507E0,3.237957554E0
1.061855075E1,8.628636736E-1,3.035970261E0,1.757409900E0,3.612497571E0
1.062858775E1,1.373188629E0,3.064612847E0,2.182215380E0,4.004942306E0
1.063862575E1,1.803147698E0,2.892219973E0,2.537279949E0,4.249007829E0
1.064866275E1,2.101473372E0,2.813670232E0,2.763995796E0,4.469071857E0
1.065870075E1,2.604077664E0,2.822688392E0,2.995486479E0,4.870495815E0
1.066873875E1,3.293279909E0,2.820228469E0,3.204642552E0,5.391578161E0
1.067877575E1,3.840334589E0,2.869119962E0,3.370225174E0,5.859900753E0
1.068881375E1,4.011540771E0,2.715958580E0,3.613321119E0,6.043589982E0
1.069885075E1,4.007047478E0,2.413262259E0,3.744511296E0,5.991796814E0
1.070888875E1,4.069705364E0,1.974135194E0,3.685213805E0,5.834424761E0
1.071892575E1,4.083399835E0,1.521665953E0,3.452872936E0,5.559851886E0
1.072896375E1,3.960288756E0,1.275114012E0,3.067865945E0,5.169294365E0
1.073900175E1,3.730713328E0,1.032346973E0,2.799653871E0,4.777240209E0
1.074903875E1,3.462846825E0,6.505483496E-1,2.783560579E0,4.490292951E0
1.075907675E1,3.481525170E0,3.331837034E-1,2.752121270E0,4.450415753E0
1.076911375E1,3.881613885E0,1.899912393E-1,2.720343700E0,4.743763576E0
1.077915175E1,4.273048135E0,1.276143122E-1,2.837604640E0,5.131006321E0
1.078918875E1,4.657604306E0,-3.569081962E-2,3.042619715E0,5.563459934E0
1.079922675E1,4.855700371E0,-4.890500075E-1,3.134896379E0,5.800394065E0
1.080926475E1,4.921462251E0,-1.057962456E0,3.120609292E0,5.922691753E0
1.081930175E1,4.990213813E0,-1.497504673E0,2.815187584E0,5.921995886E0
1.082933975E1,4.913704165E0,-1.843137683E0,2.386782851E0,5.765273412E0
1.083937675E1,4.888402094E0,-2.174049743E0,2.021639729E0,5.719265207E0
1.084941475E1,4.827099300E0,-2.561815451E0,1.746234117E0,5.736995699E0
1.085945175E1,4.533923123E0,-3.092690007E0,1.431415933E0,5.671872878E0
1.086948975E1,4.088666130E0,-3.602467225E0,1.072082897E0,5.553766520E0
1.087952775E1,3.685220236E0,-4.009715270E0,7.205178863E-1,5.493433422E0
1.088956500E1,3.309155392E0,-4.302307017E0,3.672472429E-1,5.440149412E0
1.089960300E1,3.121129110E0,-4.556571436E0,5.552282095E-2,5.523302722E0
1.090964000E1,3.018667765E0,-4.692284727E0,2.679077268E-2,5.579481049E0
1.091967800E1,2.936862587E0,-4.769676719E0,5.549826264E-2,5.601612082E0
1.092971500E1,2.591119064E0,-4.889846941E0,6.422640145E-2,5.534313520E0
1.093975300E1,2.095309383E0,-5.002960743E0,1.002861804E-1,5.424941928E0
1.094979100E1,1.545929851E0,-5.080946227E0,1.048829690E-2,5.310934350E0
1.095982800E1,1.023363019E0,-5.274589053E0,-1.668888903E-1,5.375538433E0
1.096986600E1,7.146092749E-1,-5.546610880E0,-3.394583505E-1,5.602748490E0
1.097990300E1,6.294995427E-1,-5.749395828E0,-5.354266137E-1,5.808485492E0
1.098994100E1,4.421483213E-1,-5.795994628E0,-7.359434259E-1,5.859237288E0
1.099997800E1,3.723828524E-2,-5.659545173E0,-8.523404396E-1,5.723488663E0
1.101001600E1,-3.758254007E-1,-5.481760581E0,-7.787665330E-1,5.549542424E0
1.102005400E1,-6.373084992E-1,-5.438617485E0,-6.736122532E-1,5.517107552E0
1.103009100E1,-8.598739922E-1,-5.382137475E0,-6.612746282E-1,5.490361665E0
1.104012900E1,-1.005565556E0,-5.340804092E0,-7.129464729E-1,5.481208180E0
1.105016600E1,-1.046810061E0,-5.370039001E0,-7.347922553E-1,5.520240016E0
1.106020400E1,-1.261967132E0,-5.493539797E0,-7.214027162E-1,5.682601730E0
1.107024100E1,-1.622753494E0,-5.340443904E0,-8.693454583E-1,5.648843379E0
1.108027900E1,-2.065466656E0,-5.083849370E0,-9.562460464E-1,5.570106231E0
1.109031700E1,-2.437876698E0,-4.944669265E0,-1.011652508E0,5.605036818E0
1.110035400E1,-2.593941223E0,-4.926334151E0,-1.073851680E0,5.670137270E0
1.111039200E1,-2.732896502E0,-5.003132651E0,-1.219170776E0,5.829788761E0
1.112042900E1,-3.166995839E0,-4.947699877E0,-1.435976762E0,6.047447890E0
1.113046700E1,-3.726139344E0,-4.781757651E0,-1.570749235E0,6.262313774E0
1.114050400E1,-4.105404954E0,-4.564462838E0,-1.583574518E0,6.340061442E0
1.115054200E1,-4.135077235E0,-4.459189568E0,-1.562439318E0,6.278889389E0
1.116057900E1,-4.003540902E0,-4.234455927E0,-1.580312356E0,6.037908901E0
1.117061700E1,-4.102972512E0,-3.862768893E0,-1.568479931E0,5.849401358E0
1.118065500E1,-4.591755887E0,-3.435128099E0,-1.287704237E0,5.877287587E0
1.119069200E1,-4.908095516E0,-2.974665129E0,-8.261171392E-1,5.798319045E0
1.120073000E1,-4.583530608E0,-2.530173243E0,-3.669016725E-1,5.248347008E0
1.121076700E1,-3.662046259E0,-2.334277486E0,-1.480982780E-1,4.345269529E0
1.122080500E1,-2.744381896E0,-2.102098001E0,-1.971154869E-1,3.462557221E0
1.123084300E1,-2.402416990E0,-1.669879421E0,-3.777880186E-1,2.950055671E0
1.124088000E1,-2.538130134E0,-1.191225763E0,-4.802788916E-1,2.844607391E0
1.125091800E1,-2.898989879E0,-8.445560414E-1,-1.680264661E-1,3.024177594E0
1.126095500E1,-3.201914241E0,-5.625506777E-1,5.649047667E-1,3.299672024E0
1.127099300E1,-3.261769849E0,-2.770363998E-1,1.215315999E0,3.491831137E0
1.128103000E1,-3.128905907E0,1.108573616E-2,1.440800714E0,3.444717951E0
1.129106800E1,-3.196630697E0,3.482584101E-1,1.310778519E0,3.472444681E0
1.130110500E1,-3.639858415E0,7.728165525E-1,1.059949340E0,3.869018907E0
1.131114300E1,-4.017968030E0,1.193486881E0,8.634823090E-1,4.279495265E0
1.132118100E1,-4.322533706E0,1.461846013E0,1.064671551E0,4.685596751E0
1.133121800E1,-4.319725288E0,1.421771536E0,1.432077253E0,4.767840824E0
1.134125600E1,-4.189682627E0,1.364410350E0,1.508043110E0,4.657171904E0
1.135129300E1,-4.086788004E0,1.671735327E0,1.354209883E0,4.618486722E0
1.136133100E1,-3.869957168E0,1.980056670E0,1.248603905E0,4.522853591E0
1.137136800E1,-3.649380605E0,2.180247792E0,1.174568800E0,4.410336847E0
1.138140600E1,-3.772144360E0,2.511260424E0,1.081705075E0,4.658925612E0
1.139144400E1,-4.037353596E0,2.755920791E0,1.149868699E0,5.021705038E0
1.140148100E1,-4.121790606E0,2.758536835E0,1.310596671E0,5.129946092E0
1.141151900E1,-4.072356491E0,2.854053442E0,1.406101583E0,5.167865140E0
1.142155600E1,-3.761270877E0,2.894279362E0,1.496615312E0,4.976330880E0
1.143159400E1,-3.176465112E0,3.140347738E0,1.662347038E0,4.766037369E0
1.144163100E1,-2.233389773E0,3.428313754E0,1.790192315E0,4.466111686E0
1.145166900E1,-1.837371159E0,3.526129485E0,1.917383873E0,4.414281690E0
1.146170700E1,-2.284209825E0,3.427419714E0,1.976734282E0,4.568621109E0
1.147174400E1,-3.102964150E0,3.269910343E0,1.801766294E0,4.854591841E0
1.148178200E1,-2.934751742E0,3.461331811E0,1.485757032E0,4.775045513E0
1.149181900E1,-1.545664388E0,3.629724605E0,1.441411749E0,4.200196059E0
1.150185700E1,-5.118787068E-1,3.769437391E0,1.776986963E0,4.198614143E0
1.151189400E1,-4.720384106E-2,3.911490233E0,2.102161735E0,4.440840912E0
1.152193200E1,4.803246461E-2,3.916908848E0,2.312826975E0,4.549027441E0
1.153197000E1,8.381501243E-2,3.886018007E0,2.321115403E0,4.527221844E0
1.154200700E1,5.715887189E-2,3.662245064E0,2.004041948E0,4.175103613E0
1.155204500E1,-5.241350555E-1,3.302680478E0,1.747164409E0,3.772929812E0
1.156208200E1,-1.014188153E0,3.211929352E0,1.370101445E0,3.636240606E0
1.157212000E1,-7.430331749E-1,3.101840900E0,1.233567206E0,3.419825042E0
1.158215700E1,-3.780467579E-1,2.781092470E0,1.322759464E0,3.102754788E0
1.159219500E1,-3.250686452E-1,2.525515936E0,1.314608445E0,2.865675441E0
1.160223200E1,-2.220035756E-1,2.489792957E0,1.134047595E0,2.744889525E0
1.161227000E1,5.663233012E-2,2.517921572E0,9.512384909E-1,2.692209303E0
1.162230800E1,4.733362001E-1,2.383937303E0,8.164163160E-1,2.563930542E0
1.163234500E1,8.971115465E-1,2.277386416E0,7.462929976E-1,2.558955110E0
1.164238300E1,1.085587188E0,2.342194031E0,8.821799505E-1,2.728115446E0
1.165242000E1,1.172338379E0,2.448660718E0,1.208541123E0,2.971681045E0
1.166245800E1,1.291482561E0,2.473483318E0,1.612993029E0,3.223009997E0
1.167249500E1,1.405677660E0,2.451106609E0,1.895967861E0,3.402726469E0
1.168253300E1,1.513792823E0,2.451723490E0,2.007018181E0,3.511500927E0
1.169257100E1,1.672482163E0,2.415365503E0,1.973434698E0,3.539156906E0
1.170260800E1,1.798020421E0,2.411331509E0,2.002294216E0,3.613388881E0
1.171264600E1,2.135330066E0,2.479128220E0,2.051838259E0,3.862091592E0
1.172268300E1,2.626317256E0,2.519233688E0,2.145695425E0,4.224699937E0
1.173272100E1,2.703819176E0,2.526042185E0,2.394243021E0,4.407258434E0
1.174275800E1,2.659537919E0,2.414782535E0,2.549853802E0,4.405232235E0
1.175279600E1,2.624642614E0,2.162055935E0,2.525662116E0,4.235823868E0
1.176283400E1,2.517434207E0,1.929888729E0,2.418446985E0,3.988838341E0
1.177287100E1,2.466462859E0,1.848549281E0,2.322913422E0,3.859598456E0
1.178290900E1,2.546089364E0,1.790682312E0,2.243175234E0,3.836788934E0
1.179294600E1,2.650217165E0,1.689588046E0,2.263686682E0,3.873323661E0
1.180298400E1,2.629681744E0,1.512608616E0,2.244903671E0,3.773963883E0
1.181302100E1,2.531701121E0,1.358430988E0,2.035709591E0,3.521215536E0
1.182305900E1,2.570255029E0,1.074472654E0,1.987499006E0,3.422112608E0
1.183309700E1,2.773411860E0,6.604184496E-1,2.093787353E0,3.537218024E0
1.184313400E1,3.021258082E0,3.271891379E-1,2.076373175E0,3.680540543E0
1.185317200E1,3.303472191E0,4.819450557E-2,2.066788712E0,3.897033077E0
1.186320900E1,3.547025680E0,-1.791586876E-1,2.208885408E0,4.182423192E0
1.187324700E1,3.657930696E0,-3.354787356E-1,2.253394706E0,4.309384023E0
1.188328400E1,3.623802837E0,-5.830948699E-1,2.373405883E0,4.370926918E0
1.189332325E1,3.567863695E0,-8.640179139E-1,2.391858819E0,4.381457167E0
1.190336025E1,3.397573479E0,-1.155789882E0,2.280951756E0,4.252304870E0
1.191339825E1,3.183959196E0,-1.596327880E0,2.291979897E0,4.235449293E0
1.192343625E1,3.142013902E0,-1.959527096E0,2.145102518E0,4.279423163E0
1.193347325E1,3.086812971E0,-2.303366765E0,1.874520274E0,4.283426085E0
1.194351125E1,2.898590806E0,-2.526600595E0,1.567268388E0,4.152333010E0
1.195354825E1,2.789795758E0,-2.584975103E0,1.294094074E0,4.017429044E0
1.196358625E1,3.022785082E0,-2.712235073E0,1.103255865E0,4.208399013E0
1.197362325E1,3.344285756E0,-2.925035132E0,9.489621699E-1,4.543193474E0
1.198366125E1,3.390084658E0,-3.212347428E0,8.176202577E-1,4.741345049E0
1.199369925E1,3.276423849E0,-3.508100181E0,6.614042902E-1,4.845531524E0
1.200373625E1,3.144901550E0,-3.750947326E0,4.570303622E-1,4.916186363E0
1.201377425E1,2.933861796E0,-3.898277864E0,1.788907389E-1,4.882224620E0
1.202381125E1,2.754083011E0,-3.771012046E0,-5.538248777E-2,4.669964915E0
1.203384925E1,2.662347799E0,-3.543625524E0,3.393256187E-2,4.432440533E0
1.204388625E1,2.612522797E0,-3.510051981E0,2.883440378E-1,4.385074978E0
1.205392425E1,2.578434699E0,-3.607834969E0,5.152902648E-1,4.464339001E0
1.206396225E1,2.414088471E0,-3.763974922E0,5.567271432E-1,4.506137534E0
1.207399925E1,1.845133630E0,-3.834813355E0,3.274317974E-1,4.268199054E0
1.208403725E1,1.222068656E0,-3.978347881E0,-2.204064086E-2,4.161873311E0
1.209407425E1,1.083162493E0,-4.119431255E0,-2.648244900E-1,4.267679330E0
1.210411225E1,1.420978946E0,-3.983640781E0,-2.904371949E-1,4.239449115E0
1.211414925E1,1.736765721E0,-3.561610975E0,-9.083591044E-2,3.963543751E0
1.212418725E1,1.679879914E0,-3.246855356E0,2.697151011E-1,3.665625794E0
1.213422525E1,1.166427137E0,-3.124286022E0,5.723709302E-1,3.383684957E0
1.214426225E1,4.020864156E-1,-3.172616183E0,6.697149378E-1,3.267366681E0
1.215430025E1,-1.485546532E-1,-3.359106694E0,4.556320006E-1,3.393120509E0
1.216433725E1,-5.998681927E-1,-3.548540109E0,1.423984122E-1,3.601701828E0
1.217437525E1,-1.017101820E0,-3.667678882E0,-1.495766003E-1,3.809033690E0
1.218441225E1,-1.375019246E0,-3.752150683E0,-4.437434417E-1,4.020723929E0
1.219445025E1,-1.744260974E0,-3.776215484E0,-5.580285873E-1,4.196861402E0
1.220448725E1,-2.119214847E0,-3.713703486E0,-5.595124644E-1,4.312275426E0
1.221452525E1,-2.358766209E0,-3.601251588E0,-5.557698078E-1,4.340699381E0
1.222456325E1,-2.279590816E0,-3.450983993E0,-5.147591914E-1,4.167829392E0
1.223460025E1,-2.046164705E0,-3.324564852E0,-4.627166332E-1,3.931110293E0
1.224463825E1,-1.819321682E0,-3.319118755E0,-3.059293927E-1,3.797377185E0
1.225467525E1,-1.711488208E0,-3.187751700E0,-2.621100663E-1,3.627623805E0
1.226471325E1,-1.823983082E0,-3.009146159E0,-3.412801968E-1,3.535300138E0
1.227475025E1,-2.166308176E0,-2.961761493E0,-4.646579088E-1,3.698760499E0
1.228478825E1,-2.393931949E0,-3.005174730E0,-5.701292539E-1,3.884202969E0
1.229482625E1,-2.441600936E0,-3.128757972E0,-5.813541538E-1,4.011049019E0
1.230486325E1,-2.506216031E0,-3.301494078E0,-5.000000882E-1,4.175042758E0
1.231490125E1,-2.696850172E0,-3.293353584E0,-5.616695023E-1,4.293559282E0
1.232493825E1,-2.992067319E0,-3.097919172E0,-6.924252310E-1,4.362226810E0
1.233497625E1,-3.244622889E0,-2.962753181E0,-9.109605306E-1,4.487241156E0
1.234501325E1,-3.407584789E0,-2.829427893E0,-1.180636602E0,4.583797452E0
1.235505125E1,-3.605879075E0,-2.753929814E0,-1.302312628E0,4.720435521E0
1.236508825E1,-3.805879870E0,-2.701359252E0,-1.312253771E0,4.848099974E0
1.237512625E1,-3.749190238E0,-2.550685861E0,-1.166861292E0,4.682306170E0
1.238516425E1,-3.421731543E0,-2.476338513E0,-8.084740430E-1,4.300480143E0
1.239520125E1,-3.170781034E0,-2.415469583E0,-4.422939169E-1,4.010482462E0
1.240523925E1,-3.105611184E0,-2.126361022E0,-2.811233112E-1,3.774289647E0
1.241527625E1,-3.183371259E0,-1.814868734E0,-3.266392073E-1,3.678898513E0
1.242531425E1,-3.251269712E0,-1.474798765E0,-4.861787322E-1,3.603075894E0
1.243535125E1,-3.292726471E0,-1.153585482E0,-5.645717677E-1,3.534338461E0
1.244538925E1,-3.114939247E0,-9.401223493E-1,-3.347373086E-1,3.270890645E0
1.245542725E1,-2.689423623E0,-7.711565280E-1,1.341146618E-2,2.797831604E0
1.246546425E1,-2.467026238E0,-5.608175629E-1,3.911506605E-1,2.560026101E0
1.247550225E1,-2.900385025E0,-2.285261446E-1,7.086895537E-1,2.994444585E0
1.248553925E1,-3.731425227E0,2.000005031E-1,6.929298458E-1,3.800484995E0
1.249557725E1,-4.375714132E0,5.636628181E-1,5.189865822E-1,4.442289614E0
1.250561425E1,-4.454926947E0,7.502281737E-1,5.054748362E-1,4.545846591E0
1.251565225E1,-4.095585725E0,8.791195178E-1,6.244615817E-1,4.235165383E0
1.252569025E1,-3.700661271E0,1.078935249E0,8.643488663E-1,3.950454920E0
1.253572725E1,-3.606428713E0,1.421587933E0,1.169378226E0,4.049035163E0
1.254576525E1,-3.926943254E0,1.865654726E0,1.441042789E0,4.580191612E0
1.255580225E1,-4.360128087E0,2.287526073E0,1.551009035E0,5.162278711E0
1.256584025E1,-4.610147719E0,2.615549024E0,1.598626128E0,5.536259042E0
1.257587725E1,-4.502696360E0,2.825964003E0,1.585423408E0,5.547424126E0
1.258591525E1,-4.019587709E0,2.871720804E0,1.649895392E0,5.208264637E0
1.259595225E1,-3.296149723E0,3.063990119E0,1.651648972E0,4.793806710E0
1.260599025E1,-2.622595503E0,3.474182237E0,1.878014570E0,4.740768726E0
1.261602825E1,-1.788971855E0,3.820574216E0,2.193043254E0,4.754644713E0
1.262606525E1,-1.281163687E0,3.849614412E0,2.500536046E0,4.765877887E0
1.263610325E1,-1.440460991E0,3.740051039E0,2.568076065E0,4.760034067E0
1.264614025E1,-2.132523403E0,3.580137293E0,2.202561936E0,4.713418948E0
1.265617825E1,-2.521838330E0,3.487682288E0,1.663962623E0,4.614365386E0
1.266621525E1,-1.645881717E0,3.427365920E0,1.279352074E0,4.011546523E0
1.267625325E1,-4.545031956E-1,3.193722292E0,1.229020411E0,3.452090150E0
1.268629125E1,-1.856271699E-1,2.931282881E0,1.457817281E0,3.279040714E0
1.269632825E1,-7.654828285E-1,2.920340402E0,1.650426319E0,3.440677122E0
1.270636625E1,-1.290648894E0,2.961679047E0,1.737479081E0,3.668262655E0
1.271640325E1,-1.171513191E0,2.894236677E0,1.658093773E0,3.535296884E0
1.272644125E1,-6.187023667E-1,2.767552657E0,1.545724322E0,3.229768414E0
1.273647825E1,-2.593992971E-1,2.637424627E0,1.417044647E0,3.005214167E0
1.274651625E1,-2.138418858E-1,2.521556786E0,1.309652345E0,2.849415070E0
1.275655325E1,-2.995041798E-1,2.342432597E0,1.276602713E0,2.684475314E0
1.276659125E1,-7.657645181E-2,2.231880460E0,1.270709889E0,2.569408096E0
1.277662925E1,7.416909465E-1,2.342107492E0,1.355577546E0,2.805915795E0
1.278666625E1,1.596088729E0,2.446704825E0,1.588281527E0,3.325131868E0
1.279670425E1,1.992677300E0,2.478410767E0,1.877968962E0,3.693243855E0
1.280674125E1,2.013500697E0,2.538773328E0,2.004365299E0,3.810122743E0
1.281677925E1,1.995093516E0,2.591455572E0,1.968666878E0,3.817288225E0
1.282681625E1,2.193668029E0,2.610026913E0,1.861688560E0,3.884624075E0
1.283685425E1,2.572803538E0,2.602393958E0,1.787701986E0,4.072793973E0
1.284689225E1,2.840794880E0,2.568106470E0,1.804957119E0,4.233574919E0
1.285692925E1,2.796220386E0,2.552738233E0,1.798583654E0,4.191685114E0
1.286696725E1,2.769483408E0,2.479387252E0,1.772296911E0,4.118062145E0
1.287700425E1,3.084015663E0,2.364629797E0,1.790212196E0,4.278724856E0
1.288704125E1,3.394363650E0,2.329086912E0,1.839570297E0,4.508921081E0
1.289707825E1,3.334579378E0,2.319046658E0,2.032920177E0,4.542043756E0
1.290711625E1,2.953604043E0,2.206870750E0,2.247079128E0,4.317802676E0
1.291715325E1,2.654956918E0,1.994261311E0,2.285994102E0,4.031332714E0
1.292719125E1,2.429289331E0,1.787383897E0,2.147639040E0,3.702504733E0
1.293722925E1,2.271046865E0,1.470984042E0,2.056475101E0,3.398608208E0
1.294726625E1,2.316528555E0,1.167693059E0,2.028711351E0,3.293247845E0
1.295730425E1,2.613661835E0,1.119524866E0,2.054339697E0,3.507830627E0
1.296734125E1,2.902857520E0,1.062179468E0,2.208552701E0,3.799014614E0
1.297737925E1,2.799895653E0,9.132467920E-1,2.320455253E0,3.749393011E0
1.298741625E1,2.427058326E0,7.225164646E-1,2.230989345E0,3.374900831E0
1.299745425E1,2.117241266E0,4.419916159E-1,2.029879040E0,2.966222528E0
1.300749225E1,2.031993686E0,-7.052209854E-2,1.860003392E0,2.755645900E0
1.301752925E1,2.104128592E0,-5.086112827E-1,1.554335224E0,2.664957891E0
1.302756725E1,2.231873005E0,-6.272629827E-1,1.225758834E0,2.622441740E0
1.303760425E1,2.253457271E0,-7.521940076E-1,1.240243849E0,2.679938488E0
1.304764225E1,2.297447921E0,-8.940269941E-1,1.419187651E0,2.844581657E0
1.305767925E1,2.350090988E0,-9.793676913E-1,1.482042881E0,2.945936155E0
1.306771725E1,2.215133450E0,-1.164905106E0,1.420091046E0,2.877582091E0
1.307775525E1,2.111514357E0,-1.409511094E0,1.270116689E0,2.838734015E0
1.308779225E1,2.315883607E0,-1.668283131E0,1.115101155E0,3.064300258E0
1.309783025E1,2.564507217E0,-1.924653717E0,9.743882024E-1,3.351182114E0
1.310786725E1,2.742739705E0,-2.014157047E0,8.600798142E-1,3.509869939E0
1.311790525E1,2.946153228E0,-2.068502823E0,7.198021871E-1,3.671054067E0
1.312794225E1,3.133753833E0,-2.243221720E0,6.258739766E-1,3.904378953E0
1.313798025E1,3.117213814E0,-2.451996555E0,5.956500113E-1,4.010499720E0
1.314801725E1,3.006922463E0,-2.574513264E0,5.503063157E-1,3.996565812E0
1.315805525E1,2.899626933E0,-2.693947906E0,4.934792733E-1,3.988572861E0
1.316809325E1,2.746619625E0,-2.841030523E0,3.474889165E-1,3.966878161E0
1.317813025E1,2.450452890E0,-3.011165203E0,2.077454326E-1,3.887800588E0
1.318816825E1,2.244366605E0,-3.048952834E0,-2.537691593E-4,3.785933822E0
1.319820525E1,2.258980843E0,-2.953078963E0,-1.580332822E-1,3.721376671E0
1.320824325E1,2.667094569E0,-2.915373777E0,-2.254744828E-2,3.951367622E0
1.321828025E1,3.150269879E0,-2.899978643E0,1.529368490E-1,4.284561368E0
1.322831825E1,3.314258550E0,-2.823231014E0,3.504025841E-1,4.367805520E0
1.323835525E1,3.065041448E0,-2.745306925E0,4.160637461E-1,4.135734304E0
1.324839325E1,2.471313124E0,-2.645465718E0,3.848643190E-1,3.640604066E0
1.325843125E1,1.895642172E0,-2.649370489E0,3.318411827E-1,3.274559787E0
1.326846825E1,1.718934637E0,-2.663468710E0,2.974636477E-1,3.183910564E0
1.327850625E1,1.777110047E0,-2.668939950E0,3.378354558E-1,3.224204300E0
1.328854325E1,1.691775197E0,-2.728538280E0,4.546541999E-1,3.242488998E0
1.329858125E1,1.377211367E0,-2.812108440E0,5.652567691E-1,3.181851701E0
1.330861825E1,8.638157465E-1,-2.813979549E0,6.094497326E-1,3.006008570E0
1.331865625E1,2.930617176E-1,-2.812547566E0,6.221987092E-1,2.895417106E0
1.332869425E1,-2.530579917E-1,-2.815855336E0,6.517967302E-1,2.901364954E0
1.333873125E1,-6.474284215E-1,-2.841822821E0,5.877477917E-1,2.973309263E0
1.334876925E1,-8.280677703E-1,-2.910159815E0,4.115697223E-1,3.053541553E0
1.335880625E1,-8.766733351E-1,-3.030237651E0,2.230155824E-1,3.162377635E0
1.336884425E1,-8.558581245E-1,-3.094471069E0,-3.806537390E-4,3.210645491E0
1.337888125E1,-7.864583990E-1,-3.065974079E0,-1.923267634E-1,3.171072918E0
1.338891925E1,-8.739536490E-1,-2.947604799E0,-2.795659053E-1,3.087122629E0
1.339895625E1,-1.071288114E0,-2.813126441E0,-2.658309419E-1,3.021920695E0
1.340899425E1,-1.186899262E0,-2.679827465E0,-2.238806780E-1,2.939443427E0
1.341903225E1,-1.243330594E0,-2.663005026E0,-2.253395583E-1,2.947582849E0
1.342906925E1,-1.301812983E0,-2.768189419E0,-2.007454383E-1,3.065597565E0
1.343910725E1,-1.241414023E0,-2.894275854E0,-2.046326673E-1,3.155917620E0
1.344914425E1,-1.226489297E0,-2.999857273E0,-3.368493229E-1,3.258356506E0
1.345918225E1,-1.568482416E0,-2.973999715E0,-4.693448907E-1,3.394863182E0
1.346921925E1,-2.203022551E0,-2.859197822E0,-5.633472146E-1,3.653174049E0
1.347925725E1,-2.644124367E0,-2.706661507E0,-5.917950882E-1,3.829834410E0
1.348929525E1,-2.521203030E0,-2.594684404E0,-6.162617388E-1,3.669963270E0
1.349933225E1,-2.096586708E0,-2.596015815E0,-6.288352990E-1,3.395645413E0
1.350937025E1,-1.787399685E0,-2.685899799E0,-5.367476459E-1,3.270619727E0
1.351940725E1,-1.943535692E0,-2.726009944E0,-4.970536762E-1,3.384600945E0
1.352944525E1,-2.331893868E0,-2.745213954E0,-7.048467636E-1,3.670250350E0
1.353948225E1,-2.673743145E0,-2.676779312E0,-1.102498943E0,3.940755487E0
1.354952025E1,-2.883891783E0,-2.625177049E0,-1.428933790E0,4.153340599E0
1.355955725E1,-2.887648619E0,-2.514304485E0,-1.578164382E0,4.141357797E0
1.356959525E1,-2.651136348E0,-2.273897383E0,-1.322396352E0,3.734684103E0
1.357963325E1,-2.334521461E0,-2.021276616E0,-8.888910922E-1,3.213359143E0
1.358967025E1,-2.117950972E0,-1.791021450E0,-5.506667966E-1,2.827845129E0
1.359970825E1,-2.057412117E0,-1.612581385E0,-3.886468828E-1,2.642803387E0
1.360974525E1,-2.289375840E0,-1.450039900E0,-4.182332093E-1,2.742038742E0
1.361978325E1,-2.620886070E0,-1.217559868E0,-4.165094501E-1,2.919756145E0
1.362982025E1,-2.869680710E0,-9.117797256E-1,-3.985646376E-1,3.037311874E0
1.363985825E1,-2.923880306E0,-6.653926760E-1,-1.470487028E-1,3.002240294E0
1.364989525E1,-2.681372885E0,-5.880439532E-1,1.708287442E-1,2.750407006E0
1.365993325E1,-2.513558088E0,-4.476020193E-1,3.830209842E-1,2.581671339E0
1.366997125E1,-2.418318931E0,-1.205999923E-1,4.467959806E-1,2.462201751E0
1.368000825E1,-2.479680782E0,1.647897398E-1,4.571964231E-1,2.526855953E0
1.369004625E1,-2.921848107E0,3.894023430E-1,5.281558934E-1,2.994625050E0
1.370008325E1,-3.389721253E0,6.801878858E-1,5.767126340E-1,3.505062510E0
1.371012125E1,-3.526086508E0,8.960109544E-1,8.221916109E-1,3.729895540E0
1.372015825E1,-2.936819902E0,1.034211650E0,1.050178935E0,3.285936803E0
1.373019625E1,-2.062430343E0,1.102900647E0,1.117771870E0,2.592184930E0
1.374023425E1,-1.621350455E0,1.316375474E0,1.041911264E0,2.333923899E0
1.375027125E1,-1.983930158E0,1.570926991E0,8.843659320E-1,2.680651708E0
1.376030925E1,-2.948712554E0,1.516307564E0,8.399113056E-1,3.420459817E0
1.377034625E1,-4.031707233E0,1.392943009E0,8.858961484E-1,4.356577260E0
1.378038425E1,-4.288119918E0,1.369300961E0,6.919589156E-1,4.554312758E0
1.379042125E1,-3.919664640E0,1.232449803E0,5.975094259E-1,4.152074292E0
1.380045925E1,-3.387149648E0,1.362241618E0,5.179048473E-1,3.687371746E0
1.381049725E1,-2.820082288E0,1.785354329E0,5.696076822E-1,3.385972106E0
1.382053425E1,-2.375814790E0,2.059845436E0,6.976444557E-1,3.220895360E0
1.383057225E1,-2.345322584E0,1.937608808E0,8.902754205E-1,3.169772269E0
1.384060925E1,-2.774471667E0,1.887917415E0,9.329226726E-1,3.483140811E0
1.385064725E1,-3.192662192E0,2.082150224E0,6.357449538E-1,3.864273939E0
1.386068425E1,-3.088533221E0,2.138708003E0,3.796585429E-1,3.775877380E0
1.387072225E1,-2.827249805E0,2.134034908E0,4.033573079E-1,3.565128829E0
1.388075925E1,-2.562006070E0,2.162396243E0,5.482992589E-1,3.397125946E0
1.389079679E1,-2.267007608E0,2.198311011E0,6.608195686E-1,3.226232679E0
1.390083379E1,-2.016034003E0,2.286205772E0,7.233344901E-1,3.132785137E0
1.391087179E1,-1.678020499E0,2.457341495E0,5.802355814E-1,3.031658514E0
1.392090979E1,-1.449635857E0,2.655878440E0,5.155782402E-1,3.069357478E0
1.393094679E1,-1.533891019E0,2.796443165E0,5.580921757E-1,3.237959683E0
1.394098479E1,-1.713268831E0,2.954089946E0,6.271969092E-1,3.472076246E0
1.395102179E1,-1.488511948E0,3.123037641E0,8.426211977E-1,3.560764301E0
1.396105979E1,-8.462667905E-1,3.171439138E0,1.099380623E0,3.461622660E0
1.397109679E1,-2.975427313E-1,3.136818944E0,1.224206398E0,3.380361825E0
1.398113479E1,-6.811713874E-3,3.301673588E0,1.274169102E0,3.539011413E0
1.399117279E1,3.247812545E-1,3.675626417E0,1.440814163E0,3.961269730E0
1.400120979E1,8.602602008E-1,4.084347376E0,1.771388254E0,4.534286873E0
1.401124779E1,1.383854827E0,4.269712883E0,2.248634487E0,5.020145351E0
1.402128479E1,1.766674375E0,4.320576058E0,2.753039868E0,5.419201448E0
1.403132279E1,1.979914436E0,4.395346159E0,2.950398599E0,5.651900647E0
1.404135979E1,2.048115336E0,4.463053408E0,2.983215512E0,5.745711178E0
1.405139779E1,2.083378432E0,4.421555133E0,3.008812868E0,5.739648976E0
1.406143479E1,2.225319007E0,4.349496387E0,3.122568694E0,5.798327237E0
1.407147279E1,2.537978107E0,4.210546077E0,3.318660918E0,5.931571582E0
1.408151079E1,2.893101440E0,4.008286795E0,3.443967919E0,6.024725222E0
1.409154779E1,3.157739112E0,3.889520490E0,3.512609553E0,6.118669121E0
1.410158579E1,3.412965982E0,3.659107448E0,3.579521581E0,6.152266157E0
1.411162279E1,3.572717176E0,3.285842251E0,3.542495842E0,6.009188307E0
1.412166079E1,3.610298693E0,2.958028046E0,3.404027636E0,5.776814928E0
1.413169779E1,3.515447499E0,2.625334339E0,3.229954856E0,5.448243743E0
1.414173579E1,3.354274262E0,2.091781758E0,3.108089819E0,5.028611048E0
1.415177279E1,3.222400838E0,1.522888606E0,2.984379985E0,4.648610627E0
1.416181079E1,3.138306183E0,1.104674107E0,2.776370843E0,4.333301933E0
1.417184879E1,2.947709757E0,7.032422876E-1,2.579429018E0,3.979572413E0
1.418188579E1,2.635987381E0,2.595374376E-1,2.474769998E0,3.624951820E0
1.419192379E1,2.358753638E0,-1.549202245E-1,2.282764685E0,3.286142664E0
1.420196079E1,2.412621112E0,-5.524098516E-1,2.052618862E0,3.215453540E0
1.421199879E1,2.649387153E0,-9.880414510E-1,1.863759351E0,3.386602592E0
1.422203579E1,2.830704925E0,-1.318644778E0,1.698831617E0,3.554960378E0
1.423207379E1,2.941589184E0,-1.346372275E0,1.539642633E0,3.582759365E0
1.424211179E1,3.089005092E0,-1.336664143E0,1.448431039E0,3.664229245E0
1.425214879E1,3.273151747E0,-1.438490480E0,1.410852738E0,3.843602823E0
1.426218679E1,3.404760000E0,-1.574218388E0,1.433376797E0,4.015609945E0
1.427222379E1,3.590678945E0,-1.831471903E0,1.461969682E0,4.287728999E0
1.428226179E1,3.765090279E0,-2.172430649E0,1.486710128E0,4.594090415E0
1.429229879E1,3.825807474E0,-2.410444486E0,1.432790614E0,4.743409574E0
1.430233679E1,3.762391789E0,-2.442053365E0,1.256753170E0,4.658180453E0
1.431237379E1,3.510484383E0,-2.444007504E0,1.119846755E0,4.421620748E0
1.432241179E1,3.054925180E0,-2.530213589E0,1.092859516E0,4.114473306E0
1.433244979E1,2.738067780E0,-2.775021306E0,1.062762143E0,4.040695706E0
1.434248679E1,2.595648025E0,-3.088249632E0,1.048617436E0,4.168245792E0
1.435252479E1,2.595184341E0,-3.316774022E0,9.033997884E-1,4.307215209E0
1.436256179E1,2.578824124E0,-3.498917128E0,6.083969414E-1,4.388952241E0
1.437259979E1,2.411665677E0,-3.606787732E0,3.427532566E-1,4.352301561E0
1.438263679E1,2.185694181E0,-3.634138668E0,1.591881073E-1,4.243767638E0
1.439267479E1,1.988483385E0,-3.600461045E0,5.006561458E-2,4.113379690E0
1.440271179E1,1.788105736E0,-3.614673872E0,1.165022635E-1,4.034446939E0
1.441274979E1,1.775893826E0,-3.634466112E0,2.598050939E-1,4.053472769E0
1.442278779E1,1.990155104E0,-3.697388585E0,2.856661592E-1,4.208682078E0
1.443282479E1,2.260313716E0,-3.822127821E0,1.872506493E-1,4.444405695E0
1.444286279E1,2.256011627E0,-3.936634430E0,2.972826764E-2,4.537351966E0
1.445289979E1,1.909865816E0,-3.980510767E0,-2.441968288E-1,4.421728790E0
1.446293779E1,1.316683330E0,-4.024698175E0,-5.442383677E-1,4.269431554E0
1.447297479E1,7.368754721E-1,-4.001915669E0,-6.271875536E-1,4.117241638E0
1.448301279E1,4.189746362E-1,-3.975166996E0,-5.130295850E-1,4.029974162E0
1.449305079E1,3.735584351E-1,-4.012241852E0,-2.509719975E-1,4.037402324E0
1.450308779E1,4.485510224E-1,-4.053687501E0,5.496499658E-2,4.078799030E0
1.451312579E1,3.633331168E-1,-4.179715464E0,7.625353932E-2,4.196170506E0
1.452316279E1,-8.006212324E-2,-4.257032027E0,-1.963297673E-1,4.262308881E0
1.453320079E1,-7.020778146E-1,-4.341830687E0,-6.053196980E-1,4.439686803E0
1.454323779E1,-1.255614132E0,-4.399157959E0,-9.011436403E-1,4.662747844E0
1.455327579E1,-1.553549943E0,-4.369544150E0,-9.357135487E-1,4.730961144E0
1.456331279E1,-1.583740287E0,-4.214903423E0,-6.506875134E-1,4.549399784E0
1.457335079E1,-1.332284286E0,-4.047085410E0,-2.621669304E-1,4.268795290E0
1.458338879E1,-1.159666878E0,-4.042078439E0,1.137868166E-3,4.205142883E0
1.459342579E1,-1.266707762E0,-4.054015530E0,-1.243666224E-1,4.249124325E0
1.460346379E1,-1.692194442E0,-3.941044984E0,-5.143824846E-1,4.319716072E0
1.461350079E1,-2.305361250E0,-3.735184402E0,-7.487149143E-1,4.452737027E0
1.462353879E1,-2.654663388E0,-3.572310795E0,-7.112032717E-1,4.507155668E0
1.463357579E1,-2.428770829E0,-3.505411631E0,-4.717061426E-1,4.290611277E0
1.464361379E1,-1.838708125E0,-3.600207860E0,-2.950781299E-1,4.053321516E0
1.465365079E1,-1.490118470E0,-3.615062127E0,-3.621328296E-1,3.926864834E0
1.466368879E1,-1.618644948E0,-3.453348023E0,-6.619295163E-1,3.870888105E0
1.467372679E1,-2.309405184E0,-3.332718210E0,-9.620998402E-1,4.167253181E0
1.468376379E1,-3.151785769E0,-3.339615585E0,-1.045963092E0,4.709652278E0
1.469380179E1,-3.576963132E0,-3.385747778E0,-9.059863043E-1,5.007870250E0
1.470383879E1,-3.480748952E0,-3.431646082E0,-6.398268950E-1,4.929623369E0
1.471387679E1,-2.940489323E0,-3.345238268E0,-4.597186196E-1,4.477548183E0
1.472391379E1,-2.617699922E0,-3.011908969E0,-5.157865472E-1,4.023677954E0
1.473395179E1,-2.937441169E0,-2.566933519E0,-7.530009234E-1,3.972998704E0
1.474398879E1,-3.649958895E0,-2.162559965E0,-1.034071902E0,4.366711604E0
1.475402679E1,-4.406304426E0,-1.994474149E0,-9.994107771E-1,4.938852875E0
1.476406479E1,-4.475752975E0,-1.979119361E0,-7.549576941E-1,4.951690546E0
1.477410179E1,-3.932344328E0,-1.858752673E0,-5.152069420E-1,4.379923698E0
1.478413979E1,-3.421414916E0,-1.425310271E0,-3.092609900E-1,3.719305279E0
1.479417679E1,-3.353513832E0,-7.738368917E-1,-2.147962976E-1,3.448335251E0
1.480421479E1,-3.638809424E0,-2.429576576E-1,-1.675513798E-1,3.650758265E0
1.481425179E1,-4.137016756E0,-1.394180864E-1,1.099101126E-1,4.140824226E0
1.482428979E1,-4.677001859E0,-2.323829681E-1,5.642291209E-1,4.716641044E0
1.483432779E1,-4.779559683E0,-8.003961146E-2,8.263381639E-1,4.851126865E0
1.484436479E1,-4.036408979E0,2.717166030E-1,8.576695919E-1,4.135459404E0
1.485440279E1,-3.077503619E0,5.528454691E-1,8.326060867E-1,3.235722413E0
1.486443979E1,-2.724980834E0,1.011500480E0,7.434056425E-1,3.000217612E0
1.487447779E1,-3.085173119E0,1.404990027E0,7.739582214E-1,3.477254877E0
1.488451479E1,-3.722450920E0,1.485987412E0,8.836049169E-1,4.104333940E0
1.489455275E1,-4.282465661E0,1.538824607E0,8.062252039E-1,4.621416708E0
1.490458975E1,-4.648527088E0,1.639408411E0,7.675312543E-1,4.988543701E0
1.491462775E1,-4.417859693E0,1.676221311E0,6.876226205E-1,4.774937384E0
1.492466575E1,-4.080457224E0,1.665509797E0,7.022763276E-1,4.462874195E0
1.493470275E1,-3.884863182E0,1.824135402E0,7.466850534E-1,4.356279431E0
1.494474075E1,-3.712957381E0,2.270059270E0,7.493163005E-1,4.415959298E0
1.495477775E1,-3.563135344E0,2.686961069E0,7.817382342E-1,4.530652042E0
1.496481575E1,-3.547452234E0,2.815926087E0,1.009817652E0,4.640429805E0
1.497485275E1,-3.645741883E0,2.895296777E0,1.189996094E0,4.805233398E0
1.498489075E1,-3.352666863E0,2.945068862E0,1.247676537E0,4.633627352E0
1.499492775E1,-3.041741755E0,2.922493932E0,1.193458815E0,4.383777780E0
1.500496575E1,-3.038432816E0,3.190561872E0,1.090198740E0,4.538754491E0
1.501500375E1,-2.898637292E0,3.697104410E0,1.028275557E0,4.809161028E0
1.502504075E1,-2.216024858E0,4.071836674E0,1.215420372E0,4.792480229E0
1.503507875E1,-1.355585002E0,4.186281887E0,1.555331297E0,4.667078548E0
1.504511575E1,-9.800263801E-1,4.109831881E0,2.015346955E0,4.681110247E0
1.505515375E1,-1.081232035E0,4.001219850E0,2.280588936E0,4.730740840E0
1.506519075E1,-1.249027829E0,3.927857174E0,2.241500300E0,4.691743396E0
1.507522875E1,-1.157394504E0,4.048019210E0,2.036150179E0,4.676743430E0
1.508526575E1,-5.113609359E-1,4.343846222E0,1.891991755E0,4.765513908E0
1.509530375E1,3.533603981E-1,4.605302131E0,2.116118454E0,5.080514600E0
1.510534175E1,1.038896293E0,4.809808499E0,2.673368046E0,5.600041072E0
1.511537875E1,1.167461363E0,4.865138361E0,3.345544077E0,6.018737615E0
1.512541675E1,1.073621153E0,4.810713063E0,3.756151932E0,6.197120290E0
1.513545375E1,1.187960093E0,4.798221656E0,3.721597812E0,6.187444587E0
1.514549175E1,1.459349837E0,4.790330254E0,3.611997017E0,6.174422105E0
1.515552875E1,1.757726820E0,4.642369385E0,3.621242049E0,6.144476468E0
1.516556675E1,2.104583652E0,4.523894856E0,3.765942510E0,6.251177490E0
1.517560375E1,2.516158637E0,4.405985752E0,4.001991098E0,6.462174362E0
1.518564175E1,3.009931733E0,4.252858869E0,4.192541916E0,6.687593387E0
1.519567975E1,3.452470063E0,3.957107286E0,4.355109129E0,6.822405964E0
1.520571675E1,3.598916795E0,3.734828891E0,4.324793655E0,6.753146607E0
1.521575475E1,3.513112706E0,3.513101889E0,4.189068085E0,6.498625792E0
1.522579175E1,3.482951306E0,3.157084224E0,4.024366053E0,6.188186546E0
1.523582975E1,3.484025440E0,2.745982863E0,3.828535784E0,5.859739022E0
1.524586675E1,3.505550210E0,2.311265184E0,3.714173017E0,5.605881753E0
1.525590475E1,3.446158579E0,1.785181836E0,3.631000468E0,5.314795154E0
1.526594175E1,3.368374823E0,1.322952422E0,3.474642413E0,5.016900632E0
1.527597975E1,3.361030720E0,9.428021282E-1,3.322706022E0,4.819313091E0
1.528601775E1,3.353164461E0,5.970205986E-1,3.144054873E0,4.635215911E0
1.529605475E1,3.124689772E0,2.694993389E-1,2.984173286E0,4.329157685E0
1.530609275E1,3.051695763E0,3.011316061E-3,2.830425721E0,4.162230875E0
1.531612975E1,3.290705088E0,-2.286156070E-1,2.648795123E0,4.230498868E0
1.532616775E1,3.735048746E0,-5.002585351E-1,2.529806038E0,4.538806708E0
1.533620475E1,4.281092734E0,-8.212396842E-1,2.602958799E0,5.077163000E0
1.534624275E1,4.733605830E0,-1.111489622E0,2.724567436E0,5.573661368E0
1.535627975E1,5.208900263E0,-1.162752162E0,2.581460926E0,5.928623369E0
1.536631775E1,5.311118948E0,-1.249651726E0,2.464970357E0,5.987127256E0
1.537635575E1,4.852449319E0,-1.468007224E0,2.345360883E0,5.585877485E0
1.538639275E1,4.519720529E0,-1.813197016E0,2.157389272E0,5.326338850E0
1.539643075E1,4.632585824E0,-2.319492801E0,2.066795436E0,5.577861745E0
1.540646775E1,4.822231201E0,-2.695246573E0,1.866228630E0,5.831044258E0
1.541650575E1,4.828381594E0,-2.876907284E0,1.601228724E0,5.844125065E0
1.542654275E1,4.682122850E0,-2.963989867E0,1.444176604E0,5.726530920E0
1.543658075E1,4.524247151E0,-3.089962281E0,1.475116854E0,5.673856617E0
1.544661775E1,4.210955090E0,-3.345880292E0,1.446068763E0,5.569396069E0
1.545665575E1,3.853145546E0,-3.721518289E0,1.305219571E0,5.513621959E0
1.546669375E1,3.627248894E0,-3.957374504E0,9.542869368E-1,5.452376643E0
1.547673075E1,3.227875294E0,-4.222934573E0,6.071631789E-1,5.349860040E0
1.548676875E1,2.806434595E0,-4.586884571E0,3.311401016E-1,5.387507677E0
1.549680575E1,2.367216898E0,-4.814147717E0,-3.859162331E-4,5.364674663E0
1.550684375E1,1.943856265E0,-5.067944359E0,-2.935243785E-1,5.435880220E0
1.551688075E1,1.679222979E0,-5.276021621E0,-5.111232466E-1,5.560345397E0
1.552691875E1,1.388326339E0,-5.349163272E0,-6.418500316E-1,5.563539269E0
1.553695575E1,1.121459125E0,-5.342203916E0,-7.282707095E-1,5.507012935E0
1.554699375E1,9.584469384E-1,-5.332856557E0,-7.739688925E-1,5.473299502E0
1.555703175E1,8.397493377E-1,-5.303260875E0,-7.166369431E-1,5.416947790E0
1.556706875E1,6.399988031E-1,-5.320319542E0,-5.174347311E-1,5.383598907E0
1.557710675E1,4.095965794E-1,-5.325450473E0,-4.538480151E-1,5.360426301E0
1.558714375E1,1.927791917E-1,-5.340446827E0,-6.894750184E-1,5.388219737E0
1.559718175E1,-1.239650649E-1,-5.372907645E0,-8.977474312E-1,5.448803020E0
1.560721875E1,-5.599024737E-1,-5.422414266E0,-1.079616596E0,5.557125088E0
1.561725675E1,-8.112052774E-1,-5.412511421E0,-1.211768786E0,5.605507781E0
1.562729475E1,-1.057760142E0,-5.479343342E0,-1.240343690E0,5.716687192E0
1.563733175E1,-1.355768458E0,-5.534978430E0,-1.138529632E0,5.811225693E0
1.564736975E1,-1.439492985E0,-5.281254294E0,-1.024938697E0,5.569047163E0
1.565740675E1,-1.135102433E0,-4.952510381E0,-9.405746314E-1,5.167252389E0
1.566744475E1,-8.694482231E-1,-4.780848994E0,-8.512851633E-1,4.933269073E0
1.567748175E1,-9.760371172E-1,-4.726094497E0,-6.962158348E-1,4.875790616E0
1.568751975E1,-1.322655383E0,-4.649228169E0,-5.740147287E-1,4.867672210E0
1.569755675E1,-1.552640408E0,-4.609719118E0,-5.171990883E-1,4.891594574E0
1.570759475E1,-1.672844252E0,-4.555051160E0,-5.282183124E-1,4.881179524E0
1.571763275E1,-2.000908425E0,-4.441895258E0,-7.007905501E-1,4.921907700E0
1.572766975E1,-2.480937056E0,-4.443627788E0,-1.032912545E0,5.193051600E0
1.573770775E1,-3.187102367E0,-4.515160870E0,-1.303479440E0,5.678323505E0
1.574774475E1,-3.930209509E0,-4.514828748E0,-1.459053675E0,6.161092682E0
1.575778275E1,-4.373901495E0,-4.424567619E0,-1.440434971E0,6.386130739E0
1.576781975E1,-4.461374964E0,-4.208558609E0,-1.190171510E0,6.247586763E0
1.577785775E1,-4.277575049E0,-3.902424710E0,-7.966591591E-1,5.844761136E0
1.578789475E1,-3.936867149E0,-3.500877700E0,-4.246575451E-1,5.285395127E0
1.579793275E1,-3.683814858E0,-3.039865091E0,-2.685655385E-1,4.783659596E0
1.580797075E1,-3.702766269E0,-2.518089972E0,-2.549786559E-1,4.485116416E0
1.581800775E1,-3.944282003E0,-2.140961519E0,-2.102360541E-1,4.492802683E0
1.582804575E1,-4.262966366E0,-1.933314028E0,-4.820152223E-2,4.681122595E0
1.583808275E1,-4.509715358E0,-1.748735556E0,3.051831418E-1,4.846518896E0
1.584812075E1,-4.539565979E0,-1.327429635E0,7.445151517E-1,4.787904711E0
1.585815775E1,-4.149939687E0,-7.802565497E-1,1.052716919E0,4.351897586E0
1.586819575E1,-3.559291384E0,-5.110694522E-1,1.206848354E0,3.792918414E0
1.587823275E1,-3.459558058E0,-2.776316464E-1,1.105476053E0,3.642485222E0
1.588827075E1,-4.302975354E0,3.755666614E-2,7.716687441E-1,4.371782251E0
1.589830888E1,-5.628744965E0,3.095223606E-1,6.889619252E-1,5.679193825E0
1.590834588E1,-6.233721870E0,5.703572953E-1,6.540748054E-1,6.293839023E0
1.591838387E1,-5.869312280E0,7.546100771E-1,9.787397003E-1,5.998015873E0
1.592842087E1,-4.956562502E0,1.052269607E0,1.401800956E0,5.257359516E0
1.593845887E1,-4.073187965E0,1.542059287E0,1.731210281E0,4.686778860E0
1.594849587E1,-4.018034688E0,2.167770419E0,1.756998549E0,4.891919382E0
1.595853388E1,-4.955392474E0,2.602820220E0,1.518545586E0,5.799704162E0
1.596857088E1,-6.056463527E0,2.717349633E0,1.316946747E0,6.767502362E0
1.597860887E1,-6.097284694E0,2.730707597E0,1.074563286E0,6.766707536E0
1.598864587E1,-5.139982055E0,2.700689746E0,8.505085069E-1,5.868262550E0
1.599868388E1,-4.342431488E0,2.856852504E0,8.406565332E-1,5.265455428E0
1.600872187E1,-3.961031060E0,3.312475734E0,8.433246177E-1,5.231965114E0
1.601875887E1,-3.838626909E0,3.548823114E0,1.035244853E0,5.329252663E0
1.602879687E1,-3.869842270E0,3.574697628E0,1.443236665E0,5.462332322E0
1.603883387E1,-3.919421396E0,3.812968158E0,1.795819091E0,5.755480558E0
1.604887188E1,-3.661109243E0,4.010895823E0,2.011044574E0,5.790967662E0
1.605890888E1,-3.178932345E0,4.027181488E0,2.157607958E0,5.565884807E0
1.606894687E1,-2.771616472E0,4.093548555E0,2.052807142E0,5.352851091E0
1.607898387E1,-2.521088424E0,4.259912950E0,1.868240365E0,5.290847498E0
1.608902188E1,-2.179459149E0,4.324707701E0,1.770974856E0,5.156499861E0
1.609905987E1,-1.877882862E0,4.196950132E0,1.811267434E0,4.941813854E0
1.610909687E1,-1.647965519E0,4.260698816E0,1.920902728E0,4.955725178E0
1.611913487E1,-1.044802858E0,4.532165743E0,2.213937694E0,5.151083327E0
1.612917187E1,3.408678219E-1,4.713229453E0,2.617440598E0,5.402010555E0
1.613920988E1,1.822651817E0,4.781424360E0,3.065743114E0,5.965136997E0
1.614924688E1,2.437557879E0,4.733608754E0,3.462753269E0,6.351330605E0
1.615928487E1,2.259998112E0,4.611040004E0,3.651373336E0,6.300937123E0
1.616932187E1,1.731714457E0,4.496303015E0,3.539667544E0,5.978697357E0
1.617935988E1,1.450216924E0,4.477605373E0,3.264463077E0,5.727896489E0
1.618939788E1,1.852565295E0,4.328061664E0,3.097886428E0,5.635691285E0
1.619943488E1,2.557253453E0,4.075440313E0,3.191638929E0,5.773674568E0
1.620947287E1,2.958331516E0,3.909881664E0,3.420905331E0,5.978418961E0
1.621950987E1,2.744768104E0,3.641259407E0,3.787004766E0,5.927387883E0
1.622954788E1,2.541781428E0,3.425385468E0,3.895033244E0,5.776261975E0
1.623958488E1,2.835559283E0,3.261693251E0,3.830154294E0,5.774869802E0
1.624962287E1,3.326875087E0,2.960992584E0,3.750187773E0,5.822326275E0
1.625966088E1,3.711728004E0,2.707667813E0,3.629332257E0,5.854950247E0
1.626969788E1,3.890509838E0,2.479426428E0,3.490981287E0,5.785375750E0
1.627973588E1,3.916283780E0,2.122183771E0,3.346915834E0,5.571605532E0
1.628977288E1,3.759096006E0,1.732691381E0,3.119338692E0,5.182981389E0
1.629981087E1,3.482521243E0,1.308648378E0,2.846094797E0,4.684097606E0
1.630984787E1,3.250015776E0,8.901473665E-1,2.605773064E0,4.259696954E0
1.631988588E1,3.279002178E0,4.954532933E-1,2.415331589E0,4.102579181E0
1.632992288E1,3.414148874E0,1.655504626E-1,2.272198182E0,4.104473665E0
1.633996087E1,3.394266586E0,-1.131518090E-1,2.116663415E0,4.001763736E0
1.634999787E1,3.252238595E0,-4.080415124E-1,1.930894450E0,3.804195990E0
1.636003587E1,3.080516396E0,-6.816192842E-1,1.749765835E0,3.607750906E0
1.637007388E1,3.010651233E0,-8.665637916E-1,1.584088488E0,3.510596814E0
1.638011088E1,3.005067726E0,-1.115621849E0,1.532953418E0,3.553166240E0
1.639014887E1,3.006178405E0,-1.310060481E0,1.411872200E0,3.570259119E0
1.640018587E1,2.985753496E0,-1.398777945E0,1.344163197E0,3.560628930E0
1.641022388E1,3.018688231E0,-1.425099771E0,1.422498930E0,3.628621115E0
1.642026088E1,3.280670681E0,-1.476076382E0,1.639647562E0,3.953485264E0
1.643029887E1,3.641013532E0,-1.642027963E0,1.763885107E0,4.366294315E0
1.644033587E1,3.817688615E0,-1.922411309E0,1.730019203E0,4.611223053E0
1.645037387E1,3.665845195E0,-2.167952267E0,1.525405832E0,4.523859080E0
1.646041188E1,3.386607319E0,-2.299912814E0,1.168813385E0,4.257326956E0
1.647044888E1,3.300819017E0,-2.406847864E0,8.980291209E-1,4.182676072E0
1.648048687E1,3.486706680E0,-2.513359575E0,7.667442191E-1,4.366004641E0
1.649052387E1,3.817437769E0,-2.518540792E0,7.093283620E-1,4.628069313E0
1.650056188E1,4.087525630E0,-2.595089616E0,8.559490487E-1,4.916808382E0
