"Time (s)","Linear Acceleration x (m/s^2)","Linear Acceleration y (m/s^2)","Linear Acceleration z (m/s^2)","Absolute acceleration (m/s^2)"
5.142158333E-2,-2.903018318E-2,9.474178654E-2,1.443075281E-1,1.750526216E-1
6.145958333E-2,-1.210480078E-2,5.425629577E-2,-6.278155446E-3,5.594360614E-2
7.149658333E-2,4.543087391E-2,-4.608001535E-2,-1.403331757E-4,6.470975052E-2
8.153458333E-2,5.660129876E-2,-2.780767200E-2,-1.061854362E-2,6.395097429E-2
9.157158333E-2,5.351633976E-2,1.261058767E-1,3.264032722E-2,1.408264241E-1
1.016095833E-1,4.354483623E-2,1.427550650E-1,7.170791388E-2,1.655813584E-1
1.116465833E-1,1.498804911E-2,9.887225968E-3,2.402036190E-3,1.811542523E-2
1.216845833E-1,-1.724332932E-2,-9.517275374E-2,6.069409847E-4,9.672411198E-2
1.317215833E-1,-2.446385037E-2,-5.859951619E-3,1.213180304E-2,2.792847387E-2
1.417595833E-1,-5.170056460E-2,5.801231869E-2,6.422289312E-2,1.008114949E-1
1.517965833E-1,-3.769606284E-2,2.872092943E-3,1.916717291E-2,4.238658501E-2
1.618345833E-1,-3.002834401E-2,-6.782378211E-2,-9.123995304E-3,7.473295226E-2
1.718715833E-1,-3.969076280E-3,-3.513996166E-2,2.575406134E-2,4.374748161E-2
1.819095833E-1,1.761083596E-2,7.579299343E-2,1.991620123E-2,8.032044863E-2
1.919465833E-1,6.009792916E-2,8.758630207E-2,2.485534430E-2,1.090912899E-1
2.019845833E-1,5.367358418E-2,5.761828031E-3,1.722180426E-2,5.666253474E-2
2.120215833E-1,2.318785772E-2,-3.523100006E-2,3.298414350E-3,4.230578741E-2
2.220595833E-1,-2.250382714E-2,2.637528232E-2,5.270036995E-2,6.308253916E-2
2.320965833E-1,-2.847682645E-2,5.560539003E-2,5.000304937E-2,8.001995996E-2
2.421345833E-1,-1.701381241E-2,-1.005272958E-2,3.577209592E-2,4.086771380E-2
2.521715833E-1,-1.503218645E-2,-5.603019025E-2,1.286621332E-2,5.942127812E-2
2.622085833E-1,-3.668022790E-2,-5.902480977E-3,1.482210696E-2,3.999966568E-2
2.722465833E-1,-1.600581638E-3,4.448076075E-2,4.432306409E-2,6.281428141E-2
2.822835833E-1,2.825486066E-2,4.000323710E-2,1.423972428E-2,5.100358690E-2
2.923215833E-1,3.378814022E-2,1.143633612E-2,1.468645155E-2,3.857615925E-2
3.023585833E-1,1.149039546E-2,2.671043285E-2,2.157388687E-2,3.620647739E-2
3.123965833E-1,1.439800567E-2,4.839033248E-2,2.337307513E-2,5.563476867E-2
3.224335833E-1,1.363315788E-2,2.779262456E-2,3.339988053E-2,4.553948828E-2
3.324715833E-1,-3.888932424E-2,-1.577765163E-2,1.049165905E-2,4.325955086E-2
3.425085833E-1,-6.560873805E-2,-4.382647560E-2,2.231472909E-2,8.199520477E-2
3.525465833E-1,-3.755118437E-2,-1.630211033E-2,9.446761608E-3,4.201299268E-2
3.625835833E-1,-1.524459113E-2,-6.284052911E-3,3.445062518E-2,3.819335616E-2
3.726215833E-1,-2.419618493E-2,1.613516775E-2,-2.817188501E-3,2.921875348E-2
3.826585833E-1,4.035880719E-3,-3.610098353E-3,4.463705957E-2,4.496429951E-2
3.926965833E-1,5.650066270E-2,2.152854811E-2,7.818896770E-3,6.096669924E-2
4.027335833E-1,7.491158049E-2,6.547205938E-2,2.578388214E-2,1.027771571E-1
4.127715833E-1,4.979094619E-2,6.131092947E-2,3.416177273E-2,8.605344335E-2
4.228085833E-1,1.611099317E-2,1.740755843E-2,2.322747946E-2,3.319793658E-2
4.328465833E-1,7.623439883E-3,-1.219594882E-2,2.591836810E-2,2.964152169E-2
4.428835833E-1,-1.400200299E-2,-5.346282860E-3,2.397066057E-2,2.827068086E-2
4.529215833E-1,-5.006814533E-2,-2.217350056E-2,3.894011736E-2,6.719238085E-2
4.629585833E-1,-6.636381458E-2,-2.639022013E-2,1.499050677E-2,7.297475521E-2
4.729965833E-1,-4.045061305E-2,-3.189808714E-2,2.218024313E-2,5.608656920E-2
4.830335833E-1,-5.871061329E-4,1.327437181E-2,2.144232452E-2,2.522552123E-2
4.930715833E-1,4.041879597E-2,4.348398407E-2,4.001191199E-2,7.159252084E-2
5.031085833E-1,3.942274563E-2,4.628076214E-2,2.265035927E-2,6.487758158E-2
5.131465833E-1,4.103906678E-2,2.627207440E-2,2.609319985E-2,5.527460514E-2
5.231835833E-1,5.291090169E-2,3.140804479E-2,2.773860633E-2,6.749414106E-2
5.332215833E-1,3.376628168E-2,1.919322956E-2,1.396198153E-2,4.127322095E-2
5.432585833E-1,-1.614746518E-2,-7.485664864E-3,3.895473540E-2,4.282811250E-2
5.532965833E-1,-5.906142795E-2,-6.369356479E-2,-6.388492405E-2,1.078258132E-1
5.633335833E-1,-3.859812833E-2,-3.531535985E-2,1.278669119E-1,1.381554824E-1
5.733715833E-1,-8.247963628E-3,3.520016971E-2,-7.555479705E-2,8.375922761E-2
5.834085833E-1,-4.943387775E-2,3.333351463E-3,1.495817167E-1,1.575738223E-1
5.934465833E-1,2.075528582E-3,8.338029021E-3,-1.986357629E-2,2.164237071E-2
6.034835833E-1,3.302916706E-2,2.868062475E-2,3.777242839E-2,5.779498645E-2
6.135215833E-1,3.176136736E-2,1.238893434E-2,-1.177102983E-2,3.606698344E-2
6.235585833E-1,-1.973552227E-2,2.251296341E-2,3.058853924E-2,4.280167162E-2
6.335965833E-1,-2.044120811E-2,-2.365481499E-2,4.360444129E-2,5.365389605E-2
6.436335833E-1,-2.097942604E-2,-6.154468562E-4,-2.055296302E-3,2.108884384E-2
6.536715833E-1,1.059109369E-2,-1.514347998E-2,6.778092384E-3,1.968346483E-2
6.637085833E-1,-1.186364424E-2,2.433949197E-3,5.213319004E-2,5.352139448E-2
6.737455833E-1,-2.306264736E-2,2.272787599E-2,3.596739292E-2,4.839520022E-2
6.837835833E-1,2.711495967E-2,1.996301094E-2,8.427007198E-3,3.470961385E-2
6.938205833E-1,4.940443153E-2,5.800118158E-4,6.782185435E-3,4.987115708E-2
7.038585833E-1,2.902953451E-2,7.284940914E-3,3.672109902E-2,4.737323454E-2
7.138955833E-1,-2.016645293E-3,3.108396286E-2,3.656907141E-2,4.803724169E-2
7.239337500E-1,-2.294968190E-3,4.710576315E-3,4.974167883E-2,5.001690736E-2
7.339707500E-1,-8.831862928E-3,-2.482050311E-2,4.385996461E-3,2.670760458E-2
7.440087500E-1,-2.174494534E-2,-1.162535193E-2,2.773685217E-2,3.711232172E-2
7.540457500E-1,-2.973256169E-2,5.824900302E-3,2.040268958E-2,3.652703697E-2
7.640837500E-1,-7.908258671E-3,-7.497674497E-3,4.136203408E-2,4.277351449E-2
7.741207500E-1,2.060758424E-2,5.077553052E-3,1.906075358E-2,2.852659111E-2
7.841587500E-1,9.526429921E-3,6.061159791E-3,3.927048504E-2,4.086149190E-2
7.941957500E-1,6.403929968E-3,2.002200843E-2,4.526037276E-2,4.990383235E-2
8.042337500E-1,2.328457204E-3,1.642612155E-2,2.026294112E-2,2.618827915E-2
8.142707500E-1,-2.488730298E-3,8.642687229E-4,3.642639935E-2,3.652154581E-2
8.243087500E-1,-6.773734381E-3,-2.425374803E-3,1.382223308E-2,1.558268423E-2
8.343457500E-1,-4.555707327E-3,-1.426894208E-3,3.627495646E-2,3.658774334E-2
8.443837500E-1,-4.829005273E-3,1.364732824E-2,2.804149210E-2,3.155779047E-2
8.544207500E-1,1.542167497E-2,2.046931586E-2,2.759301066E-2,3.765893238E-2
8.644587500E-1,1.768157357E-2,4.024620261E-4,4.181343913E-2,4.540004088E-2
8.744957500E-1,-1.763969745E-2,9.887139173E-3,3.807356000E-2,4.311044442E-2
8.845337500E-1,-6.125858319E-3,-3.958030525E-3,3.972189009E-2,4.038589727E-2
8.945707500E-1,3.940621354E-3,6.095155869E-3,3.508270919E-2,3.582563197E-2
9.046087500E-1,2.172964208E-2,-4.232995841E-3,2.640076339E-2,3.445425817E-2
9.146457500E-1,6.127434326E-3,5.224669911E-4,1.487356246E-2,1.609475950E-2
9.246837500E-1,-6.820763354E-3,-1.003551227E-3,1.951274335E-2,2.069485639E-2
9.347207500E-1,7.266960726E-3,1.436768694E-2,1.831581831E-2,2.438664279E-2
9.447587500E-1,1.251657267E-2,1.719713175E-2,1.726858199E-2,2.739726000E-2
9.547957500E-1,1.275606640E-2,8.457769034E-3,2.819702804E-2,3.208307151E-2
9.648337500E-1,-3.595777242E-3,6.927123293E-4,1.700955033E-3,4.037661746E-3
9.748707500E-1,-3.682498760E-3,1.842233813E-3,4.047150314E-2,4.068042759E-2
9.849087500E-1,-4.090670957E-3,3.575750529E-3,9.635041952E-3,1.106135679E-2
9.949457500E-1,-1.748102778E-3,9.216417857E-3,2.550321579E-2,2.717374168E-2
1.004983750E0,-1.314301503E-2,-1.950233714E-3,2.999270797E-2,3.280403614E-2
1.015020750E0,6.459839400E-3,1.221967572E-3,3.717893600E-2,3.775574145E-2
1.025058750E0,-5.097127520E-4,1.168931956E-2,1.891983569E-2,2.224545305E-2
1.035095750E0,-1.623111234E-2,-3.505862597E-3,1.907069385E-2,2.528698172E-2
1.045133750E0,2.470562817E-3,2.160386299E-3,3.134516895E-2,3.151651259E-2
1.055170750E0,2.164002436E-2,-4.201069130E-3,2.865135670E-2,3.615024034E-2
1.065208750E0,8.416294917E-3,1.166743361E-2,2.939804614E-2,3.272931628E-2
1.075245750E0,1.650732019E-2,6.129001197E-3,7.692596912E-3,1.921541888E-2
1.085283750E0,1.268623785E-2,1.066816273E-2,1.996648729E-2,2.595016265E-2
1.095320750E0,-2.276823549E-3,1.528738544E-2,2.655279100E-2,3.072358685E-2
1.105358750E0,-2.761882064E-3,-5.390717131E-3,1.577695727E-2,1.689971019E-2
1.115395750E0,-1.194876235E-2,4.084645584E-3,4.152166307E-2,4.339937506E-2
1.125433750E0,-8.317084112E-3,-4.217660604E-3,3.014415085E-2,3.155364289E-2
1.135470750E0,-1.143078583E-2,-3.416372789E-4,3.643049240E-2,3.818324708E-2
1.145507750E0,4.410979603E-3,-8.032292733E-4,2.505473435E-2,2.545273328E-2
1.155545750E0,2.736332472E-3,-1.612397125E-3,2.984535813E-2,3.001387582E-2
1.165582750E0,1.739741259E-2,-1.724467236E-3,3.493418992E-2,3.906457957E-2
1.175620750E0,6.413851962E-3,-1.983941998E-3,3.134341478E-2,3.205437838E-2
1.185657750E0,1.187740347E-2,2.502466687E-3,3.074524462E-2,3.305457789E-2
1.195695750E0,2.559031189E-2,5.589476782E-3,2.700185716E-2,3.761923183E-2
1.205732750E0,-4.936612314E-3,3.402508493E-3,3.253917038E-2,3.308692815E-2
1.215770750E0,1.362241362E-3,-5.943365805E-3,2.475535691E-2,2.549523474E-2
1.225807750E0,-2.238223703E-2,-4.440567428E-3,2.714803755E-2,3.546405386E-2
1.235845750E0,-1.265508316E-2,-8.856074056E-3,3.448278487E-2,3.778417168E-2
1.245882750E0,2.081279866E-3,1.227097590E-2,3.149134934E-2,3.386168423E-2
1.255920750E0,-5.938651487E-3,1.121050569E-2,3.792679489E-2,3.999230913E-2
1.265957750E0,9.010605002E-4,6.964563746E-3,3.418399215E-2,3.489788500E-2
1.275995750E0,-2.035698993E-3,3.548405659E-3,2.751699686E-3,4.930223552E-3
1.286032750E0,2.366921376E-2,2.281364277E-2,2.131427050E-2,3.917897527E-2
1.296070750E0,6.488728300E-3,1.560885896E-2,2.790115893E-2,3.262230437E-2
1.306107750E0,3.101915927E-3,-4.392072083E-3,2.789998949E-2,2.841340516E-2
1.316145750E0,-2.493563844E-2,1.490498667E-2,3.418691576E-2,4.486301262E-2
1.326182750E0,1.777945048E-2,2.065974323E-2,3.059497118E-2,4.097543302E-2
1.336220750E0,-4.936626018E-3,6.161814127E-3,1.921921313E-2,2.077778581E-2
1.346257750E0,-4.522266735E-2,-2.515339241E-2,1.757380664E-2,5.464999060E-2
1.356295750E0,-3.159960962E-2,-2.978087431E-2,1.443034351E-2,4.575664560E-2
1.366332750E0,9.352703663E-3,5.582432714E-3,2.191594899E-2,2.447336186E-2
1.376370750E0,6.435500365E-4,2.042229145E-2,5.065735281E-2,5.462281152E-2
1.386407750E0,-7.220630678E-3,-8.652463043E-4,3.104813039E-2,3.188843928E-2
1.396445750E0,8.450487424E-3,-1.581793346E-2,1.503202200E-2,2.340041543E-2
1.406482750E0,2.232237616E-2,2.699421924E-3,2.371630669E-2,3.268085921E-2
1.416520750E0,2.312757430E-2,2.587746043E-2,3.419510186E-2,4.872199341E-2
1.426557750E0,1.964186632E-2,1.587320792E-2,2.416361868E-2,3.495199723E-2
1.436595750E0,-5.823940993E-3,-7.609392861E-3,1.712649465E-2,1.962493229E-2
1.446632750E0,-1.003364390E-2,-1.567478632E-3,3.344198048E-2,3.494992214E-2
1.456670750E0,-1.465285747E-2,-5.977206565E-3,3.194567800E-2,3.565051995E-2
1.466707750E0,-3.366209161E-2,-1.734585660E-3,2.311462820E-2,4.087090940E-2
1.476745750E0,-9.674675111E-3,-1.238707968E-2,2.939980030E-2,3.333747650E-2
1.486782750E0,2.991613685E-3,-1.593603808E-3,1.892100513E-2,1.922222049E-2
1.496820750E0,3.255916969E-2,1.605096328E-2,1.832341969E-2,4.066301344E-2
1.506857750E0,7.165639442E-3,2.714394907E-2,4.182688773E-2,5.037488359E-2
1.516895750E0,1.423253403E-3,1.340034734E-2,4.852604270E-3,1.432280444E-2
1.526932750E0,8.650320587E-3,-1.732582075E-2,2.850225270E-2,3.445853334E-2
1.536970750E0,-5.162990922E-3,1.121823498E-2,1.817373097E-2,2.197247752E-2
1.547007750E0,-2.038347142E-2,2.409532503E-3,4.257182300E-2,4.726152630E-2
1.557045750E0,-2.446926818E-2,-1.510390621E-3,2.939863086E-2,3.827931375E-2
1.567082750E0,-5.986817926E-4,-1.072293470E-2,1.487940967E-2,1.835038366E-2
1.577120750E0,-1.057621070E-2,2.771351812E-4,2.371338308E-2,2.596647018E-2
1.587157750E0,-6.484251525E-3,8.891577618E-3,2.386599541E-2,2.628100849E-2
1.597194750E0,-3.945509261E-3,2.762284060E-3,2.865661919E-2,2.905854573E-2
1.607232750E0,8.235912882E-3,-9.670760217E-3,2.371513724E-2,2.690281767E-2
1.617269750E0,2.932579648E-3,1.512964766E-2,2.341634452E-2,2.803268543E-2
1.627307750E0,-5.609142613E-3,7.913498324E-3,3.778646171E-2,3.901157040E-2
1.637344750E0,-6.655264311E-3,-1.880158489E-3,1.293696463E-2,1.466944419E-2
1.647382750E0,2.114435406E-3,1.111482605E-3,2.730591238E-2,2.741020032E-2
1.657419750E0,-1.651486675E-3,3.923714678E-3,2.565816700E-2,2.600893076E-2
1.667457750E0,-1.560863512E-2,-7.518578293E-3,3.134516895E-2,3.581449604E-2
1.677494750E0,-1.289891662E-2,-9.859017720E-3,1.532789111E-2,2.232770759E-2
1.687532750E0,-3.861355036E-4,-3.128845096E-3,1.353221118E-2,1.389458570E-2
1.697569750E0,2.562080878E-2,-3.120540222E-3,8.592483401E-3,2.720283781E-2
1.707607750E0,1.317543967E-2,1.199585527E-2,2.520793140E-2,3.086960576E-2
1.717644750E0,1.245689452E-2,9.986487022E-3,3.329170704E-2,3.692210587E-2
1.727682875E0,1.991632001E-2,8.696554704E-3,1.607691944E-2,2.703252124E-2
1.737719875E0,8.886520690E-3,5.158198946E-3,3.463773608E-2,3.612962811E-2
1.747757875E0,-1.099345065E-2,4.655891145E-4,2.924835742E-2,3.124962627E-2
1.757794875E0,-1.067907601E-2,-1.346318663E-2,3.254150927E-2,3.680013430E-2
1.767832875E0,-2.397500030E-3,-8.187595694E-3,3.224154711E-2,3.335119323E-2
1.777869875E0,-1.251527075E-2,-5.578650297E-3,3.388870776E-2,3.655404019E-2
1.787907875E0,-1.411718400E-2,-1.246147636E-2,9.790577888E-3,2.122354100E-2
1.797944875E0,1.107165716E-3,9.239290520E-3,2.925011158E-2,3.069461407E-2
1.807982875E0,1.019424590E-2,2.250827650E-2,3.733330250E-2,4.476963967E-2
1.818019875E0,-4.840119551E-3,-7.383201546E-3,1.263524830E-2,1.541388731E-2
1.828057875E0,2.809148580E-3,-5.678418414E-3,3.463949025E-2,3.521406020E-2
1.838094875E0,1.072454268E-2,1.589757437E-2,3.194392383E-2,3.725805894E-2
1.848132875E0,2.825086811E-2,3.116699789E-2,3.628489673E-2,5.555256103E-2
1.858169875E0,6.288986499E-3,4.200150934E-3,3.778061450E-2,3.853008501E-2
1.868207875E0,-3.091354393E-3,-1.665427260E-2,3.553352952E-2,3.936436190E-2
1.878244875E0,-4.602329736E-3,5.445813434E-4,2.595345140E-2,2.636398390E-2
1.888282875E0,-3.727727886E-3,7.733308151E-3,3.269002855E-2,3.379849075E-2
1.898319875E0,-1.404040275E-2,3.236977472E-3,2.954539597E-2,3.287158888E-2
1.908357875E0,3.038930451E-3,-8.976142975E-3,3.328819871E-2,3.461084244E-2
1.918394875E0,-5.999115352E-3,-1.426499065E-2,1.922096729E-2,2.467640425E-2
1.928432875E0,9.832047438E-4,2.288997634E-3,2.371221364E-2,2.384271959E-2
1.938469875E0,6.070615835E-3,1.703538315E-2,3.314260304E-2,3.775564583E-2
1.948507875E0,3.342204513E-3,1.388681741E-3,6.797972918E-3,7.701376745E-3
1.958544875E0,6.553084217E-3,-1.829246599E-3,2.610898733E-2,2.698088722E-2
1.968582875E0,7.763658855E-3,1.124328207E-2,2.521202445E-2,2.867633114E-2
1.978619875E0,-2.354966104E-4,3.859957187E-3,3.015175223E-2,3.039873173E-2
1.988657875E0,-1.433524860E-2,-1.751612477E-2,3.479093313E-2,4.150569850E-2
1.998694875E0,7.230502423E-3,-9.499286050E-3,3.179540455E-2,3.396269058E-2
2.008732875E0,5.221230104E-3,-1.861589011E-3,2.625633717E-2,2.683508895E-2
2.018769875E0,1.023125695E-3,1.247440876E-2,2.191711843E-2,2.523921038E-2
2.028807875E0,2.127609914E-3,7.765860697E-3,2.356252491E-2,2.490035937E-2
2.038844875E0,6.055938411E-3,3.571703159E-3,2.116809011E-2,2.230514497E-2
2.048881875E0,-2.234134306E-3,2.150095199E-2,2.506175101E-2,3.309642966E-2
2.058919875E0,4.093082934E-3,2.355641275E-2,4.586672902E-2,5.172441146E-2
2.068956875E0,-1.869395957E-3,1.237359454E-2,1.727559865E-2,2.133182579E-2
2.078994875E0,-1.696423898E-2,-3.988394933E-4,2.805318654E-2,3.278606033E-2
2.089031875E0,-1.496482927E-2,-7.907459247E-3,3.748299122E-2,4.112722526E-2
2.099069875E0,-6.954728547E-3,1.389928385E-2,4.302088916E-2,4.574226979E-2
2.109106875E0,-1.621524263E-2,-2.566598766E-3,3.912956715E-2,4.243400226E-2
2.119144875E0,-7.392337820E-3,-2.704963074E-3,3.164571583E-2,3.261004162E-2
2.129181875E0,1.246809559E-2,7.116929395E-3,3.987918019E-2,4.238458570E-2
2.139219875E0,5.889242515E-3,9.945748374E-3,3.509031057E-2,3.694497238E-2
2.149256875E0,1.556254718E-3,1.672062022E-2,4.062762380E-2,4.396140221E-2
2.159294875E0,-9.048822038E-3,9.697936065E-3,4.047559619E-2,4.259348578E-2
2.169331875E0,1.201809296E-2,-6.600245666E-3,2.505765796E-2,2.856368365E-2
2.179369875E0,-7.096669707E-3,9.167607310E-3,2.445831835E-2,2.706690011E-2
2.189406875E0,-2.161921193E-3,-7.160281017E-4,4.376757860E-2,4.382679016E-2
2.199444875E0,-6.010398651E-3,-1.844074773E-3,2.161364794E-2,2.250944870E-2
2.209481875E0,-1.567872405E-2,4.877838660E-3,3.403664231E-2,3.779032572E-2
2.219519875E0,-4.740013392E-3,6.300269798E-3,2.116282761E-2,2.258376406E-2
2.229556875E0,3.720258982E-3,1.588926950E-2,1.547582567E-2,2.249022881E-2
2.239594875E0,2.828649958E-3,1.526945550E-2,2.326139331E-2,2.796873166E-2
2.249631875E0,1.061527741E-2,9.090771242E-3,2.999621630E-2,3.309228352E-2
2.259669875E0,1.620639872E-2,8.073684624E-3,2.385956347E-2,2.995180315E-2
2.269706875E0,9.278398342E-3,5.611728178E-4,2.685216844E-2,2.841553344E-2
2.279744875E0,2.737565869E-3,1.441760297E-2,2.580376267E-2,2.968494080E-2
2.289781875E0,-2.992997831E-4,3.388826922E-3,2.580259323E-2,2.602590144E-2
2.299819875E0,6.096393834E-3,-7.909825542E-3,2.700010300E-2,2.878779116E-2
2.309856875E0,-3.565115905E-3,-1.023774371E-2,3.463481247E-2,3.629175778E-2
2.319894875E0,-3.188587194E-3,-8.192798803E-3,2.804850876E-2,2.939401103E-2
2.329931875E0,-3.020132566E-4,9.715911685E-3,1.667333543E-2,1.930000690E-2
2.339969875E0,-3.415258164E-3,-3.063338008E-3,2.221240282E-2,2.268124483E-2
2.350006875E0,1.754742108E-2,-1.298310282E-4,3.254150927E-2,3.697132224E-2
2.360044875E0,-3.328056992E-3,-4.638577905E-4,3.194333911E-2,3.211958967E-2
2.370081875E0,7.155543859E-3,6.778498949E-3,2.939804614E-2,3.100636987E-2
2.380119875E0,1.701293075E-2,-5.272735851E-3,2.849874437E-2,3.360684434E-2
2.390156875E0,7.564520049E-3,-2.828896637E-3,1.891866624E-2,2.057038046E-2
2.400194875E0,4.567406327E-4,-1.456407573E-2,2.909808397E-2,3.254257833E-2
2.410231875E0,-1.862559283E-2,-1.622853591E-3,2.385956347E-2,3.031212845E-2
2.420269875E0,-6.618015720E-3,5.137582943E-3,2.835080981E-2,2.956283660E-2
2.430306875E0,-3.165353648E-4,-1.279379921E-3,2.760295093E-2,2.763439718E-2
2.440343875E0,-8.112294520E-3,6.346371439E-3,4.122345507E-2,4.249069311E-2
2.450381875E0,5.287175733E-3,-1.628687102E-3,3.283971727E-2,3.330246056E-2
2.460418875E0,1.014364008E-2,7.057936471E-3,1.891808152E-2,2.259649773E-2
2.470456875E0,2.078126481E-2,6.143975551E-3,1.846960008E-2,2.847341795E-2
2.480493875E0,1.613154522E-2,1.609071521E-3,1.697271287E-2,2.347102138E-2
2.490531875E0,-3.381239246E-3,-9.534433298E-4,1.098633349E-2,1.153435549E-2
2.500568875E0,-3.701986433E-3,-9.554391489E-3,3.089551806E-2,3.255033236E-2
2.510606875E0,-1.489603769E-2,-1.416634172E-3,3.688189745E-2,3.980167271E-2
2.520643875E0,-9.171161321E-3,-3.611788563E-3,3.927750170E-2,4.049539920E-2
2.530681875E0,-1.820932589E-3,-9.491771464E-3,2.041672289E-2,2.258876036E-2
2.540718875E0,-1.905653263E-3,4.022258534E-3,3.778119922E-2,3.804246433E-2
2.550756875E0,-3.584635556E-3,1.098905610E-2,2.505824268E-2,2.759573322E-2
2.560793875E0,-6.196787786E-3,-4.072768427E-4,1.263466358E-2,1.407837978E-2
2.570831875E0,-9.994554352E-3,4.071882209E-3,3.404073536E-2,3.571054474E-2
2.580868875E0,-4.038283559E-3,-3.573306575E-3,3.149661183E-2,3.195485583E-2
2.590906875E0,-1.696313806E-3,6.654035482E-3,3.254501760E-2,3.326156700E-2
2.600943875E0,-2.470407500E-3,6.592397606E-3,2.461093068E-2,2.559805712E-2
2.610981875E0,-1.832828476E-2,6.388553618E-3,4.661575735E-2,5.049523217E-2
2.621018875E0,-2.418225668E-3,2.113859821E-4,2.161832571E-2,2.175418364E-2
2.631056875E0,-1.313884889E-2,7.971929368E-3,1.742704153E-2,2.323537786E-2
2.641093875E0,-8.853164152E-3,3.186865007E-3,3.374311209E-2,3.503044729E-2
2.651131875E0,-5.108821951E-4,-4.867848144E-3,2.176742971E-2,2.231093773E-2
2.661168875E0,-7.334500635E-3,1.298788566E-2,2.925128102E-2,3.283469986E-2
2.671206875E0,-2.463769997E-3,2.404689821E-2,1.607984304E-2,2.903247885E-2
2.681243875E0,2.976872306E-3,1.609466208E-2,2.266731620E-2,2.795902609E-2
2.691281875E0,7.882361901E-3,-2.440075069E-3,1.757731497E-2,1.941771349E-2
2.701318875E0,1.412958192E-2,-5.362358135E-3,2.476178885E-2,2.900941497E-2
2.711356875E0,6.224785899E-3,1.500406500E-2,2.296552420E-2,2.812979253E-2
2.721393875E0,8.025933886E-3,1.674309089E-3,2.491030812E-2,2.622484273E-2
2.731432250E0,-8.291826881E-3,6.189460494E-4,2.715505421E-2,2.839955029E-2
2.741469250E0,-1.276326121E-2,-2.272049845E-3,3.329170704E-2,3.572675195E-2
2.751507250E0,1.441533718E-2,-9.047780503E-3,2.640661061E-2,3.141613219E-2
2.761544250E0,1.824984984E-2,-6.407173346E-3,2.386365652E-2,3.071779601E-2
2.771582250E0,1.670446272E-2,8.978244318E-3,1.548050344E-2,2.448048064E-2
2.781619250E0,1.964244191E-3,5.302538378E-3,2.296727836E-2,2.365314025E-2
2.791657250E0,-7.382228533E-3,6.012463449E-3,2.536288261E-2,2.709101012E-2
2.801694250E0,-5.239635129E-3,2.627426254E-2,2.012319267E-2,3.350721611E-2
2.811731250E0,-1.645748181E-2,-8.834868763E-4,1.458412528E-2,2.200740709E-2
2.821769250E0,1.479012543E-2,4.687091522E-3,3.628840506E-2,3.946599776E-2
2.831806250E0,-8.756324211E-3,-1.478264282E-2,2.042140067E-2,2.668770031E-2
2.841844250E0,-1.568675027E-2,-4.642095370E-3,2.102132499E-2,2.663680326E-2
2.851881250E0,-1.042984758E-2,1.645401916E-3,1.967529595E-2,2.232949482E-2
2.861919250E0,6.606243630E-3,-7.204637630E-4,3.045288384E-2,3.116953091E-2
2.871956250E0,7.147997296E-3,-3.048624038E-3,3.150070488E-2,3.244506715E-2
2.881994250E0,1.771181007E-2,-1.676095231E-3,4.078257501E-2,4.449422362E-2
2.892031250E0,-8.522727946E-4,-7.022186229E-4,4.110007882E-3,4.255777802E-3
2.902069250E0,-1.815373166E-3,1.626641947E-2,1.863098323E-2,2.479930480E-2
2.912106250E0,1.644364949E-2,7.523703743E-3,2.821164608E-2,3.350965087E-2
2.922144250E0,-8.631262318E-3,3.458975237E-3,2.431798518E-2,2.603512247E-2
2.932181250E0,5.950862118E-3,6.705445298E-3,1.967705011E-2,2.162318334E-2
2.942219250E0,-1.300916861E-2,3.289926751E-3,3.240059137E-2,3.506936565E-2
2.952256250E0,8.344045258E-3,1.543010775E-2,3.644218683E-2,4.044433579E-2
2.962294250E0,5.731952414E-3,-5.464944793E-3,3.000557184E-2,3.103313135E-2
2.972331250E0,1.163848533E-2,2.462765006E-3,4.257767022E-2,4.420834258E-2
2.982369250E0,1.425496815E-2,-6.862452175E-3,3.075167656E-2,3.458269767E-2
2.992406250E0,7.422236279E-3,1.611984165E-2,3.134984672E-2,3.602432200E-2
3.002444250E0,5.561697939E-3,-3.886511768E-3,3.074933767E-2,3.148903341E-2
3.012481250E0,-1.395011351E-2,3.477188400E-3,2.685684621E-2,3.046287404E-2
3.022519250E0,9.086614237E-3,-1.979236817E-4,1.952209890E-2,2.153411427E-2
3.032556250E0,1.381494690E-2,-4.117184426E-3,1.967237234E-2,2.438864898E-2
3.042594250E0,-1.030930814E-2,4.930372238E-3,2.221649587E-2,2.498325627E-2
3.052631250E0,-1.092611630E-2,-2.552035544E-4,1.158859670E-2,1.592924103E-2
3.062669250E0,-1.082384485E-2,9.118837877E-3,2.491147757E-2,2.865118734E-2
3.072706250E0,2.044615997E-3,1.431377835E-2,3.149895072E-2,3.465903348E-2
3.082744250E0,5.729631800E-4,5.580587187E-3,1.727852225E-2,1.816641328E-2
3.092781250E0,-2.028846787E-4,5.397765767E-3,2.159376740E-3,5.817211134E-3
3.102819250E0,-2.097830228E-3,1.735518016E-2,2.551081717E-2,3.092579769E-2
3.112856250E0,-8.020278532E-3,3.272188674E-3,3.015058279E-2,3.137020448E-2
3.122894250E0,-7.477579261E-3,-9.928439702E-3,5.230334401E-2,5.375990980E-2
3.132931250E0,-7.528107427E-3,-1.605649986E-3,2.236559987E-2,2.365313026E-2
3.142969250E0,1.028191302E-2,-1.194252684E-2,2.057050467E-2,2.591307286E-2
3.153006250E0,2.296875844E-2,-9.644963946E-3,2.057225883E-2,3.230800252E-2
3.163043250E0,7.179403240E-3,-5.386994099E-3,1.144124687E-2,1.454185910E-2
3.173081250E0,-1.052526683E-2,1.834404026E-3,2.596222222E-2,2.807460173E-2
3.183119250E0,-5.874090004E-3,1.199495078E-2,4.272911310E-2,4.476785548E-2
3.193156250E0,-4.169206372E-3,-7.426466374E-4,3.165331721E-2,3.193534557E-2
3.203193250E0,1.309153212E-2,1.522977666E-2,2.491732478E-2,3.200324022E-2
3.213231250E0,4.253936182E-3,-5.540026696E-3,1.653475642E-2,1.794954146E-2
3.223268250E0,-6.585919987E-3,-7.848516572E-5,4.213094294E-2,4.264266473E-2
3.233306250E0,-1.444087307E-2,-3.283704034E-2,3.419568658E-2,4.955961071E-2
3.243343250E0,-1.659147441E-2,-2.190989164E-2,2.716148615E-2,3.864022133E-2
3.253381250E0,-4.168924062E-2,-2.376080948E-2,4.287880182E-2,6.435184920E-2
3.263418250E0,-1.498546354E-2,-5.909913336E-3,3.210296810E-2,3.591784729E-2
3.273456250E0,2.038672850E-3,2.554022684E-3,1.982790828E-2,2.009540160E-2
3.283493250E0,2.127431300E-2,6.191785675E-3,1.249257624E-2,2.543617630E-2
3.293531250E0,3.100348142E-2,3.783043460E-2,3.659187555E-2,6.108455614E-2
3.303568250E0,3.921682314E-2,3.023110535E-2,3.853782892E-2,6.274586206E-2
3.313606250E0,4.241429079E-2,2.151805510E-2,1.638389826E-2,5.030338836E-2
3.323643250E0,2.862117501E-2,1.508509005E-2,4.257942438E-2,5.347652739E-2
3.333681250E0,-8.271914371E-3,-3.374880399E-3,2.476646662E-2,2.632854447E-2
3.343718250E0,-3.100042990E-2,-2.268092468E-2,4.572288752E-2,5.971627451E-2
3.353756250E0,-2.941519949E-2,-1.906393758E-2,3.359751642E-2,4.855389569E-2
3.363793250E0,-1.563422583E-2,-2.633018110E-2,3.494413018E-2,4.646288506E-2
3.373831250E0,-2.018473461E-2,-1.690237270E-2,2.072545588E-2,3.350609252E-2
3.383868250E0,-9.140842594E-3,5.901955641E-3,1.997818172E-2,2.274897423E-2
3.393906250E0,1.332824843E-2,2.017010744E-2,1.863215268E-2,3.052265640E-2
3.403943250E0,3.142924551E-2,2.797387911E-2,3.734324276E-2,5.625702770E-2
3.413981250E0,3.138064510E-2,3.064639013E-2,2.222468197E-2,4.917196970E-2
3.424018250E0,9.479040066E-3,1.718422676E-2,4.991417170E-2,5.363370569E-2
3.434056250E0,4.106700551E-3,3.993360498E-3,3.928451836E-2,3.969994081E-2
3.444093250E0,-1.724383639E-2,-4.191448633E-3,2.266848564E-2,2.878851119E-2
3.454131250E0,-1.710122828E-2,-1.365507124E-2,1.383626640E-2,2.589121950E-2
3.464168250E0,-2.068164288E-2,-2.021580708E-2,3.269704521E-2,4.365210159E-2
3.474206250E0,-2.977155074E-2,-2.208980772E-2,3.449389458E-2,5.063727483E-2
3.484243250E0,-1.137496776E-2,-1.862504466E-2,3.988268852E-2,4.546329315E-2
3.494281250E0,1.288502491E-3,1.529298597E-2,2.281875908E-2,2.749966227E-2
3.504318250E0,2.678282869E-2,1.795291635E-2,1.443619072E-2,3.532747827E-2
3.514356250E0,4.276923048E-2,2.537792092E-2,3.419451714E-2,6.035321821E-2
3.524393250E0,2.203388915E-2,2.341478222E-2,2.775673270E-2,4.247564606E-2
3.534430250E0,1.074523634E-2,2.912973660E-2,2.910334647E-2,4.255592125E-2
3.544468250E0,5.752883619E-3,7.626619306E-3,3.000089407E-2,3.148514947E-2
3.554505250E0,-1.216581739E-2,-1.297915138E-2,2.281408131E-2,2.893004993E-2
3.564543250E0,-1.736385506E-3,-1.696443541E-2,2.895014942E-2,3.359937878E-2
3.574580250E0,-2.618751361E-2,-1.270021635E-2,3.119664967E-2,4.266511825E-2
3.584618250E0,-1.508922878E-2,-7.677928624E-3,3.538851857E-2,3.922986949E-2
3.594655250E0,-5.924846577E-3,-4.549700227E-3,1.952443779E-2,2.090471837E-2
3.604693250E0,1.218506752E-2,1.056350214E-2,2.371689141E-2,2.868020896E-2
3.614730250E0,8.449066733E-3,1.066474576E-2,4.018323541E-2,4.242423763E-2
3.624768250E0,1.983121561E-2,5.461564371E-3,3.988444269E-2,4.487621381E-2
3.634805250E0,-1.482812776E-3,1.996609900E-2,2.506525934E-2,3.207976104E-2
3.644843250E0,8.190564984E-3,-4.920559879E-3,2.865837336E-2,3.020926394E-2
3.654880250E0,1.833947212E-3,-7.128486782E-3,2.551432550E-2,2.655483933E-2
3.664918250E0,-1.363164126E-2,-9.987441762E-3,3.778880060E-2,4.139521817E-2
3.674955250E0,-2.137314922E-2,-1.741788242E-2,1.877774835E-2,3.335862659E-2
3.684993250E0,-1.979178802E-2,-1.248044784E-2,3.150128961E-2,3.924038351E-2
3.695030250E0,-4.758939184E-3,-1.207006923E-2,1.069455743E-2,1.681391186E-2
3.705068250E0,3.557886371E-2,-1.622510981E-3,4.527382135E-2,5.760387995E-2
3.715105250E0,3.416238029E-2,2.448275789E-2,2.207382381E-2,4.747343845E-2
3.725142708E0,2.076884862E-2,3.052954632E-2,7.431518734E-2,8.298280147E-2
3.735179708E0,5.912827807E-3,6.295368187E-3,-2.058804631E-2,2.232623668E-2
3.745217708E0,-1.472810383E-2,-1.655328479E-2,8.449285090E-2,8.734970024E-2
3.755254708E0,-1.108177558E-2,-2.222043817E-2,-2.058980048E-2,3.225668158E-2
3.765292708E0,-1.026486930E-2,-5.746479090E-3,5.096082330E-2,5.230100453E-2
3.775329708E0,-7.575999778E-3,-1.562422617E-2,2.970502496E-2,3.440785846E-2
3.785367708E0,-2.933201828E-2,-8.546829438E-3,1.323926568E-2,3.329705311E-2
3.795404708E0,3.551589651E-4,-1.335049982E-2,3.464650691E-2,3.713142098E-2
3.805442708E0,7.425803994E-3,-5.662886747E-3,2.087514460E-2,2.286881093E-2
3.815479708E0,5.985484030E-3,-1.471479228E-3,7.506421566E-2,7.531684900E-2
3.825517708E0,2.464416845E-2,1.402605880E-2,1.863156796E-2,3.392934848E-2
3.835554708E0,7.275480302E-3,1.213539359E-3,2.940974057E-2,3.032058924E-2
3.845592708E0,7.032044269E-3,6.368910628E-3,1.518989682E-2,1.790937282E-2
3.855629708E0,2.714795989E-3,2.237062025E-2,2.806020319E-2,3.598874506E-2
3.865667708E0,9.372278131E-3,4.580571698E-3,2.221941948E-2,2.454636096E-2
3.875704708E0,1.548452340E-3,-1.819806544E-2,6.457840383E-2,6.711138154E-2
3.885741708E0,-9.614770843E-3,-1.179252748E-2,-9.217550755E-3,1.778962520E-2
3.895779708E0,-1.624235453E-2,-1.475013139E-2,1.278786063E-2,2.539507504E-2
3.905816708E0,-3.931402853E-3,-5.348530384E-3,4.332377493E-2,4.382935295E-2
3.915854708E0,3.436303572E-3,4.293427728E-3,3.059906423E-2,3.108929777E-2
3.925891708E0,-2.659003959E-2,-4.286621204E-2,7.475314379E-2,9.018078978E-2
3.935929708E0,-1.599179677E-2,-2.550308788E-3,5.917791545E-2,6.135362513E-2
3.945966708E0,6.810865571E-2,-1.062806362E-2,1.206906241E-1,1.389891056E-1
3.956004708E0,8.496584679E-1,-9.732193440E-1,2.765206754E-1,1.321188513E0
3.966041708E0,-4.359670103E-1,1.744235575E-1,-8.947666669E-1,1.010494037E0
3.976079708E0,-1.299149138E0,1.603058756E0,2.825602645E-1,2.082648833E0
3.986116708E0,-9.097311535E-1,1.905381002E-1,4.300317210E-1,1.024130275E0
3.996154708E0,4.397658915E-3,-2.547211363E-2,5.659660363E-1,5.665560186E-1
4.006191708E0,2.980815522E-1,-4.483549945E-1,3.768472016E-1,6.571823386E-1
4.016229708E0,-8.058726899E-1,-9.947255494E-1,-1.148165113E-1,1.285337521E0
4.026266708E0,-1.174335788E0,-1.337959739E0,1.174945360E-1,1.784098028E0
4.036304708E0,-6.614297256E-1,-1.698550074E0,6.216923404E-1,1.925892780E0
4.046341708E0,-4.284836341E-1,-1.141268395E0,-2.143706203E-1,1.237758675E0
4.056379708E0,-1.773070937E-1,4.659708646E-1,-3.368265188E-1,6.016799447E-1
4.066416708E0,1.414231332E-2,1.938325530E0,-3.060368353E-1,1.962387426E0
4.076454708E0,8.991547099E-1,2.468954357E0,-9.832093120E-2,2.629426138E0
4.086491708E0,1.326493496E0,1.612165648E0,1.081150174E-3,2.087741421E0
4.096529708E0,4.587671314E-1,-1.873730389E-1,7.124130607E-2,5.006508367E-1
4.106566708E0,-3.260484923E-1,-8.471125171E-1,1.954285651E-1,9.284931664E-1
4.116604708E0,-6.476805827E-1,-6.003493820E-1,-2.094472647E-2,8.833731936E-1
4.126641708E0,9.752744576E-2,-1.583158489E-1,-1.622134566E-2,1.866511257E-1
4.136679708E0,6.187373769E-1,2.331039663E-1,-1.103217566E-1,6.703314782E-1
4.146716708E0,5.200017684E-1,1.922637231E-1,2.555391115E-1,6.104649178E-1
4.156754708E0,-7.230321890E-1,-2.502487700E-1,2.737052411E-1,8.125974109E-1
4.166791708E0,-2.227257250E-1,-2.425255849E-1,-3.474941790E-2,3.311086377E-1
4.176829708E0,3.268428000E-1,-6.346166604E-1,1.475413308E0,1.639026830E0
4.186866708E0,5.024803309E-1,-7.334588709E-1,3.373790222E0,3.488969598E0
4.196903708E0,6.568713824E-1,-3.303474932E-2,4.920803270E0,4.964562028E0
4.206941708E0,3.854987419E-1,4.035693426E-1,5.318238518E0,5.347442232E0
4.216978708E0,-2.338033664E-1,1.716930357E-1,4.884642919E0,4.893248303E0
4.227016708E0,-1.147066786E0,-8.284557331E-1,3.938817780E0,4.185258250E0
4.237053708E0,-1.736047098E0,-1.453429823E0,2.635595033E0,3.474576083E0
4.247091708E0,-1.294944551E0,-1.315441381E0,1.580247452E0,2.429907288E0
4.257128708E0,-7.438403830E-1,-1.053908727E0,1.243227975E0,1.791546237E0
4.267166708E0,-8.120537084E-1,-7.154819718E-1,1.918805916E0,2.202989292E0
4.277203708E0,-1.084962339E0,-3.374676660E-1,2.933926408E0,3.146259981E0
4.287241708E0,-1.494557676E0,9.308884263E-2,3.803651204E0,4.087802669E0
4.297278708E0,-1.959033591E0,5.579100350E-1,3.910149466E0,4.408893860E0
4.307316708E0,-2.650412755E0,1.211304224E0,3.695138576E0,4.705953122E0
4.317353708E0,-3.486365495E0,1.125132638E0,4.126713377E0,5.518190928E0
4.327391708E0,-4.707053331E0,-1.289118093E-1,4.769607722E0,6.702397119E0
4.337428708E0,-5.536735518E0,-1.247174261E0,4.537099623E0,7.266096395E0
4.347466708E0,-6.163925995E0,-2.216577712E0,3.602955467E0,7.475860387E0
4.357503708E0,-6.014257740E0,-1.709864436E0,1.745381008E0,6.491632107E0
4.367541708E0,-4.565436984E0,-7.944225991E-1,3.812466466E-1,4.649695810E0
4.377578708E0,-3.370353228E0,-1.970660779E-1,-3.977299476E-1,3.399456579E0
4.387616708E0,-3.169297011E0,-9.881823689E-2,-7.361007160E-1,3.255157884E0
4.397653708E0,-3.810718441E0,-3.410581487E-1,-6.441070569E-1,3.879789891E0
4.407691708E0,-4.723013014E0,-5.295741355E-1,-3.984263510E-1,4.769281314E0
4.417728708E0,-5.157121999E0,-4.706879961E-1,-3.192474496E-1,5.188388327E0
4.427766708E0,-5.184593387E0,-1.854304111E-1,-2.598444164E-1,5.194411627E0
4.437803708E0,-5.095550233E0,-4.732093155E-1,-2.023838282E-2,5.117515884E0
4.447841708E0,-4.400339389E0,-1.226267542E0,3.805128211E-1,4.583831239E0
4.457878708E0,-3.327557165E0,-1.004373309E0,7.137333620E-1,3.548354230E0
4.467916708E0,-2.488471778E0,-4.073111951E-1,8.841364288E-1,2.672094951E0
4.477953708E0,-1.373584778E0,-3.751509243E-1,8.680437219E-1,1.667625036E0
4.487991708E0,-5.508268275E-1,-6.696026713E-1,8.072309250E-1,1.184651720E0
4.498028708E0,-3.145856473E-1,-8.585267937E-1,6.442368650E-1,1.118513980E0
4.508065708E0,-5.767714716E-1,-6.311835408E-1,3.651726508E-1,9.297360150E-1
4.518103708E0,-1.051527449E0,-2.539241105E-1,2.149454015E-1,1.102900247E0
4.528140708E0,-1.217605184E0,-1.655259043E-1,3.457610643E-1,1.276523373E0
4.538178708E0,-8.167111619E-1,-3.153496957E-1,6.778501689E-1,1.107223286E0
4.548215708E0,3.494347237E-2,-4.866579115E-1,9.515174031E-1,1.069318632E0
4.558253708E0,1.303396702E0,-5.399394947E-1,9.078275925E-1,1.677655673E0
4.568290708E0,2.504887836E0,-4.682836211E-1,7.406825942E-1,2.653745151E0
4.578328708E0,2.717885823E0,-2.596052653E-1,5.776984745E-1,2.790704887E0
4.588365708E0,2.137467370E0,5.521233380E-2,5.793818879E-1,2.215287460E0
4.598403708E0,1.887910544E0,7.167400002E-2,7.316919154E-1,2.026009981E0
4.608440708E0,2.303554314E0,-2.510285693E-1,8.380282098E-1,2.464075709E0
4.618478708E0,2.932873909E0,-6.092102891E-1,8.629794484E-1,3.117309749E0
4.628515708E0,3.187736498E0,-7.974877095E-1,7.936074972E-1,3.380453148E0
4.638553708E0,3.226229303E0,-6.143757194E-1,5.052216518E-1,3.322839442E0
4.648590708E0,2.905806563E0,-3.164027792E-1,4.873736107E-1,2.963335205E0
4.658628708E0,2.572917267E0,-1.706995207E-1,7.089363062E-1,2.674253592E0
4.668665708E0,2.954333775E0,-6.126116145E-1,9.935430962E-1,3.176556143E0
4.678703708E0,3.584192922E0,-1.684968161E0,1.255946254E0,4.154871550E0
4.688740708E0,4.101133855E0,-2.245461788E0,9.077200037E-1,4.762914354E0
4.698778708E0,4.470741327E0,-2.097439524E0,-8.074361622E-2,4.938957390E0
4.708815708E0,4.551703629E0,-1.677506529E0,-8.291091594E-1,4.921326658E0
4.718853708E0,4.453807206E0,-1.363499939E0,-8.609890562E-1,4.736753410E0
4.728890333E0,4.428182952E0,-1.365112016E0,-3.144720286E-1,4.644483581E0
4.738928333E0,4.597895171E0,-1.574366323E0,4.395819783E-1,4.879805492E0
4.748965333E0,4.963687334E0,-1.840761375E0,9.872093922E-1,5.385274067E0
4.759003333E0,5.084630558E0,-2.092641299E0,1.029861322E0,5.594035204E0
4.769040333E0,5.095137420E0,-2.204526016E0,7.726604319E-1,5.605119484E0
4.779077333E0,5.196095445E0,-2.122110681E0,2.243518174E-1,5.617214199E0
4.789115333E0,4.881274338E0,-1.993288919E0,-1.307715163E-1,5.274195774E0
4.799152333E0,4.319294641E0,-1.910629170E0,-5.937087357E-2,4.723381725E0
4.809190333E0,4.062809450E0,-1.931448766E0,3.666765547E-1,4.513465039E0
4.819227333E0,4.088752961E0,-2.235410424E0,9.028703231E-1,4.746591973E0
4.829265333E0,4.245914423E0,-2.654299691E0,1.112721046E0,5.129448729E0
4.839302333E0,4.333778779E0,-2.856427996E0,9.354296663E-1,5.274073194E0
4.849340333E0,4.106872897E0,-3.080043064E0,5.103502446E-1,5.158830066E0
4.859377333E0,3.516078414E0,-3.210766341E0,-2.593415558E-2,4.761564920E0
4.869415333E0,2.886371588E0,-3.182462894E0,-2.383547294E-1,4.303024981E0
4.879452333E0,2.441825323E0,-3.114983686E0,-9.967339218E-2,3.959238444E0
4.889490333E0,2.261570283E0,-3.167422101E0,2.954820263E-1,3.903149054E0
4.899527333E0,2.267693779E0,-3.247619587E0,8.140028778E-1,4.043769126E0
4.909565333E0,2.331256814E0,-3.203527488E0,1.125106618E0,4.118641961E0
4.919602333E0,2.433600922E0,-3.181399870E0,1.124361975E0,4.160277446E0
4.929640333E0,2.529511631E0,-3.251392795E0,8.296862796E-1,4.202185565E0
4.939677333E0,2.530705632E0,-3.372389229E0,4.953764024E-1,4.245336016E0
4.949715333E0,2.254478195E0,-3.337276114E0,2.535969588E-1,4.035392820E0
4.959752333E0,1.862234397E0,-3.241357219E0,2.271482483E-1,3.745118142E0
4.969790333E0,1.387818216E0,-3.243393804E0,5.127686530E-1,3.564908760E0
4.979827333E0,1.072655632E0,-3.338436202E0,7.677756679E-1,3.589599679E0
4.989865333E0,9.730662932E-1,-3.411737482E0,7.469025698E-1,3.625558454E0
4.999902333E0,8.730408986E-1,-3.447506654E0,4.145766529E-1,3.580415666E0
5.009940333E0,5.744500539E-1,-3.587374392E0,-9.656267345E-2,3.634359949E0
5.019977333E0,1.826670170E-2,-3.806118729E0,-5.496081582E-1,3.845639424E0
5.030015333E0,-5.767399697E-1,-3.940906990E0,-8.680551240E-1,4.076382783E0
5.040052333E0,-9.871004878E-1,-3.951333160E0,-9.784417847E-1,4.188645299E0
5.050089333E0,-1.252499467E0,-3.989513724E0,-9.363827625E-1,4.285065618E0
5.060127333E0,-1.278802289E0,-4.077679211E0,-7.925298554E-1,4.346367060E0
5.070164333E0,-1.160378777E0,-4.202827168E0,-6.247287995E-1,4.404602273E0
5.080202333E0,-1.133296959E0,-4.207792039E0,-5.804563138E-1,4.396226265E0
5.090239333E0,-1.239958797E0,-4.089370719E0,-5.053307024E-1,4.303000095E0
5.100277333E0,-1.683991237E0,-3.845686253E0,-3.446036080E-1,4.212348619E0
5.110314333E0,-2.418847520E0,-3.515450715E0,-6.716667384E-2,4.267754494E0
5.120352333E0,-2.934978322E0,-3.409210315E0,2.442706499E-1,4.505161581E0
5.130389333E0,-3.122420175E0,-3.681818034E0,3.828601858E-1,4.842713465E0
5.140427333E0,-3.137096102E0,-3.960392836E0,1.412178594E-1,5.054307653E0
5.150464333E0,-2.949986955E0,-4.031078657E0,-3.484747571E-1,5.007339895E0
5.160502333E0,-2.953317529E0,-3.941829681E0,-8.177208298E-1,4.992872221E0
5.170539333E0,-3.347086865E0,-3.825237955E0,-1.130214161E0,5.206997210E0
5.180577333E0,-3.860038828E0,-3.781549314E0,-1.311401832E0,5.560556603E0
5.190614333E0,-4.279844939E0,-3.625464324E0,-1.506537744E0,5.807815444E0
5.200652333E0,-4.524195110E0,-3.214164158E0,-1.641659589E0,5.787420741E0
5.210689333E0,-4.616428798E0,-2.717395826E0,-1.604817452E0,5.592056328E0
5.220727333E0,-4.522316985E0,-2.322550895E0,-1.172883340E0,5.217398672E0
5.230764333E0,-4.063652911E0,-2.060658783E0,-5.039112908E-1,4.584050195E0
5.240802333E0,-3.360839224E0,-1.927055168E0,8.698844254E-2,3.875093405E0
5.250839333E0,-2.747689373E0,-1.814156544E0,3.061233741E-1,3.306761615E0
5.260877333E0,-2.564217487E0,-1.518617215E0,1.124732396E-1,2.982291031E0
5.270914333E0,-2.936405919E0,-9.900926542E-1,-3.403313398E-2,3.099019432E0
5.280952333E0,-3.640893372E0,-4.529235703E-1,2.668607828E-1,3.678649070E0
5.290989333E0,-4.208779049E0,-1.262805623E-1,9.674089658E-1,4.320375906E0
5.301027333E0,-4.401929539E0,-2.534346986E-1,1.692706659E0,4.722972437E0
5.311064333E0,-4.426063629E0,-5.931064725E-1,1.802335520E0,4.815623310E0
5.321101333E0,-4.211690085E0,-6.621685213E-1,1.214176669E0,4.432947722E0
5.331139333E0,-3.925755100E0,-3.814442825E-1,3.675454509E-1,3.961330901E0
5.341176333E0,-3.913927645E0,2.773743689E-2,-2.520193800E-1,3.922131148E0
5.351214333E0,-4.301602428E0,3.832621819E-1,-2.453532618E-1,4.325606498E0
5.361251333E0,-4.637993037E0,7.266691571E-1,2.782011652E-1,4.702810156E0
5.371289333E0,-4.322067683E0,8.370604956E-1,9.297628373E-1,4.499488667E0
5.381326333E0,-3.816980517E0,1.005641570E0,1.357986599E0,4.174300281E0
5.391364333E0,-3.485353342E0,1.351565187E0,1.235921879E0,3.937247677E0
5.401401333E0,-3.441301881E0,1.728505944E0,8.000142914E-1,3.933232043E0
5.411439333E0,-3.689828427E0,2.026268384E0,3.726699507E-1,4.226047832E0
5.421476333E0,-4.258273683E0,2.195812495E0,2.274555194E-1,4.796480302E0
5.431514333E0,-4.655222442E0,2.266570237E0,4.025118005E-1,5.193308423E0
5.441551333E0,-4.740476016E0,2.251091487E0,7.605771607E-1,5.302641168E0
5.451589333E0,-4.701172202E0,2.254754768E0,1.152515441E0,5.339778177E0
5.461626333E0,-4.526561479E0,2.289877238E0,1.288642130E0,5.233917761E0
5.471664333E0,-4.069239340E0,2.338987418E0,1.119117315E0,4.825141917E0
5.481701333E0,-3.405979436E0,2.483887269E0,8.486654645E-1,4.300072669E0
5.491739333E0,-2.644348900E0,2.880194589E0,8.323663509E-1,3.997616254E0
5.501776333E0,-2.021911916E0,3.347756664E0,1.360227252E0,4.140751219E0
5.511814333E0,-1.687737402E0,3.583077857E0,2.139102105E0,4.501406701E0
5.521851333E0,-1.617689221E0,3.556383564E0,2.651099510E0,4.721558120E0
5.531889333E0,-1.487116217E0,3.529141386E0,2.679068497E0,4.673731013E0
5.541926333E0,-1.251540670E0,3.595085700E0,2.369509299E0,4.483923455E0
5.551964333E0,-1.277766601E0,3.751875864E0,2.015124761E0,4.446345442E0
5.562001333E0,-1.227853745E0,4.018469721E0,1.953982181E0,4.633979940E0
5.572038333E0,-5.180462768E-1,4.132414412E0,2.269908997E0,4.743174852E0
5.582076333E0,7.000921002E-1,4.097260367E0,2.771125891E0,4.995679150E0
5.592113333E0,2.127931876E0,4.168291174E0,3.223127355E0,5.682543033E0
5.602151333E0,3.145420198E0,4.341353554E0,3.603023880E0,6.459318848E0
5.612188333E0,3.579667177E0,4.441786500E0,3.812969327E0,6.861648453E0
5.622226333E0,3.734905490E0,4.471511990E0,3.828305404E0,6.971360037E0
5.632263333E0,3.888174461E0,4.514127082E0,3.750250338E0,7.039859483E0
5.642301333E0,4.106894240E0,4.246767824E0,3.643729856E0,6.941065085E0
5.652338333E0,4.286784414E0,4.111937463E0,3.448913494E0,6.868737483E0
5.662376333E0,4.416319829E0,3.925214818E0,3.364118927E0,6.799153503E0
5.672413333E0,4.126617483E0,3.536632254E0,3.357420357E0,6.388193094E0
5.682451333E0,3.554962983E0,3.150828288E0,3.300916373E0,5.784594161E0
5.692488333E0,2.861901575E0,2.823445607E0,3.262924674E0,5.177741124E0
5.702526333E0,2.095654808E0,2.343300324E0,3.172025614E0,4.465934614E0
5.712563333E0,1.556757433E0,1.953307997E0,2.887218264E0,3.817713339E0
5.722601333E0,1.471716405E0,1.623847800E0,2.524035421E0,3.342691380E0
5.732640333E0,1.642260975E0,1.240915986E0,2.124840746E0,2.958351195E0
5.742678333E0,1.715282758E0,8.787020266E-1,1.903911889E0,2.709094438E0
5.752715333E0,1.597580061E0,6.603523761E-1,1.926966875E0,2.588731089E0
5.762753333E0,1.462675587E0,5.340098333E-1,2.139925978E0,2.646482489E0
5.772790333E0,1.408595128E0,3.299718279E-1,2.406228059E0,2.807660078E0
5.782828333E0,1.536811411E0,1.403203118E-1,2.552333021E0,2.982596680E0
5.792865333E0,1.809533735E0,-3.796538651E-2,2.445222848E0,3.042197969E0
5.802903333E0,2.026623018E0,-2.923689687E-1,2.113756179E0,2.942897493E0
5.812940333E0,2.074513907E0,-5.927164632E-1,1.743830327E0,2.774142203E0
5.822977333E0,2.191964150E0,-8.599517602E-1,1.470734950E0,2.776199770E0
5.833015333E0,2.315911235E0,-1.075497671E0,1.310848393E0,2.870272391E0
5.843052333E0,2.377495280E0,-1.230980397E0,1.235134844E0,2.948449529E0
5.853090333E0,2.463908210E0,-1.363537946E0,1.179537764E0,3.053094943E0
5.863127333E0,2.547773947E0,-1.532514292E0,1.115730608E0,3.175627014E0
5.873165333E0,2.601919164E0,-1.751244596E0,8.964307845E-1,3.261967064E0
5.883202333E0,2.509608586E0,-1.961239745E0,6.094775069E-1,3.242847425E0
5.893240333E0,2.258625917E0,-2.115269439E0,4.072872216E-1,3.121159834E0
5.903277333E0,2.019416325E0,-2.285518724E0,3.152251500E-1,3.066105840E0
5.913315333E0,1.929449311E0,-2.542597407E0,2.583077681E-1,3.202233458E0
5.923352333E0,1.886785394E0,-2.729272106E0,1.660656023E-1,3.322117267E0
5.933390333E0,1.859068861E0,-2.753901747E0,8.302753866E-3,3.322676752E0
5.943427333E0,1.833284102E0,-2.751717228E0,-8.125700176E-2,3.307488624E0
5.953465333E0,1.808224543E0,-2.828433282E0,-8.297812968E-2,3.358064353E0
5.963502333E0,1.688140860E0,-2.874634472E0,-2.856306374E-2,3.333790449E0
5.973540333E0,1.481815424E0,-3.020843514E0,-4.080947220E-2,3.364957340E0
5.983577333E0,1.262647163E0,-3.225603651E0,-2.191726461E-1,3.470854854E0
5.993615333E0,1.135208998E0,-3.336469198E0,-4.579939833E-1,3.553939317E0
6.003652333E0,1.144904998E0,-3.317164031E0,-7.262589750E-1,3.583550860E0
6.013690333E0,1.046313633E0,-3.230279669E0,-8.781848404E-1,3.507233607E0
6.023727333E0,8.781865945E-1,-3.143108793E0,-9.083155426E-1,3.387533278E0
6.033764333E0,7.406118429E-1,-3.030268056E0,-7.743625563E-1,3.214135617E0
6.043802333E0,7.706728171E-1,-2.891639344E0,-5.840596604E-1,3.049039254E0
6.053839333E0,8.529082042E-1,-2.855455604E0,-5.008751240E-1,3.021912474E0
6.063877333E0,7.997195917E-1,-2.895978563E0,-5.289514071E-1,3.050579101E0
6.073914333E0,6.778646408E-1,-2.846404114E0,-6.213333213E-1,2.991249229E0
6.083952333E0,8.016519503E-1,-2.759977589E0,-6.989458998E-1,2.957811271E0
6.093989333E0,1.074620735E0,-2.674419376E0,-7.936066201E-1,2.989505007E0
6.104027333E0,1.271497509E0,-2.537882212E0,-7.939437121E-1,2.947524157E0
6.114064333E0,1.245262660E0,-2.330447559E0,-6.832413018E-1,2.729191015E0
6.124102333E0,1.086153929E0,-2.194532540E0,-4.520150591E-1,2.489984144E0
6.134139333E0,9.097079109E-1,-2.260530648E0,-3.151087904E-1,2.457002410E0
6.144177333E0,8.079059860E-1,-2.475527505E0,-4.127800959E-1,2.636538624E0
6.154214333E0,7.486429936E-1,-2.575425430E0,-6.853077078E-1,2.768199619E0
6.164252333E0,6.693747760E-1,-2.565856462E0,-9.682259680E-1,2.822967144E0
6.174289333E0,4.022001439E-1,-2.509378790E0,-9.878864998E-1,2.726658505E0
6.184327333E0,1.207211758E-1,-2.459827731E0,-7.288951921E-1,2.568387484E0
6.194364333E0,-5.589207262E-3,-2.440146003E0,-4.216422822E-1,2.476312979E0
6.204402333E0,8.611925393E-3,-2.450719523E0,-3.082950300E-1,2.470049832E0
6.214439333E0,3.824108273E-2,-2.553086143E0,-4.151873946E-1,2.586907769E0
6.224477333E0,-3.280273363E-2,-2.608245267E0,-6.493829995E-1,2.688069506E0
6.234514333E0,-3.611915740E-1,-2.627686089E0,-8.560623385E-1,2.787119708E0
6.244552333E0,-8.401875865E-1,-2.622390266E0,-9.367876822E-1,2.908679606E0
6.254589333E0,-1.252327412E0,-2.663506132E0,-8.702188861E-1,3.069180636E0
6.264627333E0,-1.448817978E0,-2.713596890E0,-6.663329083E-1,3.147488071E0
6.274664333E0,-1.472751509E0,-2.794097847E0,-5.297735256E-1,3.202598909E0
6.284701333E0,-1.442078916E0,-2.785879585E0,-6.427095723E-1,3.202154315E0
6.294739333E0,-1.468205299E0,-2.827287812E0,-9.588483498E-1,3.326946548E0
6.304776333E0,-1.718391284E0,-2.968525552E0,-1.291782377E0,3.665203169E0
6.314814333E0,-2.193433263E0,-3.092418112E0,-1.530101731E0,4.088448430E0
6.324851333E0,-2.679712275E0,-3.240209996E0,-1.564273151E0,4.486286793E0
6.334889333E0,-3.006190392E0,-3.354680936E0,-1.340810403E0,4.699876317E0
6.344926333E0,-2.991111300E0,-3.334810343E0,-1.058249262E0,4.602998841E0
6.354964333E0,-2.535420535E0,-3.113989660E0,-1.004607198E0,4.139386973E0
6.365001333E0,-2.035251462E0,-2.704382263E0,-1.260251851E0,3.611670897E0
6.375039333E0,-1.715481417E0,-2.296731344E0,-1.500155801E0,3.235478139E0
6.385076333E0,-1.540484193E0,-2.052365677E0,-1.450488381E0,2.947747100E0
6.395114333E0,-1.436030556E0,-1.974815226E0,-1.091864027E0,2.674742228E0
6.405151333E0,-1.520398569E0,-1.951277259E0,-4.955442175E-1,2.522827545E0
6.415189333E0,-1.688924241E0,-1.798683642E0,1.694406152E-1,2.473143355E0
6.425226333E0,-1.807106263E0,-1.576706963E0,5.654096738E-1,2.464006086E0
6.435264333E0,-1.809741603E0,-1.250284395E0,6.102738976E-1,2.282719862E0
6.445301333E0,-1.876436115E0,-8.690190375E-1,4.378745914E-1,2.113750396E0
6.455339333E0,-2.082297574E0,-7.734503907E-1,1.914530432E-1,2.229538733E0
6.465376333E0,-2.435234342E0,-8.410898119E-1,-5.074184507E-2,2.576892141E0
6.475414333E0,-2.808049303E0,-8.863010681E-1,-1.453003854E-1,2.948182945E0
6.485451333E0,-3.149509740E0,-6.537730891E-1,9.002957940E-3,3.216661610E0
6.495488333E0,-3.188859748E0,-2.131508911E-1,3.652895951E-1,3.216783530E0
6.505526333E0,-2.942586426E0,5.005450487E-2,8.089473751E-1,3.052165819E0
6.515563333E0,-2.676381994E0,2.278513759E-1,1.167332578E0,2.928754372E0
6.525601333E0,-2.766490803E0,5.072032732E-1,1.129242938E0,3.030827632E0
6.535638333E0,-3.353724332E0,7.906733644E-1,8.048882380E-1,3.538428513E0
6.545676333E0,-4.174069977E0,1.016601591E0,5.611119702E-1,4.332572632E0
6.555713333E0,-4.838811858E0,1.160276451E0,6.832068032E-1,5.022659970E0
6.565751333E0,-5.134700266E0,1.444758695E0,1.002562426E0,5.427486151E0
6.575788333E0,-4.844814317E0,1.621723507E0,1.272426047E0,5.265100279E0
6.585826333E0,-4.323625381E0,1.793266196E0,1.323811963E0,4.864362055E0
6.595863333E0,-3.780976871E0,2.101034392E0,1.153666173E0,4.476726176E0
6.605901333E0,-3.523410822E0,2.406602865E0,9.882782632E-1,4.379823638E0
6.615938333E0,-3.624876971E0,2.726995200E0,9.834215659E-1,4.641481859E0
6.625976333E0,-3.805166218E0,2.954399849E0,1.305729448E0,4.991262145E0
6.636013333E0,-3.813585916E0,3.027196514E0,1.755114284E0,5.175691492E0
6.646051333E0,-3.588139207E0,2.962894683E0,1.991582701E0,5.061609382E0
6.656088333E0,-3.396874444E0,3.082412941E0,1.893518463E0,4.962402412E0
6.666126333E0,-3.231313457E0,3.517774399E0,1.568120327E0,5.027437194E0
6.676163333E0,-2.834021466E0,3.825160187E0,1.578390961E0,5.015460712E0
6.686201333E0,-2.442356689E0,3.834169577E0,2.038900709E0,4.982276452E0
6.696238333E0,-2.290002076E0,3.591466273E0,2.491141325E0,4.934422418E0
6.706275333E0,-2.187611337E0,3.424470963E0,2.590635792E0,4.819132551E0
6.716313333E0,-1.819228272E0,3.464174142E0,2.247117720E0,4.512164895E0
6.726349333E0,-1.023149815E0,3.593705757E0,1.843722990E0,4.166637862E0
6.736387333E0,-1.184458049E-1,3.726935735E0,1.689182834E0,4.093582542E0
6.746424333E0,4.569724017E-1,3.828135835E0,1.924995194E0,4.309182549E0
6.756462333E0,7.030865324E-1,3.841620099E0,2.449467634E0,4.610018150E0
6.766499333E0,9.722768459E-1,3.780553533E0,2.809785926E0,4.809657392E0
6.776537333E0,1.358400144E0,3.686649004E0,2.949490526E0,4.912853162E0
6.786574333E0,1.712933785E0,3.639165519E0,2.986873530E0,5.009898334E0
6.796612333E0,1.915110622E0,3.631952394E0,3.066831865E0,5.124859469E0
6.806649333E0,2.079555961E0,3.492739545E0,3.206821225E0,5.177594508E0
6.816687333E0,2.231478318E0,3.222628587E0,3.207857351E0,5.065094203E0
6.826724333E0,2.355634295E0,2.979458091E0,2.992374591E0,4.835337541E0
6.836762333E0,2.562744573E0,2.845338752E0,2.699565327E0,4.685217744E0
6.846799333E0,2.838137321E0,2.692566209E0,2.542891522E0,4.665965445E0
6.856837333E0,3.055926223E0,2.492529454E0,2.651497706E0,4.752034116E0
6.866874333E0,3.101678347E0,2.252195442E0,2.863822970E0,4.784796221E0
6.876912333E0,3.122107349E0,2.074483355E0,2.915858511E0,4.749027937E0
6.886949333E0,3.219272286E0,1.898378084E0,2.821075730E0,4.682523003E0
6.896987333E0,3.233859335E0,1.617952638E0,2.649411419E0,4.482744450E0
6.907024333E0,3.192123663E0,1.324644606E0,2.366847062E0,4.188830604E0
6.917062333E0,3.106181580E0,1.091999098E0,2.117271525E0,3.914545280E0
6.927099333E0,2.973923117E0,8.252087742E-1,2.065989690E0,3.713960369E0
6.937136333E0,2.750579944E0,5.661981708E-1,2.153949355E0,3.539176207E0
6.947174333E0,2.514978669E0,2.755190474E-1,2.210639865E0,3.359755506E0
6.957211333E0,2.223662053E0,4.193681538E-2,2.105955409E0,3.062920143E0
6.967249333E0,1.836920047E0,-1.499372274E-1,1.887664815E0,2.638187803E0
6.977286333E0,1.665450886E0,-4.199628156E-1,1.657954317E0,2.387238559E0
6.987324333E0,1.771081129E0,-7.429396194E-1,1.492775153E0,2.432501860E0
6.997361333E0,1.977868642E0,-9.753208333E-1,1.400913933E0,2.612618407E0
7.007399333E0,2.219897615E0,-1.037327632E0,1.350119755E0,2.797644972E0
7.017436333E0,2.437249292E0,-1.011486447E0,1.386488267E0,2.980878840E0
7.027474333E0,2.540835349E0,-1.099546684E0,1.517807083E0,3.157306688E0
7.037511333E0,2.602992128E0,-1.192429705E0,1.545612055E0,3.253670734E0
7.047549333E0,2.589472196E0,-1.359993948E0,1.336177947E0,3.215636997E0
7.057586333E0,2.606862693E0,-1.637491693E0,1.014985128E0,3.241497641E0
7.067624333E0,2.628359981E0,-1.885796045E0,7.537569684E-1,3.321543689E0
7.077661333E0,2.496668990E0,-2.072411102E0,6.011817697E-1,3.299948991E0
7.087699333E0,2.161772637E0,-2.140686116E0,5.696553370E-1,3.095206808E0
7.097736333E0,1.695325626E0,-2.098556927E0,6.855413041E-1,2.783529600E0
7.107774333E0,1.436411502E0,-2.163783202E0,8.588378656E-1,2.735477697E0
7.117811333E0,1.568194879E0,-2.322332793E0,9.365593484E-1,2.954591037E0
7.127849333E0,1.851274376E0,-2.533435990E0,8.613135767E-1,3.253824797E0
7.137886333E0,2.067922195E0,-2.595252753E0,5.887023497E-1,3.370194284E0
7.147923333E0,2.000360834E0,-2.527263669E0,3.049551004E-1,3.237514900E0
7.157961333E0,1.750305241E0,-2.522107594E0,1.981793877E-1,3.076340394E0
7.167998333E0,1.501365882E0,-2.534051117E0,2.492211950E-1,2.955947526E0
7.178036333E0,1.354808637E0,-2.629150817E0,4.319683188E-1,2.989069603E0
7.188073333E0,1.458862471E0,-2.774614339E0,4.783253369E-1,3.171050232E0
7.198111333E0,1.602461609E0,-2.788354712E0,3.319984728E-1,3.233114318E0
7.208148333E0,1.607126226E0,-2.686146551E0,1.126357922E-1,3.132239586E0
7.218186333E0,1.552769924E0,-2.559758985E0,1.958875716E-2,2.993967972E0
7.228223333E0,1.471594783E0,-2.533021422E0,-1.533520013E-2,2.929509157E0
7.238261333E0,1.370216928E0,-2.609570830E0,9.478409663E-2,2.948955472E0
7.248298333E0,1.250527639E0,-2.621674567E0,1.959967683E-1,2.911256025E0
7.258336333E0,1.074707127E0,-2.576466234E0,1.407148527E-1,2.795169822E0
7.268373333E0,1.049293081E0,-2.614884780E0,-4.911851183E-2,2.817987050E0
7.278411333E0,1.266811843E0,-2.616945339E0,-2.407210976E-1,2.917389552E0
7.288448333E0,1.500928510E0,-2.568309368E0,-3.841787329E-1,2.999432064E0
7.298486333E0,1.585216708E0,-2.415504082E0,-3.029068208E-1,2.905051553E0
7.308523333E0,1.523643773E0,-2.315361158E0,-2.548801303E-2,2.771829230E0
7.318561333E0,1.325362352E0,-2.296648899E0,2.923542045E-1,2.667705476E0
7.328598333E0,1.079060087E0,-2.329250634E0,4.676477364E-1,2.609305194E0
7.338636333E0,8.912133139E-1,-2.455076868E0,4.115140276E-1,2.644051322E0
7.348673333E0,7.099939214E-1,-2.625593371E0,1.985305130E-1,2.727131512E0
7.358710333E0,4.555020462E-1,-2.778361820E0,-7.292764306E-2,2.816397514E0
7.368748333E0,2.341825949E-1,-2.884821491E0,-2.287876613E-1,2.903339511E0
7.378785333E0,1.425703204E-1,-2.901542773E0,-2.695972797E-1,2.917526256E0
7.388823333E0,-6.476522237E-3,-2.888353794E0,-3.188410681E-1,2.905905919E0
7.398860333E0,-2.042257011E-1,-2.854498415E0,-3.965289295E-1,2.889135603E0
7.408898333E0,-2.639564708E-1,-2.852640755E0,-4.869555348E-1,2.905917753E0
7.418935333E0,-2.592121862E-1,-2.967368388E0,-5.657146060E-1,3.031913443E0
7.428973333E0,-2.463592753E-1,-3.148262529E0,-5.163690761E-1,3.199826069E0
7.439010333E0,-3.538406007E-1,-3.377932389E0,-4.263804272E-1,3.423073278E0
7.449048333E0,-7.335215092E-1,-3.534873412E0,-3.796294530E-1,3.630082969E0
7.459085333E0,-1.390414672E0,-3.500499970E0,-3.985403717E-1,3.787556921E0
7.469123333E0,-2.076119991E0,-3.430442140E0,-4.832590713E-1,4.038780363E0
7.479160333E0,-2.494258183E0,-3.443696609E0,-5.778670205E-1,4.291188706E0
7.489198333E0,-2.601732053E0,-3.522970819E0,-6.824051499E-1,4.432381962E0
7.499235333E0,-2.716935650E0,-3.707765638E0,-8.168399468E-1,4.668671423E0
7.509273333E0,-2.964601486E0,-3.730430031E0,-9.408272311E-1,4.856966755E0
7.519310333E0,-3.035578498E0,-3.466301360E0,-1.033892977E0,4.722172870E0
7.529348333E0,-2.840591982E0,-3.307092202E0,-9.837112954E-1,4.469173252E0
7.539385333E0,-2.528191037E0,-3.222831486E0,-8.534122342E-1,4.184101474E0
7.549423333E0,-2.289246470E0,-2.923853409E0,-7.706720862E-1,3.792558981E0
7.559460333E0,-2.187505648E0,-2.522321017E0,-7.456819636E-1,3.421012404E0
7.569497333E0,-2.106293232E0,-2.239191234E0,-6.631897375E-1,3.144879837E0
7.579535333E0,-2.137911904E0,-1.936305463E0,-4.613874149E-1,2.921099879E0
7.589572333E0,-2.297833398E0,-1.533141114E0,-1.680858153E-1,2.767456024E0
7.599610333E0,-2.358461862E0,-1.226800808E0,2.167714870E-1,2.667278098E0
7.609647333E0,-2.426738922E0,-1.093160355E0,5.323965865E-1,2.714315288E0
7.619685333E0,-2.592433811E0,-9.639737266E-1,5.549472508E-1,2.820979415E0
7.629722333E0,-2.747759247E0,-7.097519928E-1,3.088227412E-1,2.854697928E0
7.639760333E0,-3.055644972E0,-4.935342371E-1,1.380059838E-2,3.095275868E0
7.649797333E0,-3.372583356E0,-4.378845316E-1,-7.982180268E-2,3.401827873E0
7.659835333E0,-3.526158429E0,-4.336236656E-1,-8.268840015E-2,3.553682614E0
7.669872333E0,-3.587852109E0,-3.172342533E-1,-5.907032669E-2,3.602333914E0
7.679910333E0,-3.509146540E0,-3.150889099E-2,5.556375146E-2,3.509727850E0
7.689947333E0,-3.072641659E0,3.377614886E-1,2.669230556E-1,3.102653301E0
7.699985333E0,-2.493586630E0,7.212838715E-1,5.528843531E-1,2.654035760E0
7.710022333E0,-2.077273647E0,1.079134639E0,6.986925691E-1,2.442901692E0
7.720060333E0,-2.104868119E0,1.233601704E0,7.234935343E-1,2.544736894E0
7.730096500E0,-2.605213193E0,1.292920538E0,6.604476857E-1,2.982443703E0
7.740133500E0,-3.006917201E0,1.480574060E0,4.634269238E-1,3.383550667E0
7.750171500E0,-2.900761878E0,1.595063127E0,3.175049794E-1,3.325575929E0
7.760208500E0,-2.484559114E0,1.587878069E0,4.220499793E-1,2.978677045E0
7.770246500E0,-2.189065247E0,1.617096605E0,5.542207342E-1,2.777439236E0
7.780283500E0,-2.267336953E0,1.808294710E0,6.650786805E-1,2.975411949E0
7.790321500E0,-2.613579389E0,1.969886608E0,6.423066992E-1,3.335237378E0
7.800358500E0,-3.056763252E0,2.077823870E0,5.565964580E-1,3.737773834E0
7.810396500E0,-3.383016543E0,2.195748761E0,4.016896820E-1,4.053081316E0
7.820433500E0,-3.360151007E0,2.250253581E0,2.330629992E-1,4.050749848E0
7.830471500E0,-3.011872424E0,2.244512785E0,1.762578839E-1,3.760356363E0
7.840508500E0,-2.478694357E0,2.324607360E0,4.080420971E-1,3.422604775E0
7.850546500E0,-2.012887616E0,2.506328883E0,9.294517654E-1,3.346233944E0
7.860583500E0,-1.644537150E0,2.730927452E0,1.533251041E0,3.537417977E0
7.870621500E0,-1.391848410E0,2.842026889E0,1.833810790E0,3.657488325E0
7.880658500E0,-1.618418953E0,2.856979389E0,1.783343471E0,3.736565946E0
7.890696500E0,-2.181106748E0,2.832022887E0,1.389508939E0,3.835142158E0
7.900733500E0,-2.607770180E0,2.843472320E0,1.047698253E0,3.997933439E0
7.910771500E0,-2.460706567E0,2.908783380E0,1.019934504E0,3.944155671E0
7.920808500E0,-1.833043489E0,2.907213988E0,1.286986198E0,3.669914860E0
7.930846500E0,-1.174847712E0,2.804445664E0,1.639413673E0,3.454397172E0
7.940883500E0,-7.993752638E-1,2.743687831E0,1.857139426E0,3.408194621E0
7.950920500E0,-7.500240328E-1,2.743004876E0,1.877319921E0,3.407483219E0
7.960958500E0,-7.919112930E-1,2.788027852E0,1.808485914E0,3.416261714E0
7.970995500E0,-6.510336685E-1,2.895820688E0,1.790458948E0,3.466318730E0
7.981033500E0,-2.633368852E-1,3.028133823E0,2.018160635E0,3.648549453E0
7.991070500E0,1.628054141E-1,3.043812547E0,2.452486551E0,3.912287145E0
8.001108500E0,4.278051013E-1,2.875525587E0,2.841688920E0,4.065324160E0
8.011145500E0,4.681390487E-1,2.672988562E0,2.877594332E0,3.955321878E0
8.021183500E0,4.681501584E-1,2.572919313E0,2.582808124E0,3.675591948E0
8.031220500E0,5.205282006E-1,2.519610248E0,2.227993816E0,3.403430895E0
8.041258500E0,5.186676165E-1,2.453411581E0,2.126296703E0,3.287762484E0
8.051295500E0,6.185833027E-1,2.385790286E0,2.238937465E0,3.329787015E0
8.061333500E0,9.216939721E-1,2.280949709E0,2.409573251E0,3.443587462E0
8.071370500E0,1.168819963E0,2.150385477E0,2.490925562E0,3.492135158E0
8.081408500E0,1.216633450E0,2.025286052E0,2.416318599E0,3.379434289E0
8.091445500E0,1.263865869E0,1.969963206E0,2.252594222E0,3.248429266E0
8.101483500E0,1.441791233E0,1.943278853E0,2.211084838E0,3.277802743E0
8.111520500E0,1.662442932E0,1.830923434E0,2.292061758E0,3.371875476E0
8.121557500E0,1.971957691E0,1.600669438E0,2.368943288E0,3.473132892E0
8.131595500E0,2.281028208E0,1.459328202E0,2.305513862E0,3.556419921E0
8.141632500E0,2.417611418E0,1.470690511E0,2.148420812E0,3.552954762E0
8.151670500E0,2.343207061E0,1.520616962E0,2.074978907E0,3.479717336E0
8.161707500E0,2.195458300E0,1.475762386E0,2.170020427E0,3.421534805E0
8.171745500E0,2.301524453E0,1.206942494E0,2.359726907E0,3.510275782E0
8.181782500E0,2.650907722E0,8.187353218E-1,2.312792476E0,3.612014440E0
8.191820500E0,2.893816847E0,5.212032616E-1,1.933269004E0,3.518999549E0
8.201857500E0,2.809929183E0,3.870061541E-1,1.355902652E0,3.143874644E0
8.211895500E0,2.506936993E0,3.632477474E-1,9.297005644E-1,2.698337479E0
8.221932500E0,2.347662055E0,4.090454793E-1,9.230186588E-1,2.555542755E0
8.231970500E0,2.643571220E0,4.570669073E-1,1.277711345E0,2.971519011E0
8.242007500E0,2.985616379E0,3.246742505E-1,1.690551667E0,3.446343493E0
8.252045500E0,3.034988806E0,1.105404425E-1,1.851620824E0,3.556947556E0
8.262082500E0,2.760795322E0,-8.323511481E-3,1.721965833E0,3.253801842E0
8.272120500E0,2.435212122E0,-1.004931718E-1,1.402744404E0,2.812125321E0
8.282157500E0,2.299805372E0,-1.546687943E-1,1.210140336E0,2.603356836E0
8.292195500E0,2.323252999E0,-2.985857284E-1,1.264938395E0,2.662090734E0
8.302232500E0,2.520135328E0,-5.120155317E-1,1.435193819E0,2.944999707E0
8.312269500E0,2.631890822E0,-6.813514817E-1,1.552212100E0,3.130567288E0
8.322307500E0,2.473926245E0,-7.754694343E-1,1.491419768E0,2.990985930E0
8.332344500E0,2.344481169E0,-9.464016742E-1,1.317061644E0,2.850775238E0
8.342382500E0,2.428765859E0,-1.152333008E0,1.152237991E0,2.924795266E0
8.352419500E0,2.588555937E0,-1.318678107E0,1.009571191E0,3.075510979E0
8.362457500E0,2.645124241E0,-1.414466025E0,9.974440661E-1,3.161058533E0
8.372494500E0,2.710574172E0,-1.499180485E0,1.134843401E0,3.298882237E0
8.382532500E0,2.791657804E0,-1.678438575E0,1.281264113E0,3.500306711E0
8.392569500E0,2.683182013E0,-1.905441520E0,1.283095169E0,3.532209834E0
8.402607500E0,2.337166449E0,-2.117723515E0,1.070622847E0,3.330665575E0
8.412644500E0,2.023616818E0,-2.330956267E0,7.794525576E-1,3.183697290E0
8.422682500E0,1.866499649E0,-2.581503026E0,5.201262045E-1,3.227771690E0
8.432719500E0,1.749703124E0,-2.769702678E0,2.904515205E-1,3.288932355E0
8.442757500E0,1.825491664E0,-2.804256214E0,2.535267922E-1,3.355674085E0
8.452794500E0,2.042477597E0,-2.912040280E0,3.537091845E-1,3.574465486E0
8.462832500E0,2.073300317E0,-3.135599799E0,4.280977544E-1,3.783361996E0
8.472869500E0,1.948570875E0,-3.370172549E0,3.534349501E-1,3.908952255E0
8.482907500E0,1.790774405E0,-3.563569207E0,1.258882141E-1,3.990206299E0
8.492944500E0,1.580936693E0,-3.612975256E0,-1.977405542E-1,3.948677292E0
8.502982500E0,1.317410577E0,-3.651896077E0,-4.319822060E-1,3.906216099E0
8.513019500E0,1.089276634E0,-3.665872092E0,-4.673913360E-1,3.852738824E0
8.523056500E0,9.584286658E-1,-3.700654839E0,-2.795572807E-1,3.832960216E0
8.533094500E0,8.696286097E-1,-3.758491988E0,5.793275088E-3,3.857790755E0
8.543131500E0,8.421119052E-1,-3.877230812E0,1.723231463E-1,3.971368340E0
8.553169500E0,7.808478494E-1,-4.034292871E0,1.023717360E-1,4.110440646E0
8.563206500E0,7.442001329E-1,-4.161680896E0,-9.200199142E-2,4.228697919E0
8.573244500E0,6.061318763E-1,-4.260626310E0,-4.035433955E-1,4.322404386E0
8.583281500E0,3.534966382E-1,-4.294969347E0,-7.410604705E-1,4.372744239E0
8.593319500E0,-1.861285686E-2,-4.264921090E0,-9.351634718E-1,4.366283209E0
8.603356500E0,-3.445417736E-1,-4.228794068E0,-9.236245765E-1,4.342175798E0
8.613394500E0,-5.589610720E-1,-4.267532457E0,-7.090152436E-1,4.361991903E0
8.623431500E0,-5.599018890E-1,-4.398560373E0,-5.294864273E-1,4.465554765E0
8.633469500E0,-5.346006945E-1,-4.643078653E0,-5.020448595E-1,4.700641054E0
8.643506500E0,-6.756653568E-1,-4.883674620E0,-6.829812469E-1,4.977274842E0
8.653544500E0,-1.072154891E0,-4.963266919E0,-1.120169229E0,5.199837855E0
8.663581500E0,-1.660641113E0,-4.997786542E0,-1.584344158E0,5.499613226E0
8.673619500E0,-2.321008691E0,-4.991546393E0,-1.850908633E0,5.807622535E0
8.683656500E0,-2.917281724E0,-4.924049644E0,-1.916370551E0,6.035666793E0
8.693693500E0,-3.299112215E0,-4.939813737E0,-1.833240101E0,6.216644628E0
8.703731500E0,-3.488740927E0,-5.023158195E0,-1.786483426E0,6.371416996E0
8.713768500E0,-3.544882091E0,-4.957886896E0,-1.898371067E0,6.383623126E0
8.723806500E0,-3.309645097E0,-4.571616322E0,-2.022595748E0,5.995358206E0
8.733844333E0,-2.869788592E0,-4.163215790E0,-2.031382359E0,5.449272114E0
8.743882333E0,-2.530080857E0,-3.888501905E0,-1.964506146E0,5.037959964E0
8.753919333E0,-2.456118257E0,-3.636457089E0,-1.804143479E0,4.744604383E0
8.763957333E0,-2.598425160E0,-3.342801733E0,-1.507148486E0,4.494177711E0
8.773994333E0,-2.699436688E0,-2.962953156E0,-1.004243793E0,4.132136908E0
8.784032333E0,-2.725768162E0,-2.436333033E0,-3.297288761E-1,3.670729063E0
8.794069333E0,-2.612759025E0,-1.843003197E0,3.338725054E-1,3.214753701E0
8.804107333E0,-2.358548547E0,-1.425500890E0,6.475156912E-1,2.830915153E0
8.814144333E0,-2.305515032E0,-1.195888917E0,5.680575854E-1,2.658616047E0
8.824182333E0,-2.720355687E0,-1.003342445E0,2.881303221E-1,2.913769072E0
8.834219333E0,-3.491411350E0,-7.614068806E-1,1.686231744E-1,3.577447055E0
8.844257333E0,-4.225486591E0,-4.926244104E-1,3.886971688E-1,4.271826451E0
8.854294333E0,-4.739250147E0,-2.957065594E-1,7.166748038E-1,4.802245007E0
8.864332333E0,-4.866628232E0,-4.089542627E-3,8.420130873E-1,4.938934411E0
8.874369333E0,-4.392331042E0,3.711344719E-1,7.326198685E-1,4.468449916E0
8.884406333E0,-3.761808821E0,6.939814675E-1,6.204854751E-1,3.875282972E0
8.894444333E0,-3.550285210E0,1.152955152E0,6.004839045E-1,3.780795098E0
8.904481333E0,-3.975553497E0,1.590905172E0,8.915211698E-1,4.373878699E0
8.914519333E0,-4.727062211E0,1.892171264E0,1.499715798E0,5.307972938E0
8.924556333E0,-5.409886022E0,1.989939634E0,2.096019235E0,6.133516377E0
8.934594333E0,-5.760679200E0,2.330265126E0,2.344798673E0,6.641810086E0
8.944631333E0,-5.403592079E0,2.765630677E0,2.098301111E0,6.422646491E0
8.954669333E0,-4.843741645E0,2.952725791E0,1.853423520E0,5.967880819E0
8.964706333E0,-4.488934061E0,2.960713087E0,1.726762304E0,5.647836670E0
8.974744333E0,-4.381644378E0,2.991715609E0,1.410412735E0,5.489848252E0
8.984781333E0,-4.524901747E0,3.030480895E0,1.164580586E0,5.569093123E0
8.994819333E0,-4.417781925E0,3.121729034E0,1.059505536E0,5.512217456E0
9.004856333E0,-3.707135601E0,3.254056202E0,1.214059725E0,5.079928852E0
9.014894333E0,-2.889105161E0,3.467008288E0,1.633022959E0,4.799358195E0
9.024931333E0,-2.217464589E0,3.729464071E0,2.008934898E0,4.781408881E0
9.034969333E0,-1.809132616E0,3.784657109E0,2.138033234E0,4.708266811E0
9.045006333E0,-1.839643972E0,3.746546127E0,2.051387438E0,4.650708359E0
9.055043333E0,-2.117421068E0,3.743847052E0,1.778601379E0,4.654383482E0
9.065081333E0,-2.284675848E0,3.866222259E0,1.552190757E0,4.751496020E0
9.075118333E0,-1.768662136E0,3.900133771E0,1.585118768E0,4.566378290E0
9.085156333E0,-9.750601937E-1,3.619858013E0,1.730212162E0,4.128891927E0
9.095193333E0,-4.378042055E-1,3.270914894E0,1.789333359E0,3.753967320E0
9.105231333E0,-2.752107164E-1,3.044220682E0,1.642647184E0,3.470059116E0
9.115268333E0,-5.575252151E-1,2.954127953E0,1.365075179E0,3.301686928E0
9.125306333E0,-6.797988997E-1,2.973273491E0,9.718493414E-1,3.201089337E0
9.135343333E0,-2.711251572E-1,3.048731809E0,7.498475200E-1,3.151276852E0
9.145381333E0,2.806025436E-1,3.115992331E0,8.863572013E-1,3.251734165E0
9.155418333E0,6.844573765E-1,3.158817923E0,1.338441696E0,3.498290832E0
9.165456333E0,8.694629873E-1,3.182045987E0,1.950814160E0,3.832369820E0
9.175493333E0,1.049927066E0,3.281499524E0,2.492728844E0,4.252561941E0
9.185531333E0,1.295810962E0,3.422854208E0,2.870526803E0,4.651341861E0
9.195568333E0,1.671790291E0,3.453457950E0,2.995039752E0,4.867393317E0
9.205606333E0,2.053016472E0,3.376794521E0,2.918290368E0,4.912640486E0
9.215643333E0,2.281352436E0,3.182173457E0,2.690120319E0,4.750530936E0
9.225681333E0,2.301759804E0,3.001995015E0,2.533740045E0,4.553011188E0
9.235718333E0,2.257841221E0,2.907561312E0,2.462108729E0,4.428740132E0
9.245755333E0,2.465372061E0,2.900715977E0,2.579737167E0,4.598614620E0
9.255793333E0,2.760377831E0,2.869692405E0,2.797095129E0,4.866062210E0
9.265830333E0,2.922044281E0,2.685693392E0,2.951913612E0,4.946219339E0
9.275868333E0,2.860809022E0,2.374544336E0,2.853504388E0,4.686702077E0
9.285905333E0,2.414243568E0,2.042414301E0,2.475615213E0,4.016055137E0
9.295943333E0,1.839175756E0,1.747006534E0,1.988550920E0,3.223186941E0
9.305980333E0,1.538702254E0,1.474516929E0,1.682695933E0,2.715376660E0
9.316018333E0,1.587578399E0,1.258322563E0,1.679790452E0,2.631630066E0
9.326055333E0,1.793254940E0,1.159088296E0,1.949054148E0,2.891031136E0
9.336093333E0,1.915873391E0,1.043370729E0,2.356479363E0,3.211259616E0
9.346130333E0,1.881037289E0,9.775509614E-1,2.641917627E0,3.387275589E0
9.356168333E0,1.933828583E0,8.821086144E-1,2.699743082E0,3.436047337E0
9.366205333E0,2.220629540E0,7.578178596E-1,2.501413713E0,3.429658005E0
9.376243333E0,2.475686841E0,5.196859092E-1,2.319208041E0,3.431883553E0
9.386280333E0,2.529868603E0,1.894129497E-1,2.358990158E0,3.464238297E0
9.396317333E0,2.574933679E0,-5.702438593E-2,2.407539005E0,3.525589212E0
9.406355333E0,2.649454688E0,-2.263919109E-1,2.459758441E0,3.622330056E0
9.416392333E0,2.735329236E0,-3.602223980E-1,2.314345205E0,3.601108154E0
9.426430333E0,2.797450933E0,-5.071079636E-1,2.048401558E0,3.504117456E0
9.436467333E0,2.809443280E0,-7.120715833E-1,1.914450618E0,3.473490845E0
9.446505333E0,2.823270775E0,-9.202160883E-1,1.778216340E0,3.461171604E0
9.456542333E0,2.802353531E0,-1.060838116E0,1.605830483E0,3.399596205E0
9.466580333E0,2.618570865E0,-1.187106984E0,1.501347755E0,3.243482919E0
9.476617333E0,2.331008600E0,-1.354816824E0,1.405734378E0,3.040595149E0
9.486655333E0,2.122129977E0,-1.533363892E0,1.291227769E0,2.919230997E0
9.496692333E0,2.222216329E0,-1.602517743E0,1.164620347E0,2.977020168E0
9.506730333E0,2.493980733E0,-1.658102544E0,1.108488100E0,3.193429161E0
9.516767333E0,2.780357182E0,-1.819878629E0,1.310501069E0,3.572080253E0
9.526805333E0,3.133816398E0,-1.906644877E0,1.445918782E0,3.942940658E0
9.536842333E0,3.314994422E0,-1.937854975E0,1.548647929E0,4.140384080E0
9.546880333E0,3.156350398E0,-2.018544797E0,1.598730793E0,4.073451986E0
9.556917333E0,2.890512001E0,-2.116732412E0,1.537807338E0,3.898777647E0
9.566954333E0,2.587867720E0,-2.371159968E0,1.442658229E0,3.794828283E0
9.576992333E0,2.331163259E0,-2.733766276E0,1.249629946E0,3.803863193E0
9.587029333E0,2.150542329E0,-3.057794994E0,9.829024793E-1,3.865364124E0
9.597067333E0,2.077543349E0,-3.332094896E0,7.186181259E-1,3.991923694E0
9.607104333E0,2.015840168E0,-3.430853784E0,5.822897083E-1,4.021620392E0
9.617142333E0,1.816485782E0,-3.339686921E0,6.011785537E-1,3.848966742E0
9.627179333E0,1.709582161E0,-3.255566538E0,7.229998831E-1,3.747547662E0
9.637217333E0,1.642286264E0,-3.374242212E0,7.657266574E-1,3.830006787E0
9.647254333E0,1.493900888E0,-3.576569322E0,6.259982300E-1,3.926252890E0
9.657292333E0,1.404936671E0,-3.663339078E0,3.148339713E-1,3.936117463E0
9.667329333E0,1.531242815E0,-3.826636609E0,-3.755958974E-2,4.121803370E0
9.677367333E0,1.596461197E0,-4.013842235E0,-2.595158760E-1,4.327466502E0
9.687404333E0,1.551668309E0,-3.996653175E0,-2.971367884E-1,4.297580879E0
9.697442333E0,1.559368068E0,-3.814137601E0,-2.135794189E-1,4.126122947E0
9.707479333E0,1.647990515E0,-3.703292518E0,-1.194761574E-1,4.055184677E0
9.717517333E0,1.631514816E0,-3.758044091E0,-4.034396075E-2,4.097116501E0
9.727554333E0,1.348602110E0,-3.901551136E0,-7.406733848E-2,4.128718311E0
9.737591333E0,9.255244830E-1,-4.080644335E0,-2.653893310E-1,4.192694271E0
9.747629333E0,5.243955490E-1,-4.203554562E0,-4.465671352E-1,4.259610763E0
9.757666333E0,1.754500911E-1,-4.244916596E0,-5.275076564E-1,4.281163857E0
9.767704333E0,-1.108715411E-1,-4.238951266E0,-4.184161540E-1,4.260994299E0
9.777741333E0,-2.333328483E-1,-4.203159875E0,-2.718130821E-1,4.218397741E0
9.787779333E0,-3.396004379E-1,-4.166339373E0,-2.321555845E-1,4.186598672E0
9.797816333E0,-5.812512428E-1,-4.159457785E0,-3.714396966E-1,4.216267250E0
9.807854333E0,-8.570418933E-1,-4.249896669E0,-5.749456054E-1,4.373408849E0
9.817891333E0,-1.073289616E0,-4.241824588E0,-6.992134830E-1,4.431018611E0
9.827929333E0,-1.178158552E0,-4.203187941E0,-7.524443416E-1,4.429561934E0
9.837966333E0,-1.215857305E0,-4.124009040E0,-6.295739485E-1,4.345356476E0
9.848004333E0,-1.193668364E0,-4.034627332E0,-3.822975375E-1,4.224832929E0
9.858041333E0,-1.218104463E0,-3.869974417E0,-1.587285892E-1,4.060255563E0
9.868079333E0,-1.357453333E0,-3.823631140E0,-1.667264108E-1,4.060865960E0
9.878116333E0,-1.648558426E0,-3.980723605E0,-3.461284887E-1,4.322465759E0
9.888154333E0,-2.262204413E0,-4.222435806E0,-6.197440481E-1,4.830177598E0
9.898191333E0,-3.148080389E0,-4.468824025E0,-8.961967497E-1,5.539311050E0
9.908228333E0,-3.965157440E0,-4.535228514E0,-1.197957516E0,6.142139156E0
9.918266333E0,-4.369324003E0,-4.371678384E0,-1.273062809E0,6.310566777E0
9.928303333E0,-4.307306387E0,-3.991133403E0,-1.028064473E0,5.961455419E0
9.938341333E0,-3.873736516E0,-3.468787011E0,-6.134724708E-1,5.235901679E0
9.948378333E0,-3.509544151E0,-3.112516746E0,-1.861187746E-1,4.694603374E0
9.958416333E0,-3.252420151E0,-2.805164872E0,1.046809477E-1,4.296294322E0
9.968453333E0,-2.995117227E0,-2.583481724E0,2.474546050E-1,3.963122355E0
9.978491333E0,-2.795945859E0,-2.455653403E0,3.639491209E-1,3.738984601E0
9.988528333E0,-2.678819990E0,-2.168967344E0,4.303837234E-1,3.473575395E0
9.998566333E0,-2.967049423E0,-1.685621295E0,3.761060670E-1,3.433097319E0
1.000860333E1,-3.635321852E0,-1.308047284E0,2.750422069E-1,3.873267469E0
1.001864133E1,-4.267387738E0,-1.055052297E0,4.077380419E-2,4.396065964E0
1.002867833E1,-4.587521918E0,-9.456462139E-1,-1.157318929E-1,4.685402649E0
1.003871633E1,-4.570545697E0,-7.318597305E-1,-1.598520586E-1,4.631528831E0
1.004875333E1,-4.193598508E0,-3.069612801E-1,-3.561597526E-2,4.204968748E0
1.005879133E1,-3.715857015E0,1.517539573E-1,3.416279599E-1,3.734612736E0
1.006882833E1,-3.289876830E0,5.478998941E-1,7.938057178E-1,3.428354032E0
1.007886533E1,-3.073530143E0,9.080310756E-1,1.075252672E0,3.380425459E0
1.008890333E1,-3.312555256E0,9.577347475E-1,1.117228664E0,3.624703858E0
1.009894033E1,-4.022196736E0,1.023924644E0,8.930721438E-1,4.245475959E0
1.010897833E1,-4.489641574E0,1.262525541E0,3.311208057E-1,4.675520634E0
1.011901533E1,-4.153866677E0,1.567808086E0,-2.115022686E-1,4.444925621E0
1.012905333E1,-3.221868742E0,1.814930715E0,-1.609668303E-1,3.701394603E0
1.013909033E1,-2.490966785E0,2.050440774E0,2.235332072E-1,3.234067097E0
1.014912833E1,-2.479077057E0,2.191142324E0,7.975809726E-1,3.403389949E0
1.015916533E1,-2.956182080E0,2.147004617E0,1.441549158E0,3.927684469E0
1.016920333E1,-3.842058640E0,2.126115439E0,1.687489480E0,4.704189856E0
1.017924033E1,-4.766585588E0,2.359274917E0,1.189661633E0,5.449936798E0
1.018927833E1,-5.080095457E0,2.611013339E0,3.921704149E-1,5.725256164E0
1.019931533E1,-4.608873903E0,2.823078986E0,1.780477166E-3,5.404766118E0
1.020935333E1,-3.705104278E0,2.846589471E0,2.913398588E-1,4.681425877E0
1.021939033E1,-2.962710789E0,2.828209333E0,9.264071202E-1,4.199363452E0
1.022942833E1,-2.666949850E0,2.951069275E0,1.691966986E0,4.322520520E0
1.023946533E1,-2.864191344E0,3.239516516E0,2.035477164E0,4.779249585E0
1.024950233E1,-2.949507776E0,3.579817450E0,1.738242143E0,4.953400331E0
1.025954033E1,-2.553797164E0,3.729958745E0,1.327757079E0,4.711412851E0
1.026957733E1,-2.197841625E0,3.585077021E0,1.188265902E0,4.369812457E0
1.027961533E1,-1.957180023E0,3.417442026E0,1.240258759E0,4.128886706E0
1.028965233E1,-1.810472505E0,3.335169362E0,1.445572627E0,4.060892216E0
1.029969033E1,-1.641957504E0,3.333935600E0,1.676631201E0,4.077038535E0
1.030972733E1,-1.285527318E0,3.391596748E0,1.774608316E0,4.037913280E0
1.031976533E1,-9.110277736E-1,3.515533746E0,1.888046638E0,4.093124629E0
1.032980233E1,-4.750945675E-1,3.763846868E0,2.038045262E0,4.306493537E0
1.033984033E1,3.281146791E-2,3.846949251E0,2.272923821E0,4.468364111E0
1.034987733E1,4.461595843E-1,3.736043943E0,2.591804650E0,4.568865730E0
1.035991533E1,6.847596775E-1,3.585401541E0,2.688890065E0,4.533666266E0
1.036995233E1,9.649484575E-1,3.613797959E0,2.489346814E0,4.493051166E0
1.037999033E1,1.407405219E0,3.677081789E0,2.255022570E0,4.537273050E0
1.039002733E1,1.960725775E0,3.627494477E0,2.314378241E0,4.728584184E0
1.040006433E1,2.463179939E0,3.631998003E0,2.538154108E0,5.069604637E0
1.041010233E1,2.743922597E0,3.704265495E0,2.872075145E0,5.431345111E0
1.042013933E1,2.696916830E0,3.730015463E0,3.183151696E0,5.596322941E0
1.043017733E1,2.362620402E0,3.531393734E0,3.378133534E0,5.428121502E0
1.044021433E1,1.998226892E0,3.255461288E0,3.255595189E0,5.018947992E0
1.045025233E1,1.989266034E0,2.998544573E0,2.858567492E0,4.595634561E0
1.046028933E1,2.251835253E0,2.747772111E0,2.403950568E0,4.289521176E0
1.047032733E1,2.482546210E0,2.490513918E0,2.201635153E0,4.148842321E0
1.048036433E1,2.544101603E0,2.336519893E0,2.216081868E0,4.103997688E0
1.049040233E1,2.413103800E0,2.093552880E0,2.372525877E0,3.979310574E0
1.050043933E1,2.190174610E0,1.899140561E0,2.513020729E0,3.836518327E0
1.051047733E1,1.954485626E0,1.739326801E0,2.596191816E0,3.685849120E0
1.052051433E1,1.890442535E0,1.528078009E0,2.647517506E0,3.594182011E0
1.053055233E1,2.061404596E0,1.393342373E0,2.608504591E0,3.604870050E0
1.054058933E1,2.302082570E0,1.228615783E0,2.499435015E0,3.613344199E0
1.055062733E1,2.543255511E0,1.069594907E0,2.409196690E0,3.662841868E0
1.056066433E1,2.666288822E0,9.761084533E-1,2.340310058E0,3.679529177E0
1.057070133E1,2.708389652E0,8.321155053E-1,2.280138701E0,3.636869975E0
1.058073933E1,2.824281759E0,6.187207854E-1,2.304690574E0,3.697429040E0
1.059077633E1,3.090940520E0,4.291838747E-1,2.461991785E0,3.974860456E0
1.060081433E1,3.373196145E0,2.449696845E-1,2.629172451E0,4.283807904E0
1.061085133E1,3.687718459E0,8.910922766E-2,2.700561692E0,4.571678176E0
1.062088933E1,3.961357627E0,-5.028020740E-2,2.669635769E0,4.777220686E0
1.063092633E1,4.031036557E0,-2.872269273E-1,2.458246936E0,4.730193762E0
1.064096433E1,3.879633725E0,-5.889461786E-1,2.095768682E0,4.448669667E0
1.065100133E1,3.869818881E0,-8.933095407E-1,1.737639295E0,4.335076750E0
1.066103933E1,3.988136705E0,-1.255142262E0,1.575544537E0,4.467992509E0
1.067107633E1,4.029243801E0,-1.566497725E0,1.593518585E0,4.607387786E0
1.068111433E1,4.074513237E0,-1.755416585E0,1.733143078E0,4.763079931E0
1.069115133E1,4.072318484E0,-1.849193060E0,1.730679646E0,4.795679811E0
1.070118933E1,4.018091699E0,-1.943522682E0,1.620388003E0,4.748473291E0
1.071122633E1,3.765831413E0,-2.068259579E0,1.501470255E0,4.551219270E0
1.072126333E1,3.334846011E0,-2.270791926E0,1.556843972E0,4.324518129E0
1.073130058E1,3.040224695E0,-2.521967846E0,1.655402592E0,4.282948255E0
1.074133758E1,2.932869523E0,-2.924967889E0,1.720781041E0,4.485337020E0
1.075137558E1,2.849778543E0,-3.235748570E0,1.759217129E0,4.656839213E0
1.076141258E1,2.521711153E0,-3.408361300E0,1.662262253E0,4.554016874E0
1.077145058E1,1.966607781E0,-3.611139815E0,1.400212852E0,4.343785556E0
1.078148758E1,1.363113292E0,-3.817197449E0,9.915649831E-1,4.172801855E0
1.079152558E1,1.066358619E0,-4.103796970E0,5.403656106E-1,4.274373084E0
1.080156258E1,1.064164744E0,-4.373744790E0,1.425668120E-1,4.503600269E0
1.081160058E1,1.226615743E0,-4.543778898E0,-1.437235375E-1,4.708627115E0
1.082163758E1,1.307547494E0,-4.620649318E0,-2.492247033E-1,4.808554203E0
1.083167558E1,1.220110862E0,-4.622996390E0,-1.271931665E-1,4.782984868E0
1.084171258E1,1.024416249E0,-4.577642462E0,4.703193292E-2,4.691103406E0
1.085175058E1,7.590788117E-1,-4.572661219E0,1.157337932E-1,4.636682605E0
1.086178758E1,4.649809675E-1,-4.654647954E0,3.530417249E-2,4.677948402E0
1.087182458E1,2.467774974E-1,-4.740264055E0,-1.248177351E-1,4.748324116E0
1.088186258E1,1.211505076E-1,-4.840288280E0,-2.938909990E-1,4.850715411E0
1.089189958E1,5.387405232E-2,-4.913123537E0,-3.363037777E-1,4.924914774E0
1.090193758E1,-1.128891228E-1,-4.910187065E0,-2.579602973E-1,4.918254211E0
1.091197458E1,-3.019948013E-1,-4.848902982E0,-1.847755229E-1,4.861810670E0
1.092201258E1,-5.488660003E-1,-4.853225829E0,-3.372381628E-1,4.895792521E0
1.093204958E1,-8.060414551E-1,-4.847941700E0,-6.825584932E-1,4.961665814E0
1.094208758E1,-1.017570767E0,-4.906578164E0,-1.023166845E0,5.114374833E0
1.095212458E1,-1.123727698E0,-4.898321895E0,-1.191683015E0,5.164923014E0
1.096216258E1,-1.004675902E0,-4.853107131E0,-1.188533120E0,5.096531513E0
1.097219958E1,-7.323099661E-1,-4.901497518E0,-1.025142765E0,5.060817473E0
1.098223758E1,-5.833242269E-1,-4.959473246E0,-8.244078518E-1,5.061253830E0
1.099227458E1,-8.547645490E-1,-5.044418086E0,-8.065592261E-1,5.179509055E0
1.100231258E1,-1.709946151E0,-5.140454510E0,-9.815696065E-1,5.505603264E0
1.101234958E1,-2.848053614E0,-5.203405049E0,-1.289562482E0,6.070404014E0
1.102238658E1,-3.865692209E0,-5.263592194E0,-1.539386525E0,6.709596852E0
1.103242458E1,-4.474250241E0,-5.216621511E0,-1.565855116E0,7.048684803E0
1.104246158E1,-4.584425232E0,-4.946749704E0,-1.438056031E0,6.896034549E0
1.105249958E1,-4.343833358E0,-4.600129099E0,-1.313268848E0,6.461791628E0
1.106253658E1,-4.152549300E0,-4.162619374E0,-1.263565761E0,6.013955784E0
1.107257458E1,-4.114982693E0,-3.672466582E0,-1.163394917E0,5.636805930E0
1.108261158E1,-4.202095097E0,-3.342088957E0,-9.227719063E-1,5.447813304E0
1.109264958E1,-4.059556059E0,-3.182874538E0,-6.416936186E-1,5.198312843E0
1.110268658E1,-3.696691889E0,-2.936520233E0,-5.259187487E-1,4.750291836E0
1.111272458E1,-3.494788409E0,-2.623898263E0,-4.078625876E-1,4.389161652E0
1.112276158E1,-3.780993243E0,-2.174718665E0,-2.089581451E-1,4.366803715E0
1.113279958E1,-4.444408683E0,-1.619454787E0,-1.369914919E-2,4.730284349E0
1.114283658E1,-5.073280528E0,-1.031673959E0,1.951350349E-1,5.180791846E0
1.115287458E1,-5.279213031E0,-4.202352959E-1,4.002261239E-1,5.311013922E0
1.116291158E1,-4.757003756E0,-1.171799558E-1,6.572059894E-1,4.803616928E0
1.117294958E1,-3.946421499E0,-1.358015835E-1,7.863844317E-1,4.026299193E0
1.118298658E1,-3.609289756E0,-1.651663005E-2,6.084103900E-1,3.660247060E0
1.119302358E1,-3.820721565E0,4.332564604E-1,3.280466321E-1,3.859175953E0
1.120306158E1,-4.278154216E0,1.189195025E0,2.632732236E-1,4.448157045E0
1.121309858E1,-4.625956836E0,1.675162965E0,4.025299269E-1,4.936362826E0
1.122313658E1,-5.053788249E0,1.505194931E0,6.325956434E-1,5.310985285E0
1.123317358E1,-5.523551801E0,1.141459526E0,6.608599144E-1,5.678845849E0
1.124321158E1,-5.948836167E0,1.075771905E0,3.357120395E-1,6.054637851E0
1.125324858E1,-6.246924883E0,1.459787208E0,-1.004300219E-1,6.416006185E0
1.126328658E1,-6.008950807E0,1.978198425E0,-3.146310729E-1,6.334015434E0
1.127332358E1,-5.484226352E0,2.555053731E0,-8.752170861E-2,6.050842776E0
1.128336158E1,-4.763064103E0,3.110750887E0,6.445110995E-1,5.725289974E0
1.129339858E1,-4.052547879E0,3.354947569E0,1.503521458E0,5.471690258E0
1.130343658E1,-3.900812632E0,3.367616732E0,2.311541172E0,5.648044284E0
1.131347358E1,-4.392008276E0,3.468823264E0,2.654390908E0,6.194212026E0
1.132351158E1,-4.985946515E0,3.837542251E0,2.355891718E0,6.718379192E0
1.133354858E1,-4.560999240E0,4.143628787E0,1.932473783E0,6.458082418E0
1.134358558E1,-3.229983215E0,4.222879025E0,1.775716363E0,5.605235716E0
1.135362358E1,-1.941123130E0,4.275582318E0,1.755734088E0,5.013099376E0
1.136366058E1,-1.494368227E0,4.322393373E0,1.998688822E0,4.991089848E0
1.137369858E1,-1.698098084E0,4.429381047E0,2.349268577E0,5.293582568E0
1.138373558E1,-1.869839578E0,4.377683474E0,2.540581872E0,5.395828843E0
1.139377358E1,-1.918916721E0,4.299374054E0,2.462277714E0,5.313160094E0
1.140381058E1,-1.503557418E0,4.508096264E0,2.207664801E0,5.239980984E0
1.141384858E1,-5.489388347E-1,4.615316657E0,2.141280777E0,5.117378729E0
1.142388558E1,1.996851554E-1,4.398502486E0,2.497221844E0,5.061898381E0
1.143392358E1,3.404727328E-1,4.267667527E0,3.098647150E0,5.284933487E0
1.144396058E1,2.216246029E-1,4.400809212E0,3.562017356E0,5.666057433E0
1.145399858E1,1.721935574E-1,4.518459869E0,3.853429136E0,5.940963416E0
1.146403558E1,4.391850620E-1,4.484255412E0,3.947527208E0,5.990359019E0
1.147407258E1,1.057654454E0,4.399808169E0,3.961288045E0,6.014045880E0
1.148411058E1,1.620228082E0,4.162486058E0,3.985597844E0,5.986352762E0
1.149414758E1,2.002558656E0,3.971907758E0,3.932366547E0,5.937154122E0
1.150418558E1,2.377071649E0,3.975679797E0,3.854238975E0,6.025915495E0
1.151422258E1,2.743974929E0,3.982368427E0,3.763165668E0,6.127811399E0
1.152426058E1,3.183188533E0,3.879761487E0,3.843212296E0,6.321037825E0
1.153429758E1,3.589706554E0,3.661051648E0,3.999885516E0,6.502951364E0
1.154433558E1,3.781606909E0,3.406160408E0,4.099198135E0,6.534975507E0
1.155437258E1,3.710170598E0,3.117679837E0,4.144882430E0,6.376938434E0
1.156441058E1,3.568068347E0,2.738320672E0,4.070375454E0,6.066091672E0
1.157444758E1,3.567321658E0,2.193415137E0,3.906686745E0,5.727045931E0
1.158448558E1,3.651214584E0,1.686996560E0,3.652916417E0,5.433334490E0
1.159452258E1,3.744676479E0,1.220187607E0,3.450841906E0,5.236388984E0
1.160456058E1,3.815488015E0,7.677522790E-1,3.245222229E0,5.067431269E0
1.161459758E1,3.866066138E0,4.392054176E-1,2.974147650E0,4.897440457E0
1.162463558E1,3.785780359E0,1.305501992E-1,2.671896302E0,4.635537308E0
1.163467258E1,3.657505896E0,-2.019049412E-1,2.374284427E0,4.365242436E0
1.164470958E1,3.694148058E0,-5.733189100E-1,2.118164980E0,4.296748460E0
1.165474758E1,3.984604695E0,-9.384664178E-1,2.025769617E0,4.567443084E0
1.166478458E1,4.438551820E0,-1.114011526E0,2.013744818E0,4.999693204E0
1.167482258E1,4.937764288E0,-1.105996748E0,2.028073420E0,5.451405944E0
1.168485958E1,5.249065372E0,-1.125818809E0,2.068599302E0,5.753195489E0
1.169489758E1,5.337774650E0,-1.262983963E0,2.191950702E0,5.906912441E0
1.170493458E1,5.395897143E0,-1.507950724E0,2.300128577E0,6.056419143E0
1.171497258E1,5.302213054E0,-1.749305075E0,2.306073733E0,6.040820108E0
1.172500958E1,5.131313558E0,-2.048873720E0,2.222481646E0,5.955475382E0
1.173504825E1,4.806912373E0,-2.320365790E0,1.946390741E0,5.681455876E0
1.174508525E1,4.315592476E0,-2.586637466E0,1.569724511E0,5.270585057E0
1.175512325E1,3.928156552E0,-2.790413516E0,1.282744628E0,4.986206501E0
1.176516025E1,3.735326489E0,-2.994382524E0,1.202039604E0,4.935979122E0
1.177519725E1,3.586340896E0,-3.157249700E0,1.262381700E0,4.942031389E0
1.178523525E1,3.330758223E0,-3.231378361E0,1.379004416E0,4.841219849E0
1.179527225E1,3.059948523E0,-3.445630283E0,1.523021922E0,4.853374989E0
1.180531025E1,3.040548046E0,-3.560931528E0,1.469816937E0,4.907700847E0
1.181534725E1,3.201600538E0,-3.675731667E0,1.321357594E0,5.050468809E0
1.182538525E1,3.181165981E0,-3.851551010E0,1.105620772E0,5.116313074E0
1.183542225E1,2.773600725E0,-3.960013352E0,8.574643546E-1,4.910174319E0
1.184546025E1,2.493530497E0,-4.091147103E0,5.944372988E-1,4.827891327E0
1.185549725E1,2.503875391E0,-4.286951060E0,4.629052059E-1,4.986143058E0
1.186553525E1,2.311529770E0,-4.379317771E0,4.976161784E-1,4.976868079E0
1.187557225E1,1.988720635E0,-4.269167923E0,5.628804606E-1,4.743167605E0
1.188561025E1,1.963441368E0,-4.176397753E0,6.679938099E-1,4.663005032E0
1.189564725E1,2.281453155E0,-4.157942187E0,5.886579108E-1,4.779124382E0
1.190568525E1,2.574910290E0,-4.163032773E0,4.742226380E-1,4.917915410E0
1.191572225E1,2.468013248E0,-4.199534016E0,3.596737830E-1,4.884315774E0
1.192576025E1,1.985595006E0,-4.297188365E0,2.467850988E-1,4.740181247E0
1.193579725E1,1.390264691E0,-4.379099085E0,1.876124458E-1,4.598319600E0
1.194583425E1,7.639322931E-1,-4.423564237E0,1.259911251E-1,4.490811382E0
1.195587225E1,1.931756330E-1,-4.401444220E0,4.114510238E-2,4.405873462E0
1.196590925E1,-1.526762094E-1,-4.428886957E0,-8.947277829E-2,4.432420905E0
1.197594725E1,-4.158146547E-1,-4.485275751E0,-2.144766010E-1,4.509612023E0
1.198598425E1,-7.782221572E-1,-4.456538440E0,-2.697099848E-1,4.532009275E0
1.199602225E1,-1.249522649E0,-4.425019024E0,-2.992167892E-1,4.607779389E0
1.200605925E1,-1.696198762E0,-4.354037334E0,-2.653735435E-1,4.680294271E0
1.201609725E1,-2.093163747E0,-4.364013269E0,-1.737086441E-1,4.843151967E0
1.202613425E1,-2.411377409E0,-4.438714957E0,-4.066870049E-2,5.051592365E0
1.203617225E1,-2.572932177E0,-4.533881316E0,5.248402297E-2,5.213330447E0
1.204620925E1,-2.627704216E0,-4.524578980E0,8.595991731E-3,5.232276587E0
1.205624725E1,-2.764573501E0,-4.345175294E0,-1.566428143E-1,5.152470471E0
1.206628425E1,-3.054642760E0,-4.169012720E0,-3.497899421E-1,5.180141161E0
1.207632125E1,-3.407491526E0,-4.030109189E0,-5.767500561E-1,5.308994180E0
1.208635925E1,-3.810578400E0,-3.943097357E0,-7.348388869E-1,5.532496065E0
1.209639625E1,-4.259347524E0,-3.967750388E0,-6.640238428E-1,5.858840511E0
1.210643425E1,-4.515000364E0,-3.944070334E0,-5.090721895E-1,6.016649697E0
1.211647125E1,-4.582365843E0,-3.743769869E0,-4.371811116E-1,5.933381572E0
1.212650925E1,-4.532862731E0,-3.373331215E0,-4.789053807E-1,5.670587129E0
1.213654625E1,-4.434520749E0,-2.987629575E0,-6.263575414E-1,5.383607390E0
1.214658425E1,-4.583391445E0,-2.615447282E0,-8.398756376E-1,5.343541214E0
1.215662125E1,-4.811972845E0,-2.343683317E0,-7.924061868E-1,5.410715454E0
1.216665925E1,-4.842963381E0,-2.354493064E0,-4.449391973E-1,5.403323309E0
1.217669625E1,-4.683974079E0,-2.322817528E0,-2.344031811E-2,5.228350016E0
1.218673425E1,-4.587977416E0,-2.002097164E0,1.573892114E-1,5.008263291E0
1.219677125E1,-4.520598488E0,-1.435105526E0,5.036791563E-2,4.743192542E0
1.220680925E1,-4.516055494E0,-8.987743485E-1,-1.060918808E-1,4.605844987E0
1.221684625E1,-4.559560825E0,-7.225924784E-1,-1.564975110E-1,4.619115313E0
1.222688325E1,-4.724298817E0,-7.935519487E-1,8.665865958E-3,4.790490487E0
1.223692125E1,-5.061859161E0,-7.673207545E-1,2.106184620E-1,5.124017901E0
1.224695825E1,-5.407229632E0,-3.623934692E-1,2.411257249E-1,5.424721461E0
1.225699625E1,-5.544350347E0,2.033240604E-1,7.199091911E-2,5.548544326E0
1.226703325E1,-5.430954709E0,4.630801839E-1,-4.323957503E-2,5.450833145E0
1.227707125E1,-5.166839486E0,6.228582752E-1,-1.085769475E-2,5.204257930E0
1.228710825E1,-5.085888294E0,8.467610264E-1,5.954395115E-2,5.156239856E0
1.229714625E1,-5.255611330E0,1.161901392E0,4.299592155E-1,5.399660195E0
1.230718325E1,-5.196854998E0,1.612660323E0,9.588960046E-1,5.525165766E0
1.231722125E1,-4.955938019E0,1.651846608E0,1.358207039E0,5.397651825E0
1.232725825E1,-5.060673931E0,1.404468455E0,1.416344735E0,5.439575782E0
1.233729625E1,-5.705079195E0,1.180434142E0,1.063652381E0,5.922221693E0
1.234733325E1,-6.303032425E0,1.396559511E0,3.953337586E-1,6.467989255E0
1.235737025E1,-5.814013408E0,1.989152598E0,-1.555979168E-1,6.146843961E0
1.236740825E1,-4.795474049E0,2.556868706E0,-1.383924848E-1,5.436294825E0
1.237744525E1,-3.660001488E0,3.020623659E0,2.707459652E-1,4.753218021E0
1.238748325E1,-2.822900354E0,3.235481937E0,9.487692118E-1,4.397416604E0
1.239752025E1,-2.443475700E0,3.444027561E0,1.664056764E0,4.538830714E0
1.240755825E1,-2.239262570E0,3.630469540E0,2.119840207E0,4.763226684E0
1.241759525E1,-2.228440397E0,3.668020944E0,2.222754126E0,4.833317717E0
1.242763325E1,-2.144554633E0,3.891137829E0,1.934967620E0,4.846046623E0
1.243767025E1,-1.464547281E0,4.135665464E0,1.558542588E0,4.655929829E0
1.244770825E1,-7.666714943E-1,4.144322852E0,1.517761182E0,4.479597760E0
1.245774525E1,-5.243309007E-1,4.211197457E0,1.867852694E0,4.636591486E0
1.246778325E1,-6.104283372E-1,4.119834713E0,2.463419091E0,4.838811262E0
1.247782025E1,-7.125311013E-1,3.917488307E0,2.834158291E0,4.887419403E0
1.248785825E1,-4.291156816E-1,4.034253110E0,2.624972981E0,4.832165309E0
1.249789525E1,3.921332486E-1,4.222604206E0,2.199169967E0,4.777081044E0
1.250793225E1,1.287292008E0,4.153750318E0,2.116706100E0,4.836445712E0
1.251797025E1,1.600113221E0,3.912477828E0,2.264004478E0,4.795160201E0
1.252800725E1,1.418407487E0,3.751408671E0,2.389564664E0,4.668507909E0
1.253804525E1,1.106287208E0,3.542188278E0,2.462485290E0,4.453628071E0
1.254808225E1,9.731283467E-1,3.270286319E0,2.487429512E0,4.222446798E0
1.255812025E1,9.958115235E-1,3.125850736E0,2.588909694E0,4.179119144E0
1.256815725E1,1.181616449E0,2.986562458E0,2.614747955E0,4.141579363E0
1.257819525E1,1.295092193E0,2.801085269E0,2.614503542E0,4.044622510E0
1.258823225E1,1.224911134E0,2.610420431E0,2.572238697E0,3.864079972E0
1.259827025E1,1.210740845E0,2.473716622E0,2.380280455E0,3.640178892E0
1.260830725E1,1.719316021E0,2.575424845E0,2.270130606E0,3.839577279E0
1.261834525E1,2.629026271E0,2.772740307E0,2.411995168E0,4.518582591E0
1.262838225E1,3.452541107E0,2.857736603E0,2.777400538E0,5.272632391E0
1.263841925E1,4.040281005E0,2.788779219E0,3.253819975E0,5.889694777E0
1.264845725E1,4.485351180E0,2.673245839E0,3.561753062E0,6.320656880E0
1.265849425E1,4.576318653E0,2.361386347E0,3.492341934E0,6.222161206E0
1.266853225E1,4.446262251E0,2.072475421E0,3.073745613E0,5.788982162E0
1.267856925E1,4.222302782E0,1.915173626E0,2.554338324E0,5.293427535E0
1.268860725E1,3.906290889E0,1.688665940E0,2.271277538E0,4.823836939E0
1.269864425E1,3.678462025E0,1.267588060E0,2.337308097E0,4.538818293E0
1.270868225E1,3.599348320E0,7.176030493E-1,2.497047597E0,4.439088777E0
1.271871925E1,3.566602158E0,2.854137057E-1,2.452811072E0,4.338017300E0
1.272875725E1,3.704168724E0,2.445118475E-1,2.206566110E0,4.318516640E0
1.273879400E1,3.980366925E0,3.637073386E-1,1.999409784E0,4.469143472E0
1.274883200E1,4.490682086E0,3.947852898E-1,1.957542843E0,4.914677508E0
1.275886900E1,5.250862806E0,2.917883402E-1,2.098889926E0,5.662335169E0
1.276890600E1,5.867087415E0,6.988650620E-2,2.363411822E0,6.325607821E0
1.277894400E1,6.238318951E0,-1.019526368E-1,2.532621180E0,6.733586541E0
1.278898100E1,6.230342179E0,-4.085958284E-1,2.628709937E0,6.774528039E0
1.279901900E1,5.800863605E0,-7.813482249E-1,2.558258005E0,6.387895399E0
1.280905600E1,5.137270117E0,-1.167776674E0,2.260240041E0,5.732707184E0
1.281909400E1,4.735326373E0,-1.585949657E0,1.742322330E0,5.289067902E0
1.282913100E1,4.664313693E0,-1.992327052E0,1.334484008E0,5.244619803E0
1.283916900E1,4.683946597E0,-2.340235798E0,1.107132277E0,5.351803546E0
1.284920600E1,4.435289074E0,-2.603527733E0,1.171846336E0,5.274786219E0
1.285924400E1,3.916488725E0,-2.729893665E0,1.484667988E0,4.999544218E0
1.286928100E1,3.429580845E0,-2.883331620E0,1.728991848E0,4.802607502E0
1.287931900E1,3.117503251E0,-3.104559270E0,1.742520843E0,4.732176420E0
1.288935600E1,2.983212881E0,-3.370415209E0,1.524675807E0,4.752251476E0
1.289939400E1,2.843303921E0,-3.647201933E0,1.289759825E0,4.801035256E0
1.290943100E1,2.537695101E0,-3.848933796E0,1.057397907E0,4.729934263E0
1.291946800E1,2.274006141E0,-4.038145017E0,8.326899943E-1,4.708618878E0
1.292950600E1,2.076396126E0,-4.321284741E0,7.078130561E-1,4.846227605E0
1.293954300E1,1.918829890E0,-4.557854900E0,5.419722793E-1,4.974905364E0
1.294958100E1,1.804563455E0,-4.722987871E0,2.818350635E-1,5.063841891E0
1.295961800E1,1.561469704E0,-4.887288784E0,3.796173200E-2,5.130810890E0
1.296965600E1,9.693511185E-1,-5.039102383E0,-5.993980765E-2,5.131840527E0
1.297969300E1,2.720629044E-1,-5.183697594E0,-1.298339152E-1,5.192455663E0
1.298973100E1,-4.007938886E-1,-5.246476809E0,-1.059220192E-1,5.262829479E0
1.299976800E1,-8.734303232E-1,-5.264219601E0,-1.016079435E-1,5.337153989E0
1.300980600E1,-1.138146932E0,-5.207615045E0,-1.080287710E-1,5.331632312E0
1.301984300E1,-1.125275456E0,-5.033562731E0,-6.866853118E-2,5.158266568E0
1.302988100E1,-9.794710408E-1,-4.732337569E0,1.116759717E-1,4.833927379E0
1.303991800E1,-8.835987774E-1,-4.452580460E0,3.325510347E-1,4.551572227E0
1.304995500E1,-9.709823455E-1,-4.345472333E0,3.791983670E-1,4.468750151E0
1.305999300E1,-1.137862465E0,-4.417319995E0,1.723985754E-1,4.564774715E0
1.307003000E1,-1.334882350E0,-4.603247420E0,-3.240059137E-1,4.803829465E0
1.308006800E1,-1.542343169E0,-4.818892148E0,-8.783839381E-1,5.135377526E0
1.309010500E1,-1.763550646E0,-4.988969525E0,-1.301754072E0,5.449265223E0
1.310014300E1,-1.962502744E0,-5.017874066E0,-1.505055329E0,5.594253186E0
1.311018000E1,-2.231465747E0,-4.888085759E0,-1.525156448E0,5.585599696E0
1.312021800E1,-2.615223041E0,-4.628350101E0,-1.480219134E0,5.518338962E0
1.313025500E1,-3.051898077E0,-4.373577560E0,-1.392940085E0,5.512036341E0
1.314029300E1,-3.321158264E0,-4.216486264E0,-1.251881562E0,5.511447730E0
1.315033000E1,-3.275466659E0,-4.057102275E0,-1.021550674E0,5.313410062E0
1.316036800E1,-3.075895634E0,-3.922409323E0,-7.496139237E-1,5.040669587E0
1.317040500E1,-3.031495095E0,-3.707721199E0,-5.601354852E-1,4.821919821E0
1.318044300E1,-3.198924560E0,-3.395886265E0,-5.603527093E-1,4.698846350E0
1.319048000E1,-3.630044740E0,-3.147815802E0,-6.999628767E-1,4.855503802E0
1.320051700E1,-4.226479155E0,-2.875418583E0,-8.808587721E-1,5.187202546E0
1.321055500E1,-5.035687609E0,-2.666778234E0,-8.616541770E-1,5.763011692E0
1.322059200E1,-5.656350254E0,-2.347347182E0,-5.871189237E-1,6.152157802E0
1.323063000E1,-5.558631586E0,-1.999536669E0,-2.290114635E-1,5.911766086E0
1.324066700E1,-4.807974812E0,-1.662249974E0,2.871053052E-1,5.095304331E0
1.325070500E1,-3.902434650E0,-1.151613801E0,7.940384370E-1,4.145564809E0
1.326074200E1,-3.277946756E0,-6.128858489E-1,1.144353020E0,3.525635806E0
1.327078000E1,-3.147568757E0,-2.461233401E-1,1.216852940E0,3.383562746E0
1.328081700E1,-3.810201840E0,1.427363813E-2,1.057343236E0,3.954215031E0
1.329085500E1,-5.112213628E0,-5.161688089E-2,7.727218276E-1,5.170540736E0
1.330089200E1,-5.868829300E0,-1.082144201E-2,2.922099245E-1,5.876109351E0
1.331093000E1,-5.549417544E0,1.946678424E-1,2.375138998E-2,5.552881664E0
1.332096700E1,-4.834790727E0,6.089606130E-1,6.516195595E-2,4.873425950E0
1.333100400E1,-4.518340586E0,1.071679439E0,5.518344855E-1,4.676368224E0
1.334104200E1,-4.682405271E0,1.506513478E0,1.219173700E0,5.067631250E0
1.335107900E1,-4.695526423E0,1.955398961E0,1.609218067E0,5.334897963E0
1.336111700E1,-4.609628194E0,1.962125598E0,1.577243153E0,5.252266645E0
1.337115400E1,-4.803566011E0,1.751481408E0,1.269986588E0,5.268282403E0
1.338119200E1,-5.115914916E0,1.721314453E0,8.758918548E-1,5.468335708E0
1.339122900E1,-5.295118042E0,1.798805848E0,6.169315374E-1,5.626240493E0
1.340126700E1,-4.709018288E0,2.112925875E0,5.710203695E-1,5.192819393E0
1.341130400E1,-3.857602001E0,2.341646147E0,8.926067054E-1,4.600124629E0
1.342134200E1,-3.185423047E0,2.642871893E0,1.449761572E0,4.385601492E0
1.343137900E1,-2.661165784E0,2.977923782E0,1.838411964E0,4.396543180E0
1.344141700E1,-2.544573766E0,3.276336433E0,1.917195008E0,4.569997021E0
1.345145400E1,-2.622798402E0,3.506407996E0,1.527918965E0,4.637726259E0
1.346149100E1,-3.022936525E0,3.297530251E0,1.016364194E0,4.587466312E0
1.347152900E1,-3.484643783E0,3.132239404E0,8.075016510E-1,4.754547812E0
1.348156600E1,-3.128218274E0,3.163055985E0,8.757982993E-1,4.534059483E0
1.349160400E1,-2.088976264E0,3.337850896E0,1.223958476E0,4.123486969E0
1.350164100E1,-7.729583475E-1,3.742200476E0,1.687284828E0,4.177135274E0
1.351167900E1,3.682180269E-1,4.127227932E0,2.271933303E0,4.725597936E0
1.352171600E1,9.462280849E-1,4.345717916E0,2.776518193E0,5.243058751E0
1.353175400E1,9.475099408E-1,4.294774634E0,2.983656392E0,5.314609084E0
1.354179100E1,5.438688602E-1,4.089440301E0,2.701607759E0,4.931328401E0
1.355182900E1,2.367711755E-1,3.975036018E0,1.927493709E0,4.424048365E0
1.356186600E1,5.192045737E-1,3.909018030E0,1.233074285E0,4.131642233E0
1.357190400E1,1.106831876E0,3.747107459E0,1.237340999E0,4.098402599E0
1.358194100E1,1.321880335E0,3.668583446E0,1.820539949E0,4.303514590E0
1.359197800E1,1.165409429E0,3.893101324E0,2.529017249E0,4.786475248E0
1.360201600E1,1.213051446E0,4.125987738E0,3.083326861E0,5.291707962E0
1.361205300E1,1.601958603E0,4.020417429E0,3.448293105E0,5.533602172E0
1.362209100E1,2.062085650E0,3.713001820E0,3.403800471E0,5.442833581E0
1.363212800E1,2.475778350E0,3.531596632E0,2.854105482E0,5.171805421E0
1.364216600E1,2.564438512E0,3.542349077E0,2.242832880E0,4.914761560E0
1.365220300E1,2.425901308E0,3.376579928E0,2.011111232E0,4.618534135E0
1.366224100E1,2.238950767E0,3.071717214E0,2.146987660E0,4.365535843E0
1.367227800E1,2.030304133E0,2.776828095E0,2.361876343E0,4.172693255E0
1.368231600E1,1.943885209E0,2.533302673E0,2.385858698E0,3.986054925E0
1.369235300E1,1.980860223E0,2.451266237E0,2.329666371E0,3.919165574E0
1.370239100E1,2.099224533E0,2.477228460E0,2.309776483E0,3.984780029E0
1.371242800E1,2.354004237E0,2.455755145E0,2.302189136E0,4.107571557E0
1.372246500E1,2.785171780E0,2.176348869E0,2.400610639E0,4.272775173E0
1.373250300E1,3.287400827E0,1.880013734E0,2.590445758E0,4.588231147E0
1.374254021E1,3.654954756E0,1.727286800E0,2.848471690E0,4.945301298E0
1.375257821E1,3.802710387E0,1.584538724E0,3.076610749E0,5.141682891E0
1.376261521E1,3.788344071E0,1.434117932E0,3.238062898E0,5.185874697E0
1.377265321E1,3.536712361E0,1.330492991E0,3.177195137E0,4.936913496E0
1.378269021E1,3.232701878E0,1.186545067E0,2.898862410E0,4.501294691E0
1.379272821E1,3.214266192E0,8.682928133E-1,2.567736341E0,4.204605746E0
1.380276521E1,3.496292898E0,4.234272909E-1,2.345221134E0,4.231242946E0
1.381280321E1,3.904105784E0,1.215834939E-1,2.265983176E0,4.515695326E0
1.382284021E1,4.069529947E0,3.499792457E-2,2.340662645E0,4.694784389E0
1.383287821E1,3.917223136E0,-9.021669030E-2,2.431571646E0,4.611433271E0
1.384291521E1,3.822107940E0,-2.676270604E-1,2.344894275E0,4.492066619E0
1.385295221E1,4.068767762E0,-4.945387888E-1,2.019518651E0,4.569233557E0
1.386299021E1,4.558601004E0,-6.467809886E-1,1.667782609E0,4.897005983E0
1.387302721E1,5.015463259E0,-7.046672541E-1,1.616041768E0,5.316297456E0
1.388306521E1,5.158665079E0,-7.547615200E-1,1.773847301E0,5.507088577E0
1.389310221E1,4.924465381E0,-9.911223489E-1,2.120007730E0,5.452257842E0
1.390314021E1,4.679616734E0,-1.185260434E0,2.254306871E0,5.327809544E0
1.391317721E1,4.554513801E0,-1.445869666E0,2.170877629E0,5.248508810E0
1.392321521E1,4.668056788E0,-1.816755631E0,1.814400665E0,5.327607810E0
1.393325221E1,4.934240171E0,-2.178371421E0,1.489593098E0,5.595615758E0
1.394329021E1,4.932012382E0,-2.519099786E0,1.313043730E0,5.691633659E0
1.395332721E1,4.456336711E0,-2.748964943E0,1.115264000E0,5.353462331E0
1.396336521E1,3.675581394E0,-2.951688495E0,1.030576437E0,4.825396496E0
1.397340221E1,2.941021127E0,-3.191506782E0,1.042622578E0,4.463449636E0
1.398343921E1,2.367989607E0,-3.473364211E0,1.136150839E0,4.354592111E0
1.399347721E1,2.132089832E0,-3.759103022E0,1.167061852E0,4.476460203E0
1.400351421E1,2.190362159E0,-4.027331176E0,1.094887330E0,4.713370456E0
1.401355221E1,2.303463244E0,-4.284140888E0,9.130921331E-1,4.949095201E0
1.402358921E1,2.240371933E0,-4.560042928E0,7.700351782E-1,5.138697508E0
1.403362721E1,1.928077554E0,-4.723346890E0,6.692997855E-1,5.145430118E0
1.404366421E1,1.569491353E0,-4.844578966E0,5.735820347E-1,5.124670216E0
1.405370221E1,1.222856349E0,-5.076065556E0,4.440597761E-1,5.240134375E0
1.406373921E1,8.014458360E-1,-5.468500265E0,2.159351890E-1,5.531133572E0
1.407377721E1,3.050866628E-1,-5.887661428E0,1.603993580E-2,5.895582434E0
1.408381421E1,-3.088092195E-1,-6.156516988E0,-1.430989087E-1,6.165917763E0
1.409385221E1,-1.192800564E0,-6.201658078E0,-1.885085316E-1,6.318138299E0
1.410388921E1,-2.000186002E0,-5.988400767E0,-5.550235569E-2,6.313855265E0
1.411392621E1,-2.360601504E0,-5.726015736E0,5.086960673E-2,6.193729360E0
1.412396421E1,-2.260874172E0,-5.669584258E0,8.003771111E-2,6.104272578E0
1.413400121E1,-2.033303462E0,-5.610177716E0,5.832597613E-5,5.967278859E0
1.414403921E1,-1.803984143E0,-5.535043334E0,-2.063377154E-1,5.825258685E0
1.415407621E1,-1.657034404E0,-5.544013547E0,-3.583694154E-1,5.797437181E0
1.416411421E1,-1.591299859E0,-5.442651479E0,-4.930056489E-1,5.691901698E0
1.417415121E1,-1.774962657E0,-5.227689705E0,-5.390056944E-1,5.547049597E0
1.418418921E1,-2.194865246E0,-5.106503822E0,-5.185231903E-1,5.582354435E0
1.419422621E1,-2.608489680E0,-5.001256279E0,-5.594080916E-1,5.668308407E0
1.420426421E1,-2.803224473E0,-4.902466401E0,-7.765207636E-1,5.700458645E0
1.421430121E1,-2.863892552E0,-4.868791117E0,-1.092480032E0,5.753305146E0
1.422433921E1,-2.764266522E0,-4.778618866E0,-1.303417459E0,5.672324456E0
1.423437621E1,-2.743228240E0,-4.596378111E0,-1.265960488E0,5.500422608E0
1.424441321E1,-2.989518811E0,-4.313941807E0,-1.150474763E0,5.373165623E0
1.425445121E1,-3.295039044E0,-3.975980344E0,-1.058627577E0,5.271280143E0
1.426448821E1,-3.624341074E0,-3.683621900E0,-1.025305756E0,5.268412514E0
1.427452621E1,-3.903797636E0,-3.483086962E0,-1.022986458E0,5.330856597E0
1.428456321E1,-4.081638069E0,-3.155677968E0,-9.927543068E-1,5.253916052E0
1.429460121E1,-4.107626896E0,-2.712180694E0,-8.298087788E-1,4.991703661E0
1.430463821E1,-4.116279021E0,-2.081273727E0,-6.474095643E-1,4.657745425E0
1.431467621E1,-4.225728958E0,-1.619614416E0,-5.134258801E-1,4.554507900E0
1.432471321E1,-4.398299587E0,-1.637095252E0,-5.001795977E-1,4.719671573E0
1.433475121E1,-4.650981749E0,-1.796855217E0,-5.489977089E-1,5.016145770E0
1.434478821E1,-5.007295284E0,-1.619692769E0,-6.536979523E-1,5.303181285E0
1.435482621E1,-5.222981527E0,-9.041303980E-1,-5.604541585E-1,5.330206063E0
1.436486321E1,-5.066058047E0,9.429804683E-2,-5.234865993E-2,5.067205999E0
1.437490021E1,-4.365271297E0,8.020976543E-1,6.831854609E-1,4.490623177E0
1.438493821E1,-3.731914639E0,1.092833496E0,1.310815941E0,4.103621614E0
1.439497521E1,-3.516783296E0,1.177015275E0,1.627480676E0,4.049916426E0
1.440501321E1,-3.854642433E0,1.237822809E0,1.590466339E0,4.349719160E0
1.441505021E1,-4.555019293E0,1.541337156E0,1.221096556E0,4.961350399E0
1.442508821E1,-4.839974284E0,1.958446530E0,6.814640406E-1,5.265477863E0
1.443512521E1,-4.836802170E0,2.205921746E0,4.502323893E-1,5.335115293E0
1.444516321E1,-4.702189325E0,2.318569525E0,6.154820126E-1,5.278746745E0
1.445520021E1,-4.672821392E0,2.310641286E0,8.549406964E-1,5.282541671E0
1.446523821E1,-4.723833379E0,2.256162193E0,1.079699188E0,5.345149199E0
1.447527521E1,-4.767134057E0,2.068631462E0,1.181946232E0,5.329333930E0
1.448531321E1,-4.925041916E0,2.075492000E0,1.124662814E0,5.461553933E0
1.449535021E1,-4.758242196E0,2.426786284E0,8.793323565E-1,5.413260188E0
1.450538721E1,-4.284719762E0,2.666526804E0,7.188514298E-1,5.097640240E0
1.451542521E1,-4.022930854E0,2.793050026E0,7.019728571E-1,4.947511192E0
1.452546221E1,-4.188738887E0,2.956876729E0,8.894252354E-1,5.203818858E0
1.453550021E1,-4.066104356E0,3.295103656E0,1.244754099E0,5.379621316E0
1.454553721E1,-3.371563310E0,3.400460542E0,1.665189369E0,5.069854700E0
1.455557521E1,-2.654317233E0,3.136400868E0,2.020197220E0,4.578603192E0
1.456561221E1,-2.538891442E0,2.976770711E0,2.138269461E0,4.458624217E0
1.457565021E1,-2.418112525E0,3.220327708E0,1.763755299E0,4.396431676E0
1.458568721E1,-2.120431068E0,3.331424806E0,1.326046768E0,4.165695522E0
1.459572521E1,-1.887638210E0,3.263436306E0,1.222891944E0,3.963415098E0
1.460576221E1,-1.519385685E0,3.343343185E0,1.184262314E0,3.858620705E0
1.461579921E1,-1.016818450E0,3.368238291E0,1.339239256E0,3.764639522E0
1.462583721E1,-2.816504012E-1,3.388713486E0,1.656496899E0,3.782418275E0
1.463587421E1,4.723556221E-1,3.482651344E0,2.031309854E0,4.059334913E0
1.464591221E1,9.033688713E-1,3.755369575E0,2.376101450E0,4.534835616E0
1.465594921E1,1.070451451E0,4.024083048E0,2.709759947E0,4.968089135E0
1.466598721E1,1.111526752E0,4.132734255E0,2.864503586E0,5.149792708E0
1.467602421E1,1.156092914E0,4.110522437E0,2.786919805E0,5.099006524E0
1.468606221E1,1.246052911E0,3.983572953E0,2.445758745E0,4.837689239E0
1.469609921E1,1.453337730E0,3.927375364E0,2.039638043E0,4.657959977E0
1.470613721E1,1.717396527E0,4.021352398E0,1.953316768E0,4.789172406E0
1.471617421E1,1.800861729E0,4.163297067E0,2.334800811E0,5.101709543E0
1.472621221E1,1.698851790E0,4.208071536E0,2.991218011E0,5.435195364E0
1.473624900E1,1.556722350E0,4.113848333E0,3.545877872E0,5.649812604E0
1.474628600E1,1.404091310E0,3.910317866E0,3.811176571E0,5.638007190E0
1.475632400E1,1.278426459E0,3.693468027E0,3.785550563E0,5.441183083E0
1.476636100E1,1.174927088E0,3.466258090E0,3.678586278E0,5.189161379E0
1.477639900E1,1.330718109E0,3.174117163E0,3.602552594E0,4.982390555E0
1.478643600E1,1.883798051E0,2.892737451E0,3.647748063E0,5.022219727E0
1.479647400E1,2.523029700E0,2.641500721E0,3.865225893E0,5.318192939E0
1.480651100E1,2.899858190E0,2.381711853E0,4.139483112E0,5.587221967E0
1.481654900E1,2.999371077E0,2.095764297E0,4.257265915E0,5.613623421E0
1.482658600E1,3.052622254E0,1.757625078E0,4.024222797E0,5.348094769E0
1.483662400E1,3.252678891E0,1.515379611E0,3.513690119E0,5.022182153E0
1.484666100E1,3.557059794E0,1.393792024E0,3.125805713E0,4.936192049E0
1.485669800E1,3.941306355E0,1.208871490E0,3.135600384E0,5.179503435E0
1.486673600E1,4.406404998E0,1.004201401E0,3.422198735E0,5.668886102E0
1.487677300E1,5.015832219E0,7.686451489E-1,3.677702179E0,6.266967490E0
1.488681100E1,5.551500907E0,3.998840618E-1,3.634830101E0,6.647635628E0
1.489684800E1,5.729623468E0,-1.167688966E-3,3.338117236E0,6.631109495E0
1.490688600E1,5.652194054E0,-2.986424464E-1,2.878986554E0,6.350200667E0
1.491692300E1,5.519775669E0,-6.567826509E-1,2.530757672E0,6.107701800E0
1.492696100E1,5.574023212E0,-1.038288329E0,2.250886542E0,6.100349798E0
1.493699800E1,5.866001002E0,-1.349591752E0,2.141321708E0,6.388788955E0
1.494703600E1,6.156251525E0,-1.643535960E0,2.079415774E0,6.702582581E0
1.495707300E1,6.117051206E0,-1.999026791E0,2.070937311E0,6.760414552E0
1.496711100E1,5.756766243E0,-2.361987441E0,2.040508693E0,6.548512654E0
1.497714800E1,5.349717588E0,-2.755758238E0,1.737624092E0,6.263626683E0
1.498718500E1,4.917868552E0,-3.078466070E0,1.302593294E0,5.946354659E0
1.499722300E1,4.530011921E0,-3.369500704E0,1.083991336E0,5.748876431E0
1.500726000E1,4.205001748E0,-3.550506527E0,1.036031304E0,5.600133674E0
1.501729800E1,3.930552448E0,-3.806955466E0,1.183201629E0,5.598403215E0
1.502733500E1,3.756262445E0,-4.067696260E0,1.343396042E0,5.697400578E0
1.503737300E1,3.572331552E0,-4.302733279E0,1.303390562E0,5.742289905E0
1.504741000E1,3.258667901E0,-4.518138857E0,1.060689012E0,5.670763300E0
1.505744800E1,2.961973455E0,-4.729777658E0,7.057045501E-1,5.625131319E0
1.506748500E1,2.698707540E0,-4.992674321E0,4.008371580E-1,5.689506981E0
1.507752300E1,2.362638528E0,-5.238076699E0,2.955293888E-1,5.753854877E0
1.508756000E1,1.933295901E0,-5.436573299E0,3.595853439E-1,5.781285661E0
1.509759800E1,1.516427140E0,-5.602550023E0,5.113992351E-1,5.826632579E0
1.510763500E1,1.043797868E0,-5.768789873E0,5.237736976E-1,5.885812558E0
1.511767200E1,4.711522651E-1,-5.957711656E0,2.498095711E-1,5.981531364E0
1.512771000E1,-1.474411972E-1,-6.149153590E0,-2.556573714E-1,6.156231759E0
1.513774700E1,-6.212862512E-1,-6.195567618E0,-6.503643085E-1,6.260513433E0
1.514778500E1,-9.904275535E-1,-6.031902882E0,-7.104080504E-1,6.153818223E0
1.515782200E1,-1.166327003E0,-5.819558907E0,-4.921784140E-1,5.955654804E0
1.516786000E1,-1.094939955E0,-5.741385727E0,-1.199914433E-1,5.846092842E0
1.517789700E1,-9.034196690E-1,-5.651260253E0,5.481223807E-2,5.723278250E0
1.518793500E1,-7.028043312E-1,-5.505284514E0,-1.804766500E-1,5.552896842E0
1.519797200E1,-6.515204492E-1,-5.437710582E0,-6.277278364E-1,5.512460204E0
1.520801000E1,-8.025484747E-1,-5.437259762E0,-9.675767809E-1,5.580688362E0
1.521804700E1,-1.087370442E0,-5.422864501E0,-1.091912559E0,5.637562143E0
1.522808400E1,-1.413197910E0,-5.386618781E0,-9.860050119E-1,5.655527925E0
1.523812200E1,-1.684273512E0,-5.289225218E0,-7.844098270E-1,5.606066308E0
1.524815900E1,-2.064288150E0,-5.153679743E0,-6.709007531E-1,5.592120195E0
1.525819700E1,-2.704281398E0,-4.979775948E0,-7.025450072E-1,5.710067938E0
1.526823400E1,-3.486582427E0,-4.802815229E0,-8.963670498E-1,6.002230005E0
1.527827200E1,-4.201715612E0,-4.713905976E0,-1.147930786E0,6.418182665E0
1.528830900E1,-4.670696806E0,-4.628517916E0,-1.357195763E0,6.714206364E0
1.529834700E1,-4.612486605E0,-4.427400595E0,-1.377039751E0,6.540118285E0
1.530838400E1,-4.224010461E0,-4.076519709E0,-1.130936292E0,5.978235041E0
1.531842200E1,-3.909206311E0,-3.670077994E0,-7.828430656E-1,5.418875320E0
1.532845900E1,-3.951880460E0,-3.136372801E0,-4.161106700E-1,5.062345465E0
1.533849700E1,-4.237671019E0,-2.616195141E0,-2.113876632E-1,4.984678267E0
1.534853400E1,-4.639899521E0,-2.335310689E0,-3.081479725E-1,5.203585183E0
1.535857100E1,-4.942537955E0,-2.378274275E0,-4.983918115E-1,5.507564286E0
1.536860900E1,-4.873243772E0,-2.331662611E0,-5.597948849E-1,5.431254524E0
1.537864600E1,-4.374792611E0,-2.030664321E0,-7.083167937E-1,4.874845706E0
1.538868400E1,-3.776507844E0,-1.629822485E0,-7.410734805E-1,4.179416554E0
1.539872100E1,-3.518214987E0,-9.814662570E-1,-4.658880168E-1,3.682141272E0
1.540875900E1,-3.577596970E0,-3.187083364E-1,-1.257940739E-1,3.593967060E0
1.541879600E1,-3.999177710E0,-7.388190866E-2,-1.782231331E-3,3.999860506E0
1.542883400E1,-4.536979463E0,-3.340806663E-2,-3.838375479E-2,4.537264821E0
1.543887100E1,-4.720230617E0,6.658224463E-3,-2.709728372E-1,4.728006735E0
1.544890900E1,-4.517260313E0,9.890506804E-2,-4.642835408E-1,4.542134097E0
1.545894600E1,-4.050394349E0,2.808405983E-1,-4.389270902E-1,4.083775559E0
1.546898300E1,-3.512789648E0,7.099765259E-1,-2.337447846E-1,3.591433474E0
1.547902100E1,-3.088915629E0,1.330883585E0,-1.163654387E-2,3.363448571E0
1.548905800E1,-3.047072369E0,1.920887525E0,1.737184381E-1,3.606194255E0
1.549909600E1,-3.103533961E0,2.310343663E0,3.603861201E-1,3.885806099E0
1.550913300E1,-3.019088765E0,2.349614732E0,5.971597624E-1,3.871974450E0
1.551917100E1,-2.916457266E0,2.150084345E0,8.221553582E-1,3.715444134E0
1.552920800E1,-2.988940521E0,2.098794909E0,1.032382641E0,3.795328632E0
1.553924600E1,-3.094991764E0,2.418795480E0,1.049952940E0,4.065949676E0
1.554928300E1,-2.996960562E0,2.882829344E0,9.330831787E-1,4.261821425E0
1.555932100E1,-2.749251749E0,3.198887722E0,8.595857245E-1,4.304666707E0
1.556935800E1,-2.521699166E0,3.301478291E0,9.987137890E-1,4.272722179E0
1.557939600E1,-2.500620538E0,3.149892148E0,1.356761023E0,4.244493385E0
1.558943300E1,-2.816563434E0,2.801864703E0,1.668863760E0,4.309127712E0
1.559947000E1,-3.371716214E0,2.423527046E0,1.754939452E0,4.507966954E0
1.560950800E1,-3.792773629E0,2.407195773E0,1.482122403E0,4.730371033E0
1.561954500E1,-3.518498869E0,2.809933276E0,9.709324980E-1,4.606329257E0
1.562958300E1,-2.460489051E0,3.213609842E0,8.368049723E-1,4.132981629E0
1.563962000E1,-1.723841912E0,3.331178638E0,1.485660553E0,4.034299113E0
1.564965800E1,-1.485648712E0,3.413895689E0,2.503547947E0,4.486600962E0
1.565969500E1,-1.481766892E0,3.196912533E0,3.137584344E0,4.718084186E0
1.566973300E1,-1.634561508E0,2.764917317E0,3.101017612E0,4.464624208E0
1.567977000E1,-1.817967613E0,2.587298201E0,2.383075424E0,3.959566479E0
1.568980800E1,-1.851451254E0,2.636050531E0,1.497533324E0,3.552356993E0
1.569984500E1,-1.523634272E0,2.728066995E0,1.053285268E0,3.297456713E0
1.570988200E1,-7.873618669E-1,2.972047330E0,1.169479383E0,3.289481125E0
1.571992000E1,1.595224584E-2,3.135623773E0,1.836053782E0,3.633659919E0
1.572995700E1,4.629095548E-1,3.174132950E0,2.464682674E0,4.045252270E0
1.573999437E1,5.370839704E-1,3.055241514E0,2.674847977E0,4.096067822E0
1.575003137E1,3.166983194E-1,2.916185955E0,2.433615248E0,3.811419883E0
1.576006938E1,3.213675039E-1,3.006973334E0,1.932189023E0,3.588665508E0
1.577010638E1,8.600050429E-1,3.072743985E0,1.635360383E0,3.585494088E0
1.578014438E1,1.382842236E0,2.984774964E0,1.703960502E0,3.704674835E0
1.579018138E1,1.548700408E0,2.928651634E0,2.013089345E0,3.876596711E0
1.580021937E1,1.424220496E0,2.891998948E0,2.384952965E0,4.009995334E0
1.581025637E1,1.177710436E0,2.846067899E0,2.568012915E0,4.010211302E0
1.582029438E1,1.143461905E0,2.804112958E0,2.527290566E0,3.944331656E0
1.583033138E1,1.434595795E0,2.792084650E0,2.456160357E0,3.985790447E0
1.584036838E1,1.835649885E0,2.736018623E0,2.448689954E0,4.105056747E0
1.585040637E1,2.074402518E0,2.639719659E0,2.481340806E0,4.174723689E0
1.586044337E1,2.160507738E0,2.620538453E0,2.414763824E0,4.167265266E0
1.587048138E1,2.243440113E0,2.620847186E0,2.366121422E0,4.183347236E0
1.588051838E1,2.288519515E0,2.441589096E0,2.429232175E0,4.135196228E0
1.589055638E1,2.312765433E0,2.220263212E0,2.515304943E0,4.074949280E0
1.590059338E1,2.337880686E0,2.060800286E0,2.587559572E0,4.050684937E0
1.591063137E1,2.286806281E0,1.959096156E0,2.603501421E0,3.980673355E0
1.592066837E1,2.221596231E0,1.793719355E0,2.541510994E0,3.822590362E0
1.593070638E1,2.319972565E0,1.595508100E0,2.426013283E0,3.716646236E0
1.594074338E1,2.531215217E0,1.319382112E0,2.328605686E0,3.683778505E0
1.595078038E1,2.610133333E0,1.033521094E0,2.250326087E0,3.597906247E0
1.596081837E1,2.617070177E0,7.812055528E-1,2.250712003E0,3.539073741E0
1.597085537E1,2.537721706E0,4.763217884E-1,2.259097203E0,3.430806622E0
1.598089338E1,2.520859213E0,1.995362341E-1,2.065906075E0,3.265350485E0
1.599093038E1,2.571257242E0,1.578338921E-2,1.738608471E0,3.103928533E0
1.600096838E1,2.693031063E0,-1.323172277E-1,1.505610668E0,3.088168978E0
1.601100538E1,2.900351403E0,-2.314602774E-1,1.293271955E0,3.184048441E0
1.602104337E1,3.209800089E0,-3.171114618E-1,1.276554766E0,3.468856924E0
1.603108037E1,3.607620376E0,-4.405099314E-1,1.575386662E0,3.961163580E0
1.604111838E1,3.854085486E0,-6.341948569E-1,1.903904287E0,4.345230671E0
1.605115538E1,3.884507087E0,-7.847197294E-1,2.001663886E0,4.439801648E0
1.606119337E1,3.640174164E0,-7.996985418E-1,1.939433139E0,4.201402933E0
1.607123037E1,3.315214570E0,-9.472559524E-1,1.752102090E0,3.867531928E0
1.608126737E1,3.066488634E0,-1.157143512E0,1.465909828E0,3.590435248E0
1.609130538E1,3.023864771E0,-1.388347682E0,1.342996385E0,3.588162026E0
1.610134238E1,3.340891448E0,-1.578442417E0,1.285505683E0,3.912232226E0
1.611138038E1,3.964580905E0,-1.696152130E0,1.171794004E0,4.468549539E0
1.612141738E1,4.462533005E0,-1.795049012E0,1.161993778E0,4.948396844E0
1.613145537E1,4.501952302E0,-1.960711157E0,1.318231380E0,5.084259704E0
1.614149237E1,4.343276996E0,-2.064010992E0,1.355064453E0,4.996038041E0
1.615153038E1,4.036299343E0,-2.212258959E0,1.226774203E0,4.763483708E0
1.616156738E1,3.701161793E0,-2.401503509E0,1.029515752E0,4.530532022E0
1.617160537E1,3.575475892E0,-2.598713720E0,8.812134057E-1,4.507091959E0
1.618164237E1,3.558806065E0,-2.830721882E0,7.087988967E-1,4.602225859E0
1.619167937E1,3.485945373E0,-3.167927300E0,6.194322453E-1,4.750923576E0
1.620171738E1,3.307762001E0,-3.487599843E0,6.145271623E-1,4.845852428E0
1.621175438E1,2.993211912E0,-3.689491920E0,4.856442967E-1,4.775721784E0
1.622179238E1,2.524192126E0,-3.900491620E0,2.476155496E-1,4.652600803E0
1.623182938E1,2.128181991E0,-4.162365021E0,-1.143364549E-2,4.674887365E0
1.624186737E1,1.952409718E0,-4.404563125E0,-1.332748555E-1,4.819734662E0
1.625190437E1,1.818032517E0,-4.595605693E0,-1.652358824E-1,4.944910193E0
1.626194238E1,1.574155823E0,-4.660588140E0,-3.417185917E-2,4.919371513E0
1.627197938E1,1.286618409E0,-4.637896850E0,1.235920125E-1,4.814639042E0
1.628201737E1,8.099032487E-1,-4.764596658E0,1.630088241E-1,4.835689864E0
1.629205437E1,2.660184914E-1,-5.007335045E0,1.647219121E-2,5.014423339E0
1.630209137E1,-3.029752332E-1,-5.180369359E0,-2.661782666E-1,5.196043837E0
1.631212938E1,-9.589343038E-1,-5.294136295E0,-5.485319781E-1,5.408171728E0
1.632216638E1,-1.603164737E0,-5.392321571E0,-7.799383150E-1,5.679398988E0
1.633220438E1,-1.976843040E0,-5.364665410E0,-9.070521055E-1,5.788807035E0
1.634224138E1,-2.114563387E0,-5.157376937E0,-8.105616452E-1,5.632665921E0
1.635227937E1,-1.862917352E0,-4.869127917E0,-6.696674292E-1,5.256169917E0
1.636231637E1,-1.456008153E0,-4.388756931E0,-4.601614000E-1,4.646815647E0
1.637235438E1,-1.098936381E0,-3.997163052E0,-2.300068058E-1,4.151852209E0
1.638239138E1,-1.000217839E0,-3.968109407E0,1.047821045E-2,4.092241169E0
1.639242938E1,-1.135603247E0,-4.054414895E0,9.597502828E-2,4.211542007E0
1.640246637E1,-1.407119437E0,-4.106303671E0,-6.976079106E-2,4.341264967E0
1.641250337E1,-1.737925078E0,-4.057915038E0,-4.050769740E-1,4.432961243E0
1.642254138E1,-2.170941802E0,-3.895328529E0,-6.953159483E-1,4.513317729E0
1.643257838E1,-2.779337720E0,-3.709056119E0,-8.873443575E-1,4.719024842E0
1.644261638E1,-3.334938397E0,-3.588802866E0,-8.990281177E-1,4.980920767E0
1.645265338E1,-3.594610321E0,-3.624832824E0,-7.432427976E-1,5.158783405E0
1.646269137E1,-3.697887060E0,-3.582857417E0,-6.049127318E-1,5.184318219E0
1.647272837E1,-3.626310416E0,-3.315124522E0,-4.719895864E-1,4.935884115E0
1.648276638E1,-3.641802614E0,-2.754961263E0,-3.577117498E-1,4.580447089E0
1.649280338E1,-3.809556307E0,-2.144241223E0,-2.321169198E-1,4.377712638E0
1.650284138E1,-4.087349629E0,-1.817794096E0,-1.616030073E-1,4.476261599E0
1.651287837E1,-4.349839618E0,-1.710131654E0,-2.494363725E-2,4.674000124E0
1.652291638E1,-4.265563699E0,-1.792255797E0,8.139178008E-2,4.627508956E0
1.653295338E1,-3.982543551E0,-1.855648971E0,1.013620681E-1,4.394810634E0
