"Time (s)","Linear Acceleration x (m/s^2)","Linear Acceleration y (m/s^2)","Linear Acceleration z (m/s^2)","Absolute acceleration (m/s^2)"
4.499916657E-3,-8.993047823E-2,-1.387408327E-1,-5.551872790E-2,1.744099731E-1
1.444591666E-2,-5.531704464E-2,-1.317442920E-1,-7.677452624E-2,1.622062322E-1
2.439191667E-2,-2.413700015E-2,-9.821039141E-2,-4.324366808E-2,1.099904113E-1
3.433791664E-2,6.484324615E-3,-6.551637488E-2,1.288901746E-2,6.708627739E-2
4.428391665E-2,2.303326510E-2,-4.219021909E-2,2.800640881E-2,5.563186877E-2
5.422991666E-2,-1.495790854E-3,-2.255881380E-2,1.019169688E-2,2.479935797E-2
6.417591666E-2,-3.089083572E-2,-1.934800719E-2,-5.528542399E-3,3.686670442E-2
7.412579167E-2,-6.385012855E-2,-2.607835797E-2,-5.807045281E-2,9.016150598E-2
8.407179164E-2,-1.020986710E-1,-4.543206163E-2,-7.423858881E-2,1.341625094E-1
9.401779165E-2,-1.120769354E-1,-4.531214803E-2,-5.597831905E-2,1.332216289E-1
1.039637917E-1,-1.329333598E-1,-4.889197333E-2,-5.373474240E-2,1.514896886E-1
1.139097917E-1,-1.503380540E-1,-3.133047325E-2,-5.014221311E-2,1.615468061E-1
1.238557917E-1,-1.634162837E-1,-1.597404955E-2,9.883548617E-3,1.644923602E-1
1.338017916E-1,-1.504784603E-1,9.697122937E-3,2.739654422E-2,1.532591656E-1
1.437477916E-1,-1.205000597E-1,3.730389740E-2,3.745141625E-3,1.261977466E-1
1.536937917E-1,-9.078929717E-2,5.926613075E-2,-2.230069578E-2,1.106909742E-1
1.636397917E-1,-7.221759008E-2,5.743571014E-2,-4.161112547E-2,1.012211780E-1
1.735857917E-1,-5.575761407E-2,4.828774582E-2,-6.616066039E-2,9.908506903E-2
1.835317916E-1,-6.807325722E-2,1.589208347E-2,-7.125183105E-2,9.981658226E-2
1.934777916E-1,-1.030807749E-1,-1.185076210E-2,-6.646354616E-2,1.232213037E-1
2.034237917E-1,-1.214224945E-1,-4.972596444E-2,-2.919222414E-2,1.344183011E-1
2.133697917E-1,-1.183372020E-1,-7.410989982E-2,9.276607633E-3,1.399357927E-1
2.233157917E-1,-1.054050065E-1,-9.704706045E-2,3.382497311E-2,1.472157470E-1
2.332617916E-1,-7.182600936E-2,-1.020094553E-1,-1.801527143E-3,1.247723932E-1
2.432077916E-1,-3.822065402E-2,-8.837885560E-2,-2.814732671E-2,1.003190536E-1
2.531537917E-1,-1.598941220E-2,-7.747029008E-2,-5.135024786E-2,9.430882834E-2
2.630997917E-1,-4.384571202E-3,-5.988059089E-2,-7.455258429E-2,9.572354702E-2
2.730457917E-1,-3.531846162E-3,-4.608962671E-2,-6.736811042E-2,8.170183553E-2
2.829917916E-1,-6.278173719E-4,-4.573857450E-2,-3.578437507E-2,5.807695628E-2
2.929377916E-1,-3.754323581E-3,-6.525303547E-2,-5.548422933E-3,6.559602565E-2
3.028837916E-1,-1.536367790E-2,-7.817703573E-2,2.169433951E-2,8.257321528E-2
3.128297917E-1,-3.729646504E-2,-9.315707233E-2,3.501488149E-2,1.062793882E-1
3.227757917E-1,-6.989178240E-2,-9.887638014E-2,7.355797291E-4,1.210865016E-1
3.327217917E-1,-1.003640580E-1,-9.730041848E-2,-4.162749767E-2,1.458532280E-1
3.426677916E-1,-1.162797130E-1,-7.452302387E-2,-7.470987439E-2,1.570229858E-1
3.526137916E-1,-1.176392089E-1,-4.287043300E-2,-7.276450574E-2,1.448155061E-1
3.625597917E-1,-9.856428500E-2,-4.617861402E-3,-6.393228650E-2,1.175737223E-1
3.725057917E-1,-8.415385857E-2,2.776478633E-2,-4.911310315E-2,1.013156068E-1
3.824517917E-1,-8.520794710E-2,4.558902739E-2,-1.588279188E-2,9.793373650E-2
3.923977916E-1,-9.010997862E-2,5.926756058E-2,2.917351305E-2,1.117297894E-1
4.023437916E-1,-1.142989048E-1,4.716679804E-2,3.231580675E-2,1.278016347E-1
4.122897917E-1,-1.358582558E-1,3.246692986E-2,-1.244170547E-2,1.402368113E-1
4.222357917E-1,-1.574008327E-1,1.142776173E-2,-5.959482193E-2,1.686924974E-1
4.321817917E-1,-1.515554078E-1,-3.949711947E-3,-8.294743180E-2,1.728146935E-1
4.421277916E-1,-1.365648736E-1,-3.332718319E-2,-6.678221941E-2,1.556294659E-1
4.520737916E-1,-1.073008475E-1,-3.635170574E-2,-5.750210345E-2,1.270488500E-1
4.620197917E-1,-9.529031932E-2,-3.926855729E-2,-4.193506122E-2,1.112691058E-1
4.719657917E-1,-7.166862790E-2,-4.399898673E-2,7.013150454E-3,8.438890530E-2
4.819117917E-1,-3.514024488E-2,-4.173303992E-2,3.455529034E-2,6.457980738E-2
4.918577916E-1,-1.833144134E-2,-4.335374191E-2,2.751875103E-2,5.452403449E-2
5.018037916E-1,4.802569463E-3,-5.154061127E-2,-1.723876119E-2,5.455890552E-2
5.117497917E-1,1.005780478E-2,-7.150296897E-2,-4.732619405E-2,8.633424958E-2
5.216957917E-1,1.206737403E-2,-8.762523173E-2,-6.663662374E-2,1.107440399E-1
5.316417917E-1,-1.012416154E-2,-1.000612453E-1,-6.064965963E-2,1.174441683E-1
5.415877917E-1,-4.239090193E-2,-1.154412680E-1,-4.957327902E-2,1.325940606E-1
5.515337916E-1,-5.698732463E-2,-1.212699187E-1,-3.176090598E-2,1.377051325E-1
5.614797916E-1,-5.824109101E-2,-1.138915914E-1,8.504775167E-3,1.282016009E-1
5.714257917E-1,-6.012281637E-2,-8.851346947E-2,3.365189552E-2,1.121687898E-1
5.813717917E-1,-4.869369334E-2,-5.423775370E-2,2.067575455E-3,7.291834176E-2
5.913177917E-1,-5.095995992E-2,-2.789549444E-2,-2.787016869E-2,6.443463686E-2
6.012637916E-1,-6.393357472E-2,5.498936302E-3,-3.355892479E-2,7.241506549E-2
6.112097916E-1,-8.703966049E-2,2.115709460E-2,-7.891402245E-2,1.193773349E-1
6.211557917E-1,-1.140093762E-1,3.354058372E-2,-6.888604760E-2,1.373622808E-1
6.311017917E-1,-1.307903004E-1,3.467572014E-2,-6.783998072E-2,1.513630445E-1
6.410477917E-1,-1.331815376E-1,2.730874462E-2,-2.143589258E-2,1.376320710E-1
6.509937916E-1,-1.370894145E-1,1.867168534E-2,3.065402806E-2,1.417102990E-1
6.609397916E-1,-1.545528732E-1,3.219723618E-3,4.262795627E-2,1.603561658E-1
6.708857917E-1,-1.626103181E-1,-3.558524083E-3,2.061143517E-3,1.626623096E-1
6.808317917E-1,-1.405096337E-1,-1.152673956E-2,-4.509197295E-2,1.480172588E-1
6.907777917E-1,-1.136912329E-1,-4.674634212E-3,-5.766641021E-2,1.275655263E-1
7.007237916E-1,-8.544645868E-2,2.290555369E-4,-7.458240509E-2,1.134181860E-1
7.106697916E-1,-4.484025031E-2,4.804794146E-3,-7.563256502E-2,8.805690766E-2
7.206157917E-1,-3.041879183E-2,-1.607041898E-2,-5.377918124E-2,6.384169169E-2
7.305617917E-1,-1.505053209E-2,-3.563989860E-2,5.795760155E-3,3.911919892E-2
7.405077917E-1,-1.540797513E-2,-5.717184997E-2,4.246832728E-2,7.286689885E-2
7.504537916E-1,-3.447638034E-2,-8.691124102E-2,2.705038905E-2,9.733400313E-2
7.603997916E-1,-5.176681629E-2,-1.102084577E-1,-1.830646276E-2,1.231293385E-1
7.703457917E-1,-4.508946047E-2,-1.183882464E-1,-5.797397375E-2,1.393191228E-1
7.802917917E-1,-3.301593773E-2,-1.350421307E-1,-6.006961584E-2,1.514423585E-1
7.902377917E-1,-2.960294536E-2,-1.229929561E-1,-6.560926795E-2,1.425067636E-1
8.001837917E-1,-2.801004962E-2,-9.432688091E-2,-6.800604165E-2,1.196116426E-1
8.101297916E-1,-2.540462625E-2,-7.422901856E-2,-3.896701455E-2,8.760005967E-2
8.200757916E-1,-2.557194798E-2,-4.177201983E-2,2.285384238E-2,5.404742617E-2
8.300217917E-1,-3.494126139E-2,-1.510563753E-2,3.737364829E-2,5.334661769E-2
8.399677917E-1,-4.053523779E-2,-1.124587221E-2,3.394308686E-3,4.220303870E-2
8.499137917E-1,-4.977015660E-2,-7.926937784E-3,-2.355024576E-2,5.562840018E-2
8.598597916E-1,-7.350818935E-2,-3.318824787E-3,-5.363826334E-2,9.105784861E-2
8.698057916E-1,-9.459824653E-2,-5.844963561E-3,-6.456612468E-2,1.146811942E-1
8.797517917E-1,-1.363465714E-1,-9.646306979E-3,-7.085363567E-2,1.539599833E-1
8.896977917E-1,-1.553128103E-1,-9.340424510E-3,-6.396736979E-2,1.682294176E-1
8.996437917E-1,-1.541828176E-1,-1.001734479E-2,-3.522655070E-2,1.584727052E-1
9.095897916E-1,-1.380462383E-1,3.302073427E-3,1.446951985E-2,1.388417610E-1
9.195357916E-1,-1.065179418E-1,1.915945276E-2,2.255154133E-2,1.105519271E-1
9.294817917E-1,-8.035708786E-2,2.784406178E-2,-5.140872002E-3,8.519965910E-2
9.394277917E-1,-7.471162856E-2,3.240852166E-2,-2.864258587E-2,8.632808027E-2
9.493737917E-1,-7.335294577E-2,2.980836079E-2,-4.256539106E-2,8.989441330E-2
9.593197916E-1,-7.074671385E-2,5.264673089E-3,-4.915286422E-2,8.630653720E-2
9.692657916E-1,-6.722240968E-2,-2.439413146E-2,-6.142792404E-2,9.427256157E-2
9.792117917E-1,-6.894253719E-2,-5.243646867E-2,-5.364469528E-2,1.018842972E-1
9.891577917E-1,-5.419610599E-2,-6.895953979E-2,-1.338018358E-2,8.872240611E-2
9.991037917E-1,-5.126885279E-2,-9.471848904E-2,6.678104997E-3,1.079105394E-1
1.009049792E0,-4.698397662E-2,-1.022034276E-1,1.880347610E-2,1.140465053E-1
1.018995792E0,-3.982988086E-2,-9.847884256E-2,7.725926042E-3,1.065091159E-1
1.028941792E0,-3.514792164E-2,-8.031159835E-2,-2.864901781E-2,9.222849585E-2
1.038887792E0,-1.615245359E-2,-6.942088511E-2,-5.020477831E-2,8.718188351E-2
1.048833792E0,-1.865752868E-3,-5.475581700E-2,-6.756808519E-2,8.698923305E-2
1.058778792E0,1.064697800E-2,-5.167244315E-2,-6.906497240E-2,8.691012561E-2
1.068724792E0,-7.655901066E-3,-4.562276765E-2,-4.810913622E-2,6.674233093E-2
1.078666583E0,-2.601148501E-2,-4.420652177E-2,1.585764885E-3,5.131596798E-2
1.088612583E0,-5.962649283E-2,-4.430919522E-2,1.610557079E-2,7.601324121E-2
1.098558583E0,-8.553240362E-2,-5.151846495E-2,2.781520486E-3,9.988834344E-2
1.108504583E0,-1.122210967E-1,-4.785918146E-2,-1.128980398E-2,1.225215714E-1
1.118450583E0,-1.106900490E-1,-3.664039374E-2,-2.655805349E-2,1.195831744E-1
1.128396583E0,-1.020252337E-1,-2.575829144E-2,-5.215540946E-2,1.174428568E-1
1.138342583E0,-9.833372198E-2,2.100397521E-3,-5.320323050E-2,1.118235945E-1
1.148288583E0,-8.963966148E-2,1.850751105E-2,-4.212684989E-2,1.007594579E-1
1.158234583E0,-9.502863815E-2,3.004811034E-2,-5.829440117E-2,1.154624104E-1
1.168180583E0,-9.426072515E-2,3.269302068E-2,-5.154320598E-3,9.990237698E-2
1.178126583E0,-8.301838411E-2,3.165578401E-2,3.196789742E-2,9.442503496E-2
1.188072583E0,-7.888314184E-2,1.396493712E-2,-1.204175591E-2,8.100971189E-2
1.198018583E0,-8.214815397E-2,-2.033725558E-3,-6.503857970E-3,8.243030637E-2
1.207964583E0,-9.013367811E-2,-2.720355869E-2,-6.233833551E-2,1.129167021E-1
1.217910583E0,-8.888934494E-2,-4.676226208E-2,-6.174016535E-2,1.178977218E-1
1.227856583E0,-8.863220450E-2,-6.017995463E-2,-5.680102229E-2,1.212586110E-1
1.237802583E0,-7.608968938E-2,-6.167629366E-2,-5.006619930E-2,1.100010470E-1
1.247748583E0,-5.268196493E-2,-6.489059490E-2,-3.853958309E-2,9.204063341E-2
1.257694583E0,-3.018369265E-2,-6.334396524E-2,2.612477481E-2,7.487334034E-2
1.267640583E0,-1.222175423E-2,-5.351629408E-2,4.184150577E-2,6.902229070E-2
1.277586583E0,8.556207824E-3,-5.214602650E-2,2.921853662E-3,5.292403992E-2
1.287532583E0,5.232846877E-3,-4.736580437E-2,-3.944063902E-2,6.185843609E-2
1.297478583E0,-1.482902312E-2,-5.836134722E-2,-4.482943296E-2,7.507079882E-2
1.307424583E0,-3.192505742E-2,-6.499722436E-2,-4.872309387E-2,8.727994238E-2
1.317370583E0,-5.090407333E-2,-7.390807038E-2,-6.339375794E-2,1.098744561E-1
1.327316583E0,-5.912753347E-2,-7.361596084E-2,-4.887453675E-2,1.063207188E-1
1.337262583E0,-6.280138474E-2,-6.880239130E-2,-2.672119081E-2,9.691132552E-2
1.347208583E0,-6.797411037E-2,-6.235065121E-2,1.459231138E-2,9.338639589E-2
1.357154583E0,-7.227355890E-2,-3.989856280E-2,2.402211607E-2,8.597921080E-2
1.367100583E0,-7.758710649E-2,-2.161311803E-2,-1.040570498E-2,8.121061914E-2
1.377046583E0,-8.082353122E-2,-3.762404616E-3,-4.857691348E-2,9.437327699E-2
1.386992583E0,-7.624475023E-2,1.337890907E-2,-5.157127261E-2,9.301533908E-2
1.396938583E0,-7.395812346E-2,2.819188432E-2,-5.516438663E-2,9.647640084E-2
1.406884583E0,-7.421501722E-2,2.221795768E-2,-7.028411686E-2,1.046009728E-1
1.416830583E0,-7.563418214E-2,6.446340554E-3,-4.408976018E-2,8.778377850E-2
1.426776583E0,-9.042805801E-2,4.069433687E-4,-1.265629828E-2,9.131035628E-2
1.436722583E0,-1.094600049E-1,-2.181833246E-2,1.922681451E-2,1.132572413E-1
1.446668583E0,-1.208030003E-1,-3.466121631E-2,1.069455743E-2,1.261314329E-1
1.456614583E0,-1.110802044E-1,-3.626731397E-2,-1.041213691E-2,1.173138631E-1
1.466560583E0,-8.423672458E-2,-4.090449403E-2,-4.004991889E-2,1.018479229E-1
1.476506583E0,-5.457398687E-2,-3.328513806E-2,-4.978027046E-2,8.102034180E-2
1.486452583E0,-3.355063363E-2,-2.662051363E-2,-6.160567939E-2,7.503037049E-2
1.496398583E0,-1.977997025E-2,-3.211382656E-2,-5.771435738E-2,6.894557365E-2
1.506344583E0,-2.519729906E-2,-3.291482658E-2,-3.226727486E-2,5.253062645E-2
1.516290583E0,-3.366310802E-2,-4.486112213E-2,1.054428399E-2,5.706931790E-2
1.526236583E0,-2.675407911E-2,-5.843875431E-2,2.521260917E-2,6.904016523E-2
1.536182583E0,-1.946160991E-2,-7.432136802E-2,-3.976691365E-3,7.693005966E-2
1.546128583E0,-3.489370480E-2,-8.560340161E-2,-2.837653756E-2,9.669922898E-2
1.556074583E0,-4.518407573E-2,-8.511521392E-2,-2.792805612E-2,1.003303377E-1
1.566020583E0,-5.545058956E-2,-8.340877712E-2,-3.586097360E-2,1.063851560E-1
1.575966583E0,-6.661828724E-2,-8.023253303E-2,-5.157887399E-2,1.163427514E-1
1.585912583E0,-5.368873212E-2,-4.920304064E-2,-5.352482736E-2,9.037879347E-2
1.595858583E0,-4.478449163E-2,-2.750497809E-2,-3.256899118E-2,6.182971532E-2
1.605804583E0,-3.568175187E-2,-6.398978108E-3,6.948831081E-3,3.691098198E-2
1.615750583E0,-3.939607684E-2,-9.613612820E-3,1.907303274E-2,4.481353590E-2
1.625696583E0,-4.805174215E-2,4.666078091E-4,-5.326813459E-3,4.834834628E-2
1.635642583E0,-7.663120550E-2,2.561509861E-3,-2.792981029E-2,8.160255690E-2
1.645588583E0,-9.444374300E-2,-3.264381727E-3,-3.316950023E-2,1.001523466E-1
1.655534583E0,-1.093979696E-1,-1.548763430E-2,-5.457557201E-2,1.232326078E-1
1.665480583E0,-1.232246795E-1,-1.914907395E-2,-6.071339428E-2,1.386979629E-1
1.675426583E0,-1.076331155E-1,-1.831673651E-2,-6.460530102E-2,1.268630573E-1
1.685372583E0,-9.740371319E-2,-1.832310906E-2,-2.868000805E-2,1.031783046E-1
1.695318583E0,-8.612145578E-2,-1.437865504E-2,-9.221059084E-3,8.779908198E-2
1.705264583E0,-7.827382542E-2,-2.455981323E-3,4.998784661E-3,7.847172382E-2
1.715210583E0,-6.156591833E-2,-2.849498936E-3,-1.737207770E-3,6.165630409E-2
1.725156583E0,-5.428557753E-2,-1.067460380E-2,-3.511837721E-2,6.552992837E-2
1.735102583E0,-3.348453268E-2,-1.726290379E-2,-2.464133620E-2,4.501574420E-2
1.745048583E0,-2.386820639E-2,-2.541058767E-2,-3.871266067E-2,5.209663461E-2
1.754994583E0,-3.217063591E-2,-4.295442277E-2,-5.562748611E-2,7.729456295E-2
1.764940583E0,-3.877152569E-2,-5.766981804E-2,-4.919087112E-2,8.513977283E-2
1.774886583E0,-5.448213533E-2,-7.081036170E-2,-2.494071364E-2,9.276017245E-2
1.784832583E0,-6.722881878E-2,-8.219608286E-2,-4.433943629E-3,1.062806190E-1
1.794778583E0,-5.751849392E-2,-8.039322183E-2,9.636796117E-3,9.931925845E-2
1.804724583E0,-4.960944040E-2,-6.962055839E-2,-1.910402298E-2,8.759613245E-2
1.814669583E0,-1.723970908E-2,-6.464971702E-2,-2.838647783E-2,7.268139792E-2
1.824615583E0,-2.150717836E-2,-5.421228176E-2,-5.922176957E-2,8.311887996E-2
1.834561583E0,-2.475626597E-2,-3.791598211E-2,-7.284344316E-2,8.577098352E-2
1.844507583E0,-2.240215182E-2,-2.406406070E-2,-6.940118730E-2,7.679492315E-2
1.854453583E0,-3.930566884E-2,-2.327740006E-2,1.412511885E-2,4.781518523E-2
1.864399583E0,-4.803654852E-2,-2.729097913E-2,8.178383589E-2,9.869601486E-2
1.874345583E0,-5.483705676E-2,-2.824006446E-2,1.607048750E-2,6.374060404E-2
1.884291583E0,-6.616596856E-2,-1.805940420E-2,-8.928113580E-3,6.916493828E-2
1.894237583E0,-7.679857291E-2,-2.603253499E-2,-7.074955523E-2,1.076160455E-1
1.904183583E0,-6.961520453E-2,-2.377139842E-2,-6.790605426E-2,1.001128777E-1
1.914129583E0,-9.286595408E-2,-1.549286025E-2,-8.706679523E-2,1.282370499E-1
1.924075583E0,-1.062453976E-1,-1.447977075E-2,-7.763640583E-2,1.323826264E-1
1.934021583E0,-9.621399667E-2,-8.138136473E-3,-5.997255206E-2,1.136664833E-1
1.943967583E0,-8.388735345E-2,1.841384140E-3,3.642698407E-2,9.147351492E-2
1.953913583E0,-6.973579878E-2,8.062574915E-3,7.444733441E-2,1.023254238E-1
1.963859583E0,-6.409831088E-2,-4.215513580E-3,9.183052182E-3,6.488984867E-2
1.973805583E0,-6.570142555E-2,-3.945321967E-3,-2.479628742E-2,7.033561512E-2
1.983751583E0,-6.400607105E-2,-1.243966808E-2,-4.290803790E-2,7.805525088E-2
1.993697583E0,-5.780025663E-2,-2.526749534E-2,-7.673768878E-2,9.933775147E-2
2.003643583E0,-5.317990102E-2,-4.037230147E-2,-9.380220294E-2,1.151385160E-1
2.013589583E0,-4.328579544E-2,-5.760204972E-2,-7.329543293E-2,1.027807215E-1
2.023535583E0,-4.694518399E-2,-6.438283731E-2,-2.958691120E-2,8.499638436E-2
2.033481583E0,-2.849585045E-2,-7.367648409E-2,3.911904216E-2,8.815065094E-2
2.043427583E0,-1.824509213E-2,-6.243112352E-2,5.768044353E-2,8.693424029E-2
2.053373583E0,-2.197128969E-2,-5.910981366E-2,2.310234904E-2,6.715970647E-2
2.063319583E0,-2.522602351E-2,-5.741063107E-2,-2.659489095E-2,6.811476379E-2
2.073266667E0,-2.183088114E-2,-4.535451750E-2,-5.249162436E-2,7.272544435E-2
2.083212667E0,-2.067966030E-2,-4.381120431E-2,-7.225112021E-2,8.699019683E-2
2.093158667E0,-2.274002267E-2,-4.588105927E-2,-8.856719077E-2,1.023050708E-1
2.103104667E0,-3.377868874E-2,-3.986534787E-2,-6.596477866E-2,8.415222990E-2
2.113050667E0,-5.145128592E-2,-4.019684846E-2,-9.832093120E-3,6.602796001E-2
2.122996667E0,-6.853604150E-2,-3.578880616E-2,2.369642615E-2,8.086747333E-2
2.132942667E0,-7.925021907E-2,-3.112159518E-2,3.806654334E-2,9.326420874E-2
2.142888667E0,-7.705494591E-2,-2.668560502E-2,1.990392208E-3,8.156928261E-2
2.152834667E0,-7.692680966E-2,-1.567185357E-2,-3.438455164E-2,8.570670003E-2
2.162780667E0,-7.447520918E-2,-7.879123092E-5,-5.114968836E-2,9.034851194E-2
2.172726667E0,-7.539196580E-2,2.989484933E-3,-6.851357996E-2,1.019166138E-1
2.182672667E0,-7.722316300E-2,8.494442040E-3,-7.914089441E-2,1.109001967E-1
2.192618667E0,-7.147449120E-2,1.100675306E-2,-5.594031215E-2,9.142794993E-2
2.202564667E0,-8.279925970E-2,3.190071839E-3,7.826498151E-3,8.322949020E-2
2.212510667E0,-7.292654671E-2,-3.486891123E-3,4.195552647E-2,8.420632889E-2
2.222456667E0,-6.201351812E-2,-1.164800989E-2,1.815501988E-2,6.565788080E-2
2.232402667E0,-6.071184112E-2,-2.290728045E-2,-1.305683255E-3,6.490281934E-2
2.242348667E0,-5.723661702E-2,-3.507654678E-2,-3.169249356E-2,7.423482073E-2
2.252294667E0,-5.957910297E-2,-4.184587747E-2,-6.477370083E-2,9.744936784E-2
2.262240667E0,-4.870852608E-2,-4.491149955E-2,-7.749841154E-2,1.019586539E-1
2.272186667E0,-4.343261994E-2,-5.112323885E-2,-6.806919158E-2,9.556878605E-2
2.282132667E0,-3.148505673E-2,-4.720158897E-2,-2.870105803E-2,6.358497881E-2
2.292078667E0,-2.477777733E-2,-5.163979924E-2,7.223650217E-3,5.773030605E-2
2.302024667E0,-1.464699884E-2,-5.412170931E-2,3.506516755E-2,6.613062807E-2
2.311970667E0,-1.173677108E-2,-5.304724689E-2,2.772983551E-2,6.099758991E-2
2.321916667E0,-2.652162032E-2,-5.529776253E-2,-1.912273407E-2,6.424109155E-2
2.331862667E0,-3.829926481E-2,-5.952566490E-2,-4.262386322E-2,8.262525148E-2
2.341808667E0,-4.016047695E-2,-5.674405305E-2,-9.157207489E-2,1.149704152E-1
2.351754667E0,-4.877088572E-2,-5.682870520E-2,-8.558452606E-2,1.137225225E-1
2.361700667E0,-4.290335099E-2,-4.417964285E-2,-2.357597351E-3,6.162869976E-2
2.371646667E0,-4.110312120E-2,-3.928221145E-2,-4.902890325E-3,5.706660181E-2
2.381592667E0,-3.932992565E-2,-1.503281686E-2,3.641002715E-2,5.566433967E-2
2.391538667E0,-5.099653699E-2,-2.038019150E-2,-2.720826387E-2,6.128856838E-2
2.401483667E0,-5.703937856E-2,-1.526273577E-2,-1.987410128E-2,6.230105706E-2
2.411429667E0,-7.115817511E-2,-4.328606953E-3,-2.182005465E-2,7.455425881E-2
2.421375667E0,-6.952759223E-2,-6.590118106E-3,-3.918511569E-2,8.008114029E-2
2.431321667E0,-7.376708396E-2,-1.255365224E-2,-7.481220067E-2,1.058113521E-1
2.441267667E0,-8.268290011E-2,-4.852640815E-3,-6.358613133E-2,1.044184188E-1
2.451213667E0,-7.015605371E-2,-1.128042560E-2,-1.164414525E-2,7.200490255E-2
2.461159667E0,-7.817007389E-2,-1.039731331E-2,1.365324855E-2,8.003171729E-2
2.471105667E0,-8.452522986E-2,-1.675861342E-2,7.365152836E-3,8.648474480E-2
2.481051667E0,-7.263334082E-2,-2.195991274E-2,-1.643593848E-2,7.764006723E-2
2.490997667E0,-6.371220279E-2,-1.970416201E-2,-1.718555152E-2,6.886829434E-2
2.500943667E0,-4.544074109E-2,-2.424330527E-2,-2.407240212E-2,5.685137945E-2
2.510889667E0,-4.250900198E-2,-3.188200273E-2,-6.373991311E-2,8.298345540E-2
2.520835667E0,-3.841668192E-2,-3.575460909E-2,-7.990629494E-2,9.559942203E-2
2.530781667E0,-3.717603067E-2,-3.257364612E-2,-4.547847390E-2,6.716689114E-2
2.540727667E0,-3.210599906E-2,-3.313845974E-2,-4.314075708E-3,4.634181631E-2
2.550673667E0,-3.968960707E-2,-4.026552583E-2,1.454553366E-2,5.837936304E-2
2.560619667E0,-3.566532028E-2,-4.811967948E-2,-1.419587016E-2,6.155518950E-2
2.570565667E0,-3.180698478E-2,-4.581723325E-2,-1.494489849E-2,5.774299208E-2
2.580511667E0,-3.987242849E-2,-5.377164838E-2,-1.165174663E-2,6.794824444E-2
2.590457667E0,-3.092038244E-2,-5.584816368E-2,-2.841629863E-2,6.987541388E-2
2.600403667E0,-4.617140093E-2,-4.461482645E-2,-6.209626079E-2,8.932091920E-2
2.610349667E0,-4.579150094E-2,-4.014444279E-2,-7.302353740E-2,9.508351518E-2
2.620295667E0,-4.718202364E-2,-4.429634505E-2,-3.395536602E-2,7.308403670E-2
2.630241667E0,-4.279090629E-2,-3.104459922E-2,1.220313907E-3,5.288022285E-2
2.640187667E0,-4.689778957E-2,-2.816684636E-2,9.197670221E-4,5.471398242E-2
2.650133667E0,-4.151427182E-2,-2.773526246E-2,-1.374972761E-2,5.178546667E-2
2.660079667E0,-4.700795020E-2,-2.783717303E-2,-1.449875593E-2,5.652317673E-2
2.670025667E0,-5.525251513E-2,-2.177701823E-2,-7.912452221E-3,5.991398711E-2
2.679971667E0,-6.736586746E-2,-1.100914220E-2,-4.877805769E-2,8.389672356E-2
2.689917667E0,-6.711063650E-2,-2.241498600E-2,-6.569405258E-2,9.655038929E-2
2.699863667E0,-6.581847950E-2,-2.009466008E-2,-4.488848984E-2,8.216352066E-2
2.709809667E0,-5.535152037E-2,-2.100537763E-2,-2.198611557E-2,6.315382787E-2
2.719755667E0,-5.238219006E-2,-2.195880268E-2,-1.180786729E-2,5.801300355E-2
2.729701667E0,-5.686277437E-2,-2.713405905E-2,-9.713394642E-3,6.374937102E-2
2.739647667E0,-5.687149494E-2,-2.836363257E-2,-1.061152697E-2,6.443187949E-2
2.749593667E0,-5.004896372E-2,-1.860620109E-2,-8.066818714E-3,5.400150973E-2
2.759539667E0,-5.341341049E-2,-2.405179068E-2,-1.674993396E-2,6.092652414E-2
2.769485667E0,-4.876699823E-2,-2.713990170E-2,-4.249697864E-2,7.014832553E-2
2.779431667E0,-4.615827668E-2,-2.294670347E-2,-6.465090930E-2,8.268541455E-2
2.789377667E0,-3.746681544E-2,-2.759369588E-2,-5.447266102E-2,7.164108535E-2
2.799323667E0,-3.764647571E-2,-3.479200664E-2,-3.411499500E-2,6.157575614E-2
2.809269667E0,-5.180407402E-2,-4.438450553E-2,-1.435725331E-2,6.971210181E-2
2.819215667E0,-5.610829169E-2,-4.470312397E-2,-8.819355369E-3,7.227925510E-2
2.829161667E0,-5.222860929E-2,-3.984704792E-2,-3.729354143E-3,6.579911046E-2
2.839107667E0,-4.625669719E-2,-3.596909227E-2,-1.390935659E-2,6.022398056E-2
2.849053667E0,-3.843666752E-2,-4.062423881E-2,-2.274274528E-2,6.037332732E-2
2.858999667E0,-4.087491534E-2,-2.535704910E-2,-3.920791984E-2,6.205642288E-2
2.868945667E0,-3.832837526E-2,-2.777770959E-2,-3.741107047E-2,6.033451494E-2
2.878891667E0,-3.851786616E-2,-2.809896841E-2,-3.202227652E-2,5.743347659E-2
2.888837667E0,-4.840812994E-2,-2.807144081E-2,-2.753278434E-2,6.236511082E-2
2.898783667E0,-5.337668267E-2,-3.127594796E-2,-2.708430290E-2,6.753380367E-2
2.908729667E0,-5.291259191E-2,-3.617456708E-2,-7.325976491E-3,6.451365450E-2
2.918675667E0,-5.529127578E-2,-3.818046812E-2,-1.361290276E-2,6.855789119E-2
2.928620667E0,-5.752007450E-2,-3.516790038E-2,-1.585881829E-2,6.925923986E-2
2.938566667E0,-5.638756476E-2,-2.891198263E-2,-2.237144709E-3,6.340713694E-2
2.948512667E0,-5.883727403E-2,-1.983788052E-2,-3.112765253E-2,6.945715997E-2
2.958458667E0,-4.946176166E-2,-9.998775311E-3,-5.986788690E-2,7.829818169E-2
2.968404667E0,-4.017522746E-2,-2.354686077E-2,-5.118535638E-2,6.919858569E-2
2.978350667E0,-3.703098089E-2,-2.161221811E-2,-2.633702874E-2,5.031918720E-2
2.988296667E0,-4.293293425E-2,-2.414791800E-2,-3.112706780E-2,5.826880072E-2
2.998242667E0,-4.536947815E-2,-2.021711357E-2,-1.750597894E-2,5.266479400E-2
3.008188667E0,-4.913386534E-2,-2.661070584E-2,-1.062088251E-2,5.687767166E-2
3.018134667E0,-5.291161889E-2,-3.141244847E-2,-2.873321772E-2,6.791155375E-2
3.028080667E0,-6.155689169E-2,-3.474863218E-2,-7.178041935E-3,7.105098619E-2
3.038026667E0,-5.427360444E-2,-3.560151254E-2,-4.055862665E-2,7.653818674E-2
3.047972667E0,-5.165161244E-2,-3.747152063E-2,-3.412201166E-2,7.236239082E-2
3.057918667E0,-3.682965395E-2,-3.025259386E-2,-2.933197260E-2,5.596434099E-2
3.067864667E0,-3.091781286E-2,-1.641717257E-2,-2.364438593E-2,4.224324435E-2
3.077809667E0,-2.492333188E-2,-2.299043425E-2,-2.259714961E-2,4.074756078E-2
3.087755667E0,-2.827368138E-2,-2.158385911E-2,-2.514185786E-2,4.355889174E-2
3.097701667E0,-3.808362361E-2,-2.802429307E-2,-2.364497066E-2,5.286594392E-2
3.107647667E0,-3.288774438E-2,-2.447734008E-2,-3.397407711E-2,5.324454735E-2
3.117593667E0,-4.848856570E-2,-3.402204711E-2,-2.843617916E-2,6.570583672E-2
3.127539667E0,-5.029410367E-2,-4.157858663E-2,-1.885668576E-2,6.792532906E-2
3.137485667E0,-5.887736857E-2,-5.555607699E-2,-3.502306759E-2,8.820225328E-2
3.147431667E0,-5.652131068E-2,-4.824186345E-2,-1.795855343E-2,7.644897378E-2
3.157377667E0,-6.755174040E-2,-4.092265694E-2,-2.200131834E-2,8.198755692E-2
3.167323667E0,-4.487867292E-2,-3.282697217E-2,-2.544415891E-2,6.114826741E-2
3.177269667E0,-3.215569354E-2,-2.473413791E-2,-3.517451048E-2,5.369369043E-2
3.187215667E0,-3.285873442E-2,-1.316681502E-2,-3.098381102E-2,4.704315031E-2
3.197161667E0,-2.742874502E-2,-1.232398914E-2,-1.885902464E-2,3.549478232E-2
3.207107667E0,-3.078316473E-2,-1.325963044E-2,-3.053532958E-2,4.534123270E-2
3.217053667E0,-2.889736916E-2,-2.193206994E-2,-2.739186645E-2,4.545754045E-2
3.226999667E0,-4.599418005E-2,-3.610832452E-2,-2.350054443E-2,6.302024505E-2
3.236945667E0,-5.973058240E-2,-3.319317689E-2,-2.170486450E-2,7.169819111E-2
3.246891667E0,-6.013442857E-2,-3.844735696E-2,-2.993832886E-2,7.739930421E-2
3.256837667E0,-6.538363852E-2,-3.941302463E-2,-2.694396973E-2,8.095915143E-2
3.266783667E0,-6.077892421E-2,-2.946639461E-2,-2.963895142E-2,7.376187010E-2
3.276729667E0,-4.930318334E-2,-3.371756706E-2,-2.604583740E-2,6.516182826E-2
3.286675667E0,-3.952149505E-2,-2.723039650E-2,-3.143404663E-2,5.737196486E-2
3.296621667E0,-3.283198570E-2,-2.485829074E-2,-3.263272583E-2,5.254301760E-2
3.306567667E0,-3.121922997E-2,-1.170403810E-2,-2.305264771E-2,4.053454569E-2
3.316513667E0,-3.223334273E-2,-1.790263487E-2,-2.425074220E-2,4.413152180E-2
3.326459667E0,-3.316481789E-2,-1.486465002E-2,-1.706626832E-2,4.015122016E-2
3.336405667E0,-4.097652898E-2,-2.730577990E-2,-2.275443971E-2,5.424431832E-2
3.346351667E0,-4.142799798E-2,-3.542790962E-2,-3.083763063E-2,6.262886922E-2
3.356297667E0,-4.844808287E-2,-3.340485523E-2,-2.395136476E-2,6.353557240E-2
3.366243667E0,-4.500300391E-2,-4.240619605E-2,-2.365198731E-2,6.620402048E-2
3.376189667E0,-5.195148781E-2,-4.345884562E-2,-2.619669557E-2,7.262158912E-2
3.386135667E0,-5.424636464E-2,-3.622117122E-2,-3.727424562E-2,7.512663114E-2
3.396080667E0,-4.964399379E-2,-3.020735103E-2,-2.290529788E-2,6.246329199E-2
3.406026667E0,-3.786216031E-2,-2.388372435E-2,-2.290588260E-2,5.028573287E-2
3.415972667E0,-3.400891144E-2,-1.502384960E-2,-1.287673831E-2,3.934631499E-2
3.425918667E0,-2.868526370E-2,-1.084018964E-2,-1.991327763E-2,3.656354319E-2
3.435864667E0,-3.822536377E-2,-2.246319812E-2,-3.128903568E-2,5.426580377E-2
3.445810667E0,-3.996148889E-2,-2.468631865E-2,-3.353436649E-2,5.771385153E-2
3.455756667E0,-4.053717925E-2,-3.550854638E-2,-4.296475589E-2,6.892089680E-2
3.465702667E0,-4.228441408E-2,-3.596568444E-2,-1.691891849E-2,5.803233525E-2
3.475648667E0,-5.186766706E-2,-3.614853327E-2,-2.081140995E-2,6.655889218E-2
3.485594667E0,-4.231586114E-2,-4.112058519E-2,-1.856666386E-2,6.185673477E-2
3.495540667E0,-4.686416808E-2,-3.926260044E-2,-2.066230595E-2,6.453474204E-2
3.505486667E0,-3.852831806E-2,-2.910592290E-2,-8.986585736E-3,4.911562647E-2
3.515432667E0,-3.232574016E-2,-2.078298700E-2,-1.766911626E-2,4.229756134E-2
3.525378667E0,-2.902409614E-2,-2.093398678E-2,-3.144047856E-2,4.763542433E-2
3.535324667E0,-3.201516850E-2,-2.089950191E-2,-3.757771611E-2,5.360825442E-2
3.545270667E0,-2.886328629E-2,-1.629270910E-2,-5.194724858E-2,6.162027507E-2
3.555216667E0,-3.604631663E-2,-2.086816906E-2,-4.146903813E-2,5.877498231E-2
3.565162667E0,-4.928777045E-2,-2.546098336E-2,5.382362008E-3,5.573612662E-2
3.575108667E0,-4.148304861E-2,-4.017281549E-2,-1.707094610E-2,6.021723695E-2
3.585054667E0,-5.198277955E-2,-3.134282093E-2,3.286719918E-3,6.078967282E-2
3.595000667E0,-4.592153296E-2,-3.499157029E-2,-3.398577154E-2,6.699425235E-2
3.604946667E0,-4.504321722E-2,-2.756278330E-2,-2.425541997E-2,5.811130560E-2
3.614892667E0,-4.303827549E-2,-3.129824961E-2,-3.668016851E-2,6.463209998E-2
3.624838667E0,-3.319165570E-2,-2.859687709E-2,-4.401550055E-2,6.210339504E-2
3.634784667E0,-2.849466959E-2,-2.934041908E-2,-4.221923590E-2,5.878154699E-2
3.644730667E0,-3.282109754E-2,-2.002292662E-2,-3.563293219E-2,5.241991883E-2
3.654676667E0,-3.562593837E-2,-2.344729822E-2,-6.431937218E-6,4.264954068E-2
3.664622667E0,-3.376461659E-2,-3.350972139E-2,-1.654177308E-3,4.759923386E-2
3.674568667E0,-3.947158358E-2,-3.571113413E-2,-1.677390754E-2,5.580909411E-2
3.684514667E0,-4.198843533E-2,-3.064470906E-2,-3.174277961E-2,6.090756072E-2
3.694460667E0,-5.342341471E-2,-3.966773026E-2,-4.207130134E-2,7.872473855E-2
3.704406667E0,-5.896115277E-2,-3.314494649E-2,-5.105262458E-2,8.474299671E-2
3.714352667E0,-5.326442070E-2,-2.910970075E-2,-4.132402718E-2,7.343124956E-2
3.724298667E0,-4.722067008E-2,-3.252973261E-2,-3.503710091E-2,6.719801803E-2
3.734244667E0,-3.838920915E-2,-2.453471131E-2,-2.440920174E-2,5.168648341E-2
3.744190667E0,-3.174994702E-2,-2.093851837E-2,-3.003714681E-3,3.815105489E-2
3.754136667E0,-2.994455295E-2,-1.404141687E-2,-1.198503792E-2,3.517781649E-2
3.764082667E0,-3.197687380E-2,-2.100428127E-2,-1.931861579E-2,4.285917879E-2
3.774028667E0,-3.219609643E-2,-1.566418824E-2,-3.069495857E-2,4.716074533E-2
3.783974667E0,-3.863268172E-2,-2.849162721E-2,-2.949744880E-2,5.634142707E-2
3.793920667E0,-3.664894301E-2,-3.588608465E-2,-3.024647713E-2,5.954666635E-2
3.803866667E0,-4.074702120E-2,-4.015133154E-2,-4.566441536E-2,7.319622935E-2
3.813812667E0,-3.889885338E-2,-3.862986318E-2,-3.698246956E-2,6.612934430E-2
3.823757667E0,-4.110282427E-2,-3.965706822E-2,-3.503651619E-2,6.700509451E-2
3.833704667E0,-4.322293787E-2,-4.056278822E-2,-1.512733161E-2,6.117514453E-2
3.843649667E0,-4.199066915E-2,-2.924205339E-2,-1.303227425E-2,5.280297486E-2
3.853595667E0,-3.207068507E-2,-2.549776143E-2,-1.527818978E-2,4.372742574E-2
3.863541667E0,-2.392739117E-2,-2.317187152E-2,-3.383959115E-2,4.748235048E-2
3.873487667E0,-2.373340066E-2,-1.574496204E-2,-2.590667367E-2,3.850108930E-2
3.883433667E0,-2.597907864E-2,-2.305946794E-2,-2.186507821E-2,4.104550199E-2
3.893379667E0,-3.574124500E-2,-2.532337280E-2,-4.895873666E-2,6.569374171E-2
3.903325667E0,-4.314523386E-2,-2.904500222E-2,-3.713332772E-2,6.390623902E-2
3.913271667E0,-5.391617054E-2,-2.538794341E-2,-3.069846690E-2,6.703653471E-2
3.923217667E0,-5.708795613E-2,-3.214104352E-2,-2.321344614E-2,6.950500338E-2
3.933163667E0,-4.910771275E-2,-1.887207581E-2,-7.646403909E-3,5.316192425E-2
3.943109667E0,-4.788451178E-2,-3.137137635E-2,-2.785438120E-2,6.366283276E-2
3.953055667E0,-4.431513380E-2,-3.088327089E-2,-2.156803966E-2,5.816173862E-2
3.963001667E0,-3.428441579E-2,-1.742294391E-2,-2.501029551E-2,4.587477545E-2
3.972947667E0,-3.697127762E-2,-1.608333310E-2,-2.650718272E-2,4.825121458E-2
3.982893667E0,-3.743149232E-2,-1.307828452E-2,-3.713566661E-2,5.432509437E-2
3.992839667E0,-4.368267520E-2,-1.815989408E-2,-3.309407115E-2,5.773365926E-2
4.002785667E0,-3.697201766E-2,-2.582976908E-2,-1.153948009E-2,4.655391134E-2
4.012731667E0,-3.874757037E-2,-3.872697264E-2,-3.189773083E-2,6.339256938E-2
4.022677667E0,-4.301559926E-2,-4.085058087E-2,-2.561197400E-2,6.461489727E-2
4.032623667E0,-4.076720780E-2,-3.153106929E-2,1.570269763E-2,5.387715912E-2
4.042569667E0,-3.685353617E-2,-4.972508279E-2,-3.728652477E-2,7.225684685E-2
4.052515667E0,-3.782156099E-2,-4.080610549E-2,-3.653866589E-2,6.656337451E-2
4.062461667E0,-3.278412075E-2,-3.749367609E-2,-4.582053602E-2,6.767640535E-2
4.072407667E0,-2.839821109E-2,-2.294056846E-2,-3.564170301E-2,5.102018295E-2
4.082353542E0,-2.219097597E-2,-2.003369372E-2,-3.788761854E-2,4.826240708E-2
4.092299542E0,-2.134318452E-2,-2.175854011E-2,-2.471559584E-2,3.924062017E-2
4.102245542E0,-3.605222323E-2,-2.121649866E-2,-2.456649184E-2,4.851201023E-2
4.112191542E0,-2.886641546E-2,-2.450661270E-2,-1.962676406E-2,4.265036782E-2
4.122137542E0,-3.845785454E-2,-3.238368013E-2,-6.305052638E-3,5.067013917E-2
4.132083542E0,-5.183735747E-2,-2.737525670E-2,-4.148190200E-2,7.181409682E-2
4.142029542E0,-4.166892154E-2,-2.790761827E-2,-3.744089127E-2,6.258557756E-2
4.151975542E0,-4.921943568E-2,-2.982771599E-2,-2.307018936E-2,6.200386381E-2
4.161921542E0,-4.623207493E-2,-1.793635685E-2,-2.606337905E-2,5.602157957E-2
4.171867542E0,-4.564898876E-2,-1.756726964E-2,-3.414656997E-2,5.965255550E-2
4.181813542E0,-3.656810754E-2,-1.404487495E-2,-3.175096571E-2,5.042428805E-2
4.191759542E0,-3.669657269E-2,-2.371548899E-2,-1.558516860E-2,4.638922661E-2
4.201705542E0,-4.066654433E-2,-1.916223932E-2,-1.962617934E-2,4.905248371E-2
4.211651542E0,-3.058385462E-2,-2.330102647E-2,-2.052489638E-2,4.358418715E-2
4.221597542E0,-2.555596864E-2,-3.126916885E-2,-2.187267959E-2,4.592692637E-2
4.231543542E0,-2.644998279E-2,-2.765854059E-2,-3.399863541E-2,5.119085531E-2
4.241489542E0,-2.801650668E-2,-3.388441828E-2,-3.325136125E-2,5.512469023E-2
4.251435542E0,-3.570498770E-2,-3.169262603E-2,-3.055754900E-2,5.668361750E-2
4.261380542E0,-4.103891603E-2,-3.612089147E-2,-3.894011736E-2,6.712111568E-2
4.271326542E0,-3.174532863E-2,-3.560678874E-2,-3.998852313E-2,6.224701821E-2
4.281272542E0,-2.862780795E-2,-2.922119984E-2,-1.828365862E-2,4.480761186E-2
4.291218542E0,-2.192861643E-2,-3.344820228E-2,-9.899920821E-3,4.120260777E-2
4.301164542E0,-2.578829953E-2,-3.561421653E-2,-2.187560320E-2,4.911161601E-2
4.311110542E0,-2.630949886E-2,-2.505046314E-2,-3.669537127E-2,5.163589552E-2
4.321056542E0,-2.446973870E-2,-2.118696565E-2,-2.307369769E-2,3.974985723E-2
4.331002542E0,-3.507943612E-2,-1.825032949E-2,-2.232583880E-2,4.541017996E-2
4.340948542E0,-3.964273341E-2,-1.857996171E-2,-2.082836688E-2,4.848280268E-2
4.350894542E0,-4.272285475E-2,-2.252536133E-2,-2.292459369E-2,5.346186695E-2
4.360840542E0,-4.281060867E-2,-2.055817069E-2,-3.370335102E-2,5.823489046E-2
4.370786542E0,-4.272149802E-2,-2.428747916E-2,-2.053132832E-2,5.325921028E-2
4.380732542E0,-4.218699398E-2,-2.593951401E-2,-1.828599751E-2,5.279184173E-2
4.390678542E0,-4.772193178E-2,-1.614877624E-2,-2.861510396E-2,5.793953677E-2
4.400624542E0,-3.694702081E-2,-1.752910285E-2,-2.801634908E-2,4.957083426E-2
4.410570542E0,-4.408928510E-2,-9.034404997E-3,-2.562074482E-2,5.178714222E-2
4.420516542E0,-3.046563351E-2,-1.089482000E-2,-1.693996847E-2,3.652142467E-2
4.430462542E0,-3.368227135E-2,-9.653762178E-3,-1.057065493E-1,1.113623145E-1
4.440408542E0,-3.687914515E-2,-1.412673597E-2,3.470088601E-2,5.257173676E-2
4.450354542E0,-4.737712878E-2,-1.421739066E-2,-5.511176169E-2,7.405425582E-2
4.460300542E0,-2.071110965E-2,-2.875673905E-2,-2.562425315E-2,4.373216726E-2
4.470246542E0,-4.457110480E-2,-3.542745281E-2,2.467115700E-2,6.205121903E-2
4.480192542E0,-4.466526782E-2,-2.171444389E-2,-3.206086814E-2,5.911347130E-2
4.490138542E0,-3.479636008E-2,-4.212123565E-2,1.469990015E-3,5.465478971E-2
4.500084542E0,-3.861025217E-2,-2.963100743E-2,-3.319464326E-3,4.878285577E-2
4.510030542E0,-2.072953523E-2,-3.172109010E-2,-3.400506735E-2,5.091449492E-2
4.519976542E0,-6.139587855E-3,-2.604739057E-2,-3.669946432E-2,4.542038943E-2
4.529922542E0,-1.256266746E-2,-3.081216783E-2,-5.196771383E-2,6.170780811E-2
4.539868542E0,-1.158368024E-2,-2.305864111E-2,-5.855343282E-2,6.398739777E-2
4.549814542E0,-1.686207487E-2,-2.647342418E-2,-6.903222799E-2,7.583284420E-2
4.559760542E0,-3.192060806E-2,-3.881189888E-2,-7.359890342E-3,5.078835201E-2
4.569706542E0,-3.544053138E-2,-3.120657166E-2,3.268008828E-3,4.733456730E-2
4.579652542E0,-4.697526518E-2,-3.858340066E-2,-6.162965298E-3,6.110103507E-2
4.589598542E0,-5.304889598E-2,-3.003656665E-2,-2.412502706E-2,6.556216616E-2
4.599544542E0,-6.342534204E-2,-2.598938893E-2,-4.730397463E-4,6.854521221E-2
4.609490542E0,-3.891987594E-2,-1.968879479E-2,-3.235556781E-2,5.430734897E-2
4.619436542E0,-5.032460055E-2,-1.121052396E-2,-6.558470964E-2,8.342418958E-2
4.629382542E0,-3.340516586E-2,-2.246413459E-3,-8.968400896E-2,9.572968684E-2
4.639327542E0,-5.254178250E-2,-5.913170418E-3,-4.417688370E-2,6.889993865E-2
4.649274542E0,-5.172014820E-2,-5.940410220E-3,-1.603306532E-2,5.447312537E-2
4.659219542E0,-2.983901071E-2,-3.897150960E-3,1.206339061E-1,1.243305821E-1
4.669165542E0,-1.075649406E-1,-2.672995707E-2,1.106135327E-1,1.565888267E-1
4.679111542E0,-2.406403329E-1,-1.112577862E-1,1.405729115E-1,3.000780036E-1
4.689057542E0,-1.286719712E0,-7.521571702E-1,-1.788563865E-1,1.501125455E0
4.699003542E0,-9.093864602E-1,-6.833021859E-1,-4.593397200E-2,1.138417999E0
4.708949542E0,5.425512998E-1,3.176285383E-1,1.018006092E-1,6.368776690E-1
4.718895542E0,1.284215203E0,6.743039057E-1,-1.001692361E-1,1.453935460E0
4.728841542E0,9.680160530E-1,6.086714682E-1,1.672718829E-1,1.155645239E0
4.738787542E0,1.714674977E-1,4.353975646E-2,6.106229764E-1,6.357336176E-1
4.748733542E0,-5.963702055E-1,-2.744775669E-1,5.372690713E-1,8.483238838E-1
4.758679542E0,-4.940565031E-1,-3.311979524E-1,1.242802298E-1,6.076425656E-1
4.768625542E0,-1.616683865E-1,-1.119865868E-1,-1.807561469E-1,2.671150454E-1
4.778571542E0,3.859922103E-1,3.218418958E-1,1.704972070E-1,5.306990578E-1
4.788517542E0,1.012028264E0,5.060843719E-1,-2.122539282E-3,1.131515402E0
4.798463542E0,6.446270205E-1,2.856641493E-1,-1.916144264E-1,7.306600373E-1
4.808409542E0,4.681386832E-2,-1.119966550E-2,5.526846707E-2,7.329102419E-2
4.818355542E0,-1.817879612E-1,1.459044301E-1,-1.618544376E-1,2.837812970E-1
4.828301542E0,-1.840104331E-1,1.337650440E-1,-1.118046105E-2,2.277672698E-1
4.838247542E0,9.638225030E-2,2.438438762E-2,-1.064351124E-1,1.456453558E-1
4.848193542E0,2.677831263E-1,2.481335215E-1,1.303683507E-1,3.876518465E-1
4.858139542E0,-1.802672283E-1,2.901415816E-2,6.202790684E-1,6.465943223E-1
4.868085542E0,-5.231330255E-1,-6.853562397E-1,6.127209574E-1,1.057737354E0
4.878031542E0,-3.619031071E-1,-3.493871054E-1,5.750730747E-1,7.640381205E-1
4.887977542E0,-2.895110690E-1,-8.586775057E-1,7.005648476E-1,1.145397234E0
4.897923542E0,-1.272078667E-1,-4.918424184E-1,-1.497045082E-1,5.296246271E-1
4.907869542E0,1.838101111E-1,-2.108502310E-2,-7.109495026E-1,7.346291108E-1
4.917815542E0,-1.947638098E-2,-1.003948655E-1,-8.880020231E-1,8.938713842E-1
4.927761542E0,-7.963180471E-2,-1.443572295E-1,-7.932344449E-1,8.101858543E-1
4.937707542E0,-2.071013252E-1,-3.454898266E-1,5.908962250E-2,4.071188557E-1
4.947653542E0,5.730216522E-3,-6.519709041E-1,6.919413739E-1,9.507269640E-1
4.957599542E0,3.178893607E-2,-8.421819256E-1,8.102311313E-1,1.169083153E0
4.967545542E0,-4.132609563E-1,-1.317344650E0,1.012305642E0,1.712000075E0
4.977491542E0,-1.125307250E-1,-1.637364517E0,1.264937518E0,2.072122740E0
4.987437542E0,-6.681122891E-1,-1.194430037E0,1.476194496E0,2.013004554E0
4.997383542E0,-5.270183176E-1,-5.872732171E-1,1.720945494E0,1.893222526E0
5.007328542E0,1.386176464E0,-6.238763485E-2,3.949717575E0,4.186364333E0
5.017274542E0,3.678390981E0,3.566278222E-1,5.814383537E0,6.889470192E0
5.027220542E0,9.537831992E-1,8.854592883E-1,1.828194539E0,2.244111364E0
5.037166542E0,-2.634555398E0,1.106328869E0,-3.938016127E0,4.865471892E0
5.047112542E0,1.571734491E-1,-1.767881167E-1,-5.594094949E0,5.599094198E0
5.057058542E0,4.065899411E-1,2.372187250E-1,4.815702492E-1,6.734226077E-1
5.067004542E0,-2.046557492E0,-1.525747602E-1,1.090879356E0,2.324154555E0
5.076955208E0,1.083873953E0,2.066229133E0,1.855964720E0,2.981390719E0
5.086901208E0,1.788200753E0,3.624017723E0,5.744696420E-1,4.081811088E0
5.096847208E0,2.879011405E0,1.233543232E0,5.822698277E-1,3.185808175E0
5.106793208E0,2.545326595E-1,-2.106018705E0,-1.278570301E0,2.476861658E0
5.116739208E0,-3.180983548E0,-4.689293291E0,3.038992687E0,6.429899257E0
5.126685208E0,-1.096367407E0,-3.838864306E0,3.818370985E0,5.524387534E0
5.136631208E0,-6.704440856E-1,3.546827459E-1,-1.536532499E0,1.713542308E0
5.146577208E0,-2.040973547E0,7.703673001E-1,4.516699272E-1,2.227789155E0
5.156523208E0,-4.275793257E-1,-5.762808171E-1,2.618634599E-1,7.638691848E-1
5.166469208E0,-8.877483270E-1,-2.012381101E0,2.699425578E-2,2.199659855E0
5.176415208E0,-5.762976278E-1,-1.859749623E0,-1.581315739E0,2.508255785E0
5.186361208E0,-4.325723362E-1,6.366623819E-2,-1.830747433E0,1.882234943E0
5.196307208E0,-2.154640496E-1,1.458543798E0,-1.098984182E0,1.838896680E0
5.206253208E0,-1.330064098E0,8.477198236E-1,2.125556445E-1,1.591502217E0
5.216199208E0,-9.302890867E-2,3.661611226E-1,9.391967350E-1,1.012333370E0
5.226145208E0,1.775062644E-1,1.216494505E0,8.197948372E-1,1.477643709E0
5.236091208E0,2.992935339E-1,1.581644060E0,6.681566548E-1,1.742873451E0
5.246037208E0,-7.189645734E-1,-8.179702136E-1,1.113579417E0,1.557576465E0
5.255983208E0,1.427263826E0,-5.359452617E-1,7.592767400E-1,1.703179532E0
5.265929208E0,4.658219433E-1,4.469145329E-1,2.256475604E-1,6.838417244E-1
5.275875208E0,-1.000511808E0,3.275431868E-1,6.751791608E-1,1.250669947E0
5.285821208E0,4.201218599E-1,-2.342175320E-1,1.031642384E0,1.138264573E0
5.295767208E0,-2.779620141E-1,-2.218442389E-1,1.227739286E0,1.278210273E0
5.305713208E0,1.028179663E0,2.094829765E0,9.929683149E-2,2.335663723E0
5.315659208E0,-4.586526722E-1,1.792422735E0,-7.180901223E-1,1.984639756E0
5.325604208E0,-1.046746327E0,4.069032057E-1,1.264097273E0,1.690913956E0
5.335550208E0,6.129121614E-1,-4.977325380E-2,4.461834848E-2,6.165464227E-1
5.345496208E0,-9.847465450E-1,-9.233449334E-1,-5.044743776E-2,1.350865118E0
5.355442208E0,-1.631622258E0,-7.536021633E-1,2.598419605E0,3.159413215E0
5.365388208E0,-6.794838810E-1,1.238295557E-1,9.890495110E-1,1.206337863E0
5.375334208E0,-8.058363640E-1,4.564367236E-1,-1.573006260E0,1.825391855E0
5.385280208E0,-9.530522972E-1,8.165858853E-1,3.301419818E-1,1.297734533E0
5.395226208E0,-7.030276948E-1,9.722435168E-1,6.951725453E-1,1.386639918E0
5.405172208E0,7.095344764E-1,-1.862589616E-1,-8.467469931E-1,1.120317832E0
5.415118208E0,2.986516850E0,-8.321206217E-1,-1.891265531E0,3.631610239E0
5.425064208E0,3.680945045E0,-6.442343800E-1,-3.081775010E0,4.843731162E0
5.435010208E0,2.928886108E0,4.026962802E-2,-3.328509969E0,4.433844166E0
5.444956208E0,1.557915182E0,6.922746652E-1,-3.181111017E0,3.609128874E0
5.454902208E0,-7.443879747E-1,9.476731512E-1,-2.336877158E0,2.629295097E0
5.464848208E0,-2.606572963E0,5.089084674E-1,-8.669479537E-1,2.793708860E0
5.474794208E0,-2.076399488E0,7.846437156E-2,2.135741710E0,2.979762431E0
5.484740208E0,-6.024503231E-1,-5.189343958E-1,1.971471788E0,2.125779929E0
5.494686208E0,-6.868291533E-1,-9.593573499E-1,1.336147249E0,1.782523571E0
5.504632208E0,-1.920684042E0,-7.201664686E-1,1.093586032E0,2.324563904E0
5.514578208E0,-1.712387509E0,4.850046113E-1,-4.614546579E-1,1.838597524E0
5.524524208E0,-5.638934907E-1,1.696627948E0,-1.028173231E0,2.062440897E0
5.534470208E0,7.469057858E-2,2.284802440E0,-1.836633825E0,2.932426415E0
5.544416208E0,9.817884386E-1,2.292616659E0,-2.560839550E0,3.574618705E0
5.554362208E0,2.441848712E0,1.137076745E0,-2.307125940E0,3.546603834E0
5.564308208E0,3.116909759E0,-2.371637978E-1,-1.903223671E0,3.659731337E0
5.574254208E0,3.556047349E0,-1.109524080E0,-2.233918800E0,4.343605603E0
5.584200208E0,3.910300325E0,-1.433195680E0,-3.187230129E0,5.244324015E0
5.594146208E0,4.004500138E0,-1.660275223E0,-3.943796684E0,5.860551805E0
5.604092208E0,2.530501857E0,-2.003784232E0,-2.095553212E0,3.848367727E0
5.614037208E0,-8.524845150E0,-5.043664380E0,1.140960407E1,1.510928855E1
5.623983208E0,-7.985827176E0,-2.785605643E0,8.827816874E0,1.222552188E1
5.633929208E0,2.215080240E0,2.624494094E0,-3.008030511E0,4.565391251E0
5.643875208E0,2.066054009E0,4.661763430E0,-2.820002766E0,5.826923120E0
5.653821208E0,-6.151820505E-1,4.004574983E0,2.381696650E0,4.699739214E0
5.663767208E0,-1.935723081E0,1.723058678E0,2.319789839E0,3.478128800E0
5.673713208E0,-1.326415143E0,7.315211767E-1,6.079847127E-1,1.632221117E0
5.683659208E0,3.693686128E-2,1.057154663E-1,1.035082886E0,1.041122794E0
5.693605208E0,6.269089338E-1,-1.304589826E-1,1.464274362E0,1.598165750E0
5.703551208E0,7.137754619E-2,-1.288955833E-1,1.662970936E0,1.669485297E0
5.713497208E0,-1.179357962E0,1.222746348E-1,1.993569000E0,2.319515822E0
5.723443208E0,-1.789066726E0,9.071807443E-1,1.790099344E0,2.688529768E0
5.733389208E0,-1.930721957E0,1.716617239E0,1.756704141E0,3.124175325E0
5.743335208E0,-8.351313530E-1,8.311966154E-1,1.515276700E0,1.919477968E0
5.753281208E0,-3.745735118E-1,2.590363312E-1,1.321086575E0,1.397381435E0
5.763227208E0,6.030752443E-1,1.388264944E-1,1.206433786E0,1.355896392E0
5.773173208E0,2.316216752E0,-1.261089465E-1,4.673492360E-1,2.366258400E0
5.783119208E0,2.485734404E0,-1.181850922E-1,1.811379701E-1,2.495126091E0
5.793065208E0,1.763682501E0,3.030028613E-1,1.373849511E0,2.256069409E0
5.803011208E0,1.433715643E0,1.158980854E0,2.727126762E0,3.291807641E0
5.812957208E0,1.979039839E0,1.972331328E0,2.953256133E0,4.065514893E0
5.822903208E0,1.863773238E0,1.765898450E0,2.340323507E0,3.474069967E0
5.832849208E0,7.620092900E-1,1.266952030E0,1.488709876E0,2.098114081E0
5.842795208E0,-1.931505484E0,-3.229664250E-1,1.390935659E0,2.402024720E0
5.852741208E0,-3.996404960E0,-1.739348728E0,1.796480995E0,4.714226402E0
5.862687208E0,-8.386170975E-1,-8.683284813E-1,1.868924489E0,2.224893645E0
5.872633208E0,1.945262521E0,-3.400740623E-3,1.927289641E0,2.738339497E0
5.882579208E0,-1.185764719E-1,-7.567229685E-1,2.282650664E0,2.407734223E0
5.892525208E0,-2.018351547E0,-1.850994587E-1,9.956703132E-1,2.258177174E0
5.902471208E0,-1.214964508E0,9.748742522E-1,6.991544992E-1,1.707435380E0
5.912416208E0,-6.754581461E-1,6.374956101E-2,9.167843574E-1,1.140526752E0
5.922362208E0,-1.126509219E0,-9.207942317E-1,4.185197228E-1,1.513949733E0
5.932308208E0,-1.152335493E0,-7.691015241E-1,2.230332702E-1,1.403259806E0
5.942254208E0,-1.086734996E0,-7.409761244E-1,-1.484216291E-1,1.323656885E0
5.952200208E0,-1.409426748E0,-4.412443417E-1,-2.992335999E-1,1.506891195E0
5.962146208E0,-1.335672747E0,-2.009196854E-1,-3.646978569E-1,1.399069310E0
5.972092208E0,-1.005846807E0,-6.507000849E-2,-6.964431453E-1,1.225150995E0
5.982038208E0,-1.593123752E0,-8.673438102E-1,-8.982399130E-1,2.024145132E0
5.991984208E0,-2.210406561E0,-1.556695014E0,-6.966045284E-1,2.791855010E0
6.001930208E0,-1.447360413E0,-1.189184061E0,-1.311207120E0,2.286542151E0
6.011876208E0,-1.182771639E0,-8.156925769E-1,-1.178620920E0,1.858346148E0
6.021822208E0,-1.382923366E0,-9.161497883E-1,-7.554754651E-1,1.822786507E0
6.031768208E0,-1.297136380E0,-8.692453247E-1,-7.279391724E-1,1.722801690E0
6.041714208E0,-1.177416613E0,-9.232481620E-1,-6.837921095E-1,1.645074071E0
6.051660208E0,-1.112537662E0,-9.240347587E-1,-7.265603989E-1,1.618477772E0
6.061606208E0,-6.509348506E-1,-9.979005875E-1,-9.292237240E-1,1.510952842E0
6.071552208E0,-4.172593189E-1,-1.340425218E0,-1.745065259E0,2.239664676E0
6.081494458E0,-7.850860575E-1,-1.550939015E0,-2.512508220E0,3.055236407E0
6.091440458E0,-1.049034342E0,-1.576144169E0,-2.412761738E0,3.066940282E0
6.101386458E0,-8.813038183E-1,-1.464526377E0,-2.036513876E0,2.658744571E0
6.111332458E0,-9.183571123E-1,-1.613484342E0,-1.886131091E0,2.646545295E0
6.121278458E0,-1.291471013E0,-1.687031351E0,-1.972782733E0,2.899283337E0
6.131224458E0,-1.308786957E0,-1.506115867E0,-2.038886676E0,2.852782358E0
6.141170458E0,-8.202169331E-1,-1.522682053E0,-2.056815408E0,2.687341823E0
6.151116458E0,-5.617986526E-1,-1.352737846E0,-2.763953111E0,3.128091144E0
6.161062458E0,-8.447273648E-1,-7.812412208E-1,-3.697428930E0,3.872322670E0
6.171008458E0,-1.226924476E0,-2.783862296E-1,-4.719975386E0,4.884773301E0
6.180953458E0,-1.482927418E0,-2.794586089E-1,-4.893469291E0,5.120860527E0
6.190899458E0,-1.309360277E0,-5.523892401E-1,-3.133749155E0,3.440921675E0
6.200845458E0,-9.846205375E-1,-9.088790680E-1,-2.878891245E0,3.175461157E0
6.210791458E0,-6.290368818E-1,-7.434603140E-1,-3.131730697E0,3.279658182E0
6.220737458E0,-2.605554378E-1,-7.243546830E-1,-2.848309722E0,2.950499469E0
6.230683458E0,-3.532385568E-1,-8.778499411E-1,-2.650936958E0,2.814758382E0
6.240629458E0,-6.823244584E-1,-5.663347033E-1,-2.563469628E0,2.712504045E0
6.250575458E0,-2.707233073E-1,-6.869414198E-1,-2.465450998E0,2.573641049E0
6.260521458E0,-1.242087476E-2,-8.445095560E-1,-2.774903192E0,2.900592766E0
6.270467458E0,8.016613059E-2,-7.819159895E-1,-2.949351947E0,3.052293586E0
6.280413458E0,9.949278630E-2,-7.403244522E-1,-2.854848078E0,2.950955212E0
6.290359458E0,-4.917442583E-2,-7.809338035E-1,-2.699365352E0,2.810489109E0
6.300305458E0,5.046000928E-3,-7.168848650E-1,-2.480622768E0,2.582138395E0
6.310251458E0,1.923001586E-1,-6.441769311E-1,-2.297471602E0,2.393808478E0
6.320197458E0,3.433496726E-1,-6.746722072E-1,-2.251568620E0,2.375422665E0
6.330143458E0,4.852803806E-1,-6.331388497E-1,-2.304310505E0,2.438484930E0
6.340089458E0,5.273976192E-1,-5.538272166E-1,-2.263362454E0,2.389075644E0
6.350035458E0,6.728442214E-1,-5.160616587E-1,-2.210697752E0,2.367746510E0
6.359981458E0,8.655874528E-1,-3.965605044E-1,-2.088227236E0,2.295037006E0
6.369927458E0,1.144173730E0,-2.841451523E-1,-2.019699622E0,2.338601838E0
6.379873458E0,1.241001356E0,-1.805946176E-1,-1.966639064E0,2.332459643E0
6.389819458E0,1.236202546E0,-1.373496339E-2,-1.946087855E0,2.305567896E0
6.399765458E0,1.138627281E0,-3.774962425E-3,-1.973088543E0,2.278061617E0
6.409711458E0,9.157167289E-1,-1.020774749E-1,-1.929554268E0,2.138255507E0
6.419657458E0,8.510125369E-1,-1.499781579E-1,-1.882846125E0,2.071672106E0
6.429603458E0,9.111971967E-1,-2.186450811E-1,-1.673687713E0,1.918154468E0
6.439548458E0,1.116522174E0,-2.187525237E-1,-1.505079156E0,1.886726715E0
6.449494458E0,1.306861762E0,-1.704191467E-1,-1.392556508E0,1.917327300E0
6.459440458E0,1.334093414E0,-1.562702736E-1,-1.291021947E0,1.863052147E0
6.469386458E0,1.285522056E0,-2.310752383E-1,-1.161228962E0,1.747688594E0
6.479332458E0,1.235016146E0,-3.616863216E-1,-1.063772834E0,1.669639038E0
6.489278458E0,1.468804638E0,-4.947977474E-1,-1.045832407E0,1.869753272E0
6.499224458E0,1.487551543E0,-5.675773828E-1,-7.241571933E-1,1.749101860E0
6.509170458E0,1.541435243E0,-5.038712739E-1,-3.958851510E-1,1.669321395E0
6.519116458E0,1.858911863E0,-4.571425556E-1,-2.514437217E-1,1.930739904E0
6.529062458E0,2.017659383E0,-5.258172264E-1,-1.808561343E-1,2.092878898E0
6.539008458E0,2.028829757E0,-4.981550359E-1,-1.508897388E-1,2.094534874E0
6.548954458E0,1.972159713E0,-6.067211294E-1,-6.410653353E-2,2.064372570E0
6.558900458E0,2.025345840E0,-7.602637500E-1,-1.292562103E-1,2.167194940E0
6.568846458E0,2.139308512E0,-7.544434315E-1,-1.009779060E-1,2.270687635E0
6.578792458E0,2.122495720E0,-7.744117460E-1,6.370073676E-2,2.260256494E0
6.588738458E0,2.109145357E0,-6.498067765E-1,2.150331098E-1,2.217426938E0
6.598684458E0,2.075668732E0,-5.142362311E-1,3.304846287E-1,2.163806756E0
6.608630458E0,2.119484989E0,-4.751975516E-1,4.276910806E-1,2.213808707E0
6.618576458E0,2.133383236E0,-4.370471372E-1,6.682502103E-1,2.277914084E0
6.628522458E0,2.075474897E0,-4.649457746E-1,1.003974529E0,2.351964174E0
6.638468458E0,2.204812968E0,-4.263264866E-1,1.044026787E0,2.476478635E0
6.648414458E0,2.350017898E0,-4.418363723E-1,1.009600135E0,2.595591634E0
6.658360458E0,2.483644609E0,-5.028196887E-1,9.760078812E-1,2.715494351E0
6.668306458E0,2.667117957E0,-6.466733998E-1,7.994453573E-1,2.858464197E0
6.678251458E0,2.561263181E0,-4.756405147E-1,7.888548803E-1,2.721873437E0
6.688197458E0,2.519025527E0,-1.577838984E-1,8.060918874E-1,2.649560245E0
6.698143458E0,2.558819045E0,9.958561085E-2,8.425685728E-1,2.695810453E0
6.708089458E0,2.411826622E0,3.678322569E-1,1.043216947E0,2.653395904E0
6.718035458E0,2.393919378E0,4.558082941E-1,1.251290701E0,2.739404973E0
6.727981458E0,2.423800550E0,2.221903941E-1,1.405668889E0,2.810708576E0
6.737927458E0,2.316193509E0,1.148188502E-2,1.591686360E0,2.810400270E0
6.747873458E0,2.274745521E0,-2.047977050E-1,1.667394354E0,2.827828357E0
6.757819458E0,2.253210226E0,-3.435559331E-1,1.798090149E0,2.903121628E0
6.767765458E0,2.263833009E0,-3.387335882E-1,1.804295214E0,2.914646043E0
6.777711458E0,2.263217736E0,-2.081303255E-1,1.803561974E0,2.901432154E0
6.787657458E0,2.180845085E0,1.491595477E-2,1.955315346E0,2.929089598E0
6.797603458E0,2.320191543E0,1.090056945E-1,1.954949310E0,3.035950896E0
6.807549458E0,2.340963338E0,1.693716180E-1,1.969435787E0,3.063898402E0
6.817495458E0,2.253662070E0,2.328163929E-1,2.098903667E0,3.088461235E0
6.827441458E0,2.178192934E0,1.307216688E-1,2.142774156E0,3.058282802E0
6.837387458E0,2.146386566E0,7.015840173E-2,2.110619148E0,3.011081314E0
6.847333458E0,2.064436669E0,-6.767772049E-2,2.128338550E0,2.965856372E0
6.857279458E0,1.856881856E0,-1.062234432E-1,2.238727550E0,2.910531685E0
6.867225458E0,1.768900995E0,-5.402023271E-2,2.213641825E0,2.834102864E0
6.877171458E0,1.659867087E0,-6.381446511E-2,2.245011553E0,2.792724101E0
6.887117458E0,1.637254589E0,-1.321676852E-1,2.305905626E0,2.831125508E0
6.897063458E0,1.436410625E0,-3.140399194E-1,2.302556925E0,2.731970891E0
6.907008458E0,1.199627627E0,-2.837180132E-1,2.370571738E0,2.671930523E0
6.916954458E0,1.107937438E0,-2.825700586E-1,2.365385842E0,2.627245970E0
6.926900458E0,1.039668711E0,-2.025207992E-1,2.381915336E0,2.606807697E0
6.936846458E0,9.961904231E-1,-1.117277196E-1,2.436961609E0,2.635082603E0
6.946792458E0,8.308780883E-1,-8.980782375E-2,2.411793439E0,2.552483386E0
6.956738458E0,6.002133977E-1,-4.543622777E-2,2.469745778E0,2.542039492E0
6.966684458E0,3.993813474E-1,-1.262837783E-2,2.410119381E0,2.443018700E0
6.976630458E0,2.359934045E-1,-8.175284564E-3,2.344790779E0,2.356650912E0
6.986576458E0,5.925100565E-2,-4.362812251E-2,2.331626358E0,2.332787082E0
6.996522458E0,-1.557345224E-1,-6.927693397E-2,2.203790436E0,2.210372100E0
7.006468458E0,-3.286932611E-1,-1.185601911E-1,2.203704482E0,2.231234910E0
7.016414458E0,-5.019412176E-1,-3.139818858E-1,2.274405506E0,2.350202122E0
7.026360458E0,-8.461079655E-1,-3.630891417E-1,2.333150727E0,2.508251329E0
7.036306458E0,-1.079823149E0,-3.653971839E-1,2.328866472E0,2.592904198E0
7.046252458E0,-1.226303502E0,-5.351414157E-1,2.254931354E0,2.622005344E0
7.056198458E0,-1.506206207E0,-6.703240715E-1,2.161816784E0,2.718720895E0
7.066144458E0,-1.774547212E0,-8.166811949E-1,2.048555632E0,2.830647657E0
7.076090458E0,-1.910834115E0,-9.695876384E-1,1.922528254E0,2.878802197E0
7.086036917E0,-1.973263375E0,-1.079946671E0,1.908582060E0,2.950040447E0
7.095982917E0,-2.025038715E0,-1.088979011E0,1.926411974E0,2.999620006E0
7.105928917E0,-2.031935214E0,-1.133546635E0,1.909286065E0,3.009827563E0
7.115874917E0,-2.100575093E0,-1.257944102E0,1.838002658E0,3.061550728E0
7.125820917E0,-2.121468072E0,-1.313807523E0,1.749803842E0,3.047709053E0
7.135766917E0,-2.137496752E0,-1.307312582E0,1.696776028E0,3.026054765E0
7.145711917E0,-2.181562538E0,-1.325871352E0,1.604820961E0,3.015393883E0
7.155657917E0,-2.284352497E0,-1.364354217E0,1.481112589E0,3.045229590E0
7.165603917E0,-2.407696295E0,-1.366218017E0,1.305490882E0,3.060695927E0
7.175549917E0,-2.447035192E0,-1.427106535E0,1.210084788E0,3.080408981E0
7.185495917E0,-2.544041669E0,-1.505908291E0,1.068758170E0,3.143589004E0
7.195441917E0,-2.668101752E0,-1.462914007E0,9.690350765E-1,3.193417187E0
7.205387917E0,-2.670284225E0,-1.435392917E0,8.238913965E-1,3.141586813E0
7.215333917E0,-2.578746064E0,-1.403226068E0,6.205848777E-1,3.000683297E0
7.225279917E0,-2.583261284E0,-1.353986958E0,4.112644976E-1,2.945447000E0
7.235225917E0,-2.602082009E0,-1.218019752E0,1.844153345E-1,2.878960214E0
7.245171917E0,-2.637045143E0,-1.114902861E0,-5.516614079E-2,2.863574476E0
7.255117917E0,-2.703360170E0,-9.710371631E-1,-2.559156722E-1,2.883845039E0
7.265063917E0,-2.657829655E0,-8.097590417E-1,-3.760280067E-1,2.803776961E0
7.275009917E0,-2.545590012E0,-7.057437265E-1,-4.658242822E-1,2.682367421E0
7.284955917E0,-2.338670353E0,-7.386253975E-1,-5.914838701E-1,2.522855458E0
7.294901917E0,-2.247108949E0,-9.001563379E-1,-6.333709842E-1,2.502186816E0
7.304847917E0,-2.170010341E0,-9.512171486E-1,-5.900770301E-1,2.441710434E0
7.314793917E0,-1.994837846E0,-1.028526330E0,-4.760218263E-1,2.294306262E0
7.324739917E0,-1.977587391E0,-1.141356907E0,-3.301437360E-1,2.307063580E0
7.334685917E0,-2.056313133E0,-1.152789676E0,-2.372349876E-1,2.369309641E0
7.344631917E0,-2.023827172E0,-1.306306568E0,-2.043303663E-1,2.417449931E0
7.354577917E0,-2.026117234E0,-1.414190182E0,-1.565042353E-1,2.475798557E0
7.364522917E0,-2.030834183E0,-1.492083573E0,-2.030147427E-1,2.528204077E0
7.374468917E0,-1.993035150E0,-1.586763005E0,-2.968742484E-1,2.564788541E0
7.384414917E0,-1.911693656E0,-1.580188834E0,-3.436157209E-1,2.503925148E0
7.394360917E0,-1.823269575E0,-1.551603697E0,-4.001653129E-1,2.427327389E0
7.404306917E0,-1.740930693E0,-1.467644551E0,-4.473646224E-1,2.320550648E0
7.414252917E0,-1.622284401E0,-1.376203746E0,-4.925448883E-1,2.183653795E0
7.424198917E0,-1.490356744E0,-1.286842503E0,-5.895373321E-1,2.055402909E0
7.434144917E0,-1.385045174E0,-1.296713042E0,-6.526363903E-1,2.006426950E0
7.444090917E0,-1.393556089E0,-1.295175078E0,-7.330736125E-1,2.038841332E0
7.454036917E0,-1.459224414E0,-1.313665874E0,-8.397519690E-1,2.135471210E0
7.463982917E0,-1.456209297E0,-1.348534137E0,-9.296850693E-1,2.191666983E0
7.473928917E0,-1.324235447E0,-1.409631401E0,-9.668546498E-1,2.162283080E0
7.483874917E0,-1.260250390E0,-1.412447273E0,-1.008717206E0,2.144935604E0
7.493820917E0,-1.170868974E0,-1.418057969E0,-1.043067259E0,2.114192958E0
7.503766917E0,-1.105412391E0,-1.459847873E0,-1.197116833E0,2.187734234E0
7.513712917E0,-1.038685063E0,-1.474584611E0,-1.281999108E0,2.212868760E0
7.523658917E0,-1.008900296E0,-1.508353451E0,-1.357750372E0,2.266383907E0
7.533604917E0,-1.028282355E0,-1.573391738E0,-1.547366804E0,2.434598569E0
7.543550917E0,-1.031796166E0,-1.576027809E0,-1.725032113E0,2.554251901E0
7.553496917E0,-1.036198534E0,-1.620121516E0,-1.848572085E0,2.667530672E0
7.563442917E0,-1.076405743E0,-1.618412229E0,-1.929646069E0,2.738875941E0
7.573388917E0,-1.041800021E0,-1.635792785E0,-1.930801479E0,2.736632908E0
7.583333917E0,-9.762383346E-1,-1.583767038E0,-2.031711558E0,2.754852295E0
7.593279917E0,-8.230567796E-1,-1.523778113E0,-2.049024578E0,2.682876054E0
7.603225917E0,-6.069601344E-1,-1.482619270E0,-2.084403157E0,2.628934580E0
7.613171917E0,-4.654646784E-1,-1.407093709E0,-2.105270115E0,2.574632465E0
7.623117917E0,-3.073738743E-1,-1.316894706E0,-2.127161506E0,2.520616281E0
7.633063917E0,-1.244322574E-1,-1.224723000E0,-2.129447182E0,2.459669717E0
7.643009917E0,-7.516668811E-3,-1.126201801E0,-2.090128750E0,2.374242024E0
7.652955917E0,3.441510335E-2,-1.073375716E0,-2.051921874E0,2.315967013E0
7.662901917E0,6.917548478E-3,-1.049697124E0,-2.064147817E0,2.315732738E0
7.672847917E0,-2.796094671E-2,-1.088986028E0,-2.141151554E0,2.402332691E0
7.682793917E0,-4.421744876E-2,-1.104928754E0,-2.173914673E0,2.439001381E0
7.692739917E0,4.445893876E-2,-1.066336546E0,-2.246139480E0,2.486803730E0
7.702685917E0,2.629767698E-1,-9.476304665E-1,-2.193185341E0,2.403585285E0
7.712631917E0,4.669231202E-1,-8.872722906E-1,-2.083951752E0,2.312601181E0
7.722577917E0,6.578360999E-1,-8.657878661E-1,-2.073712108E0,2.341499278E0
7.732523917E0,8.212366144E-1,-8.907926068E-1,-2.144328346E0,2.462942367E0
7.742469917E0,9.303276783E-1,-9.184207007E-1,-2.169068500E0,2.532560825E0
7.752415917E0,9.726211739E-1,-8.656244364E-1,-2.164035217E0,2.525538761E0
7.762361917E0,9.355261454E-1,-8.425858220E-1,-2.151843773E0,2.493108834E0
7.772307917E0,8.540876607E-1,-8.330335182E-1,-2.124753038E0,2.436798319E0
7.782253917E0,8.843631546E-1,-7.586645365E-1,-2.013557707E0,2.326388770E0
7.792198917E0,9.999723291E-1,-6.792377132E-1,-1.917430066E0,2.266681846E0
7.802144917E0,1.089084700E0,-6.490576020E-1,-1.925045480E0,2.305033916E0
7.812090917E0,1.164388651E0,-6.428370416E-1,-1.948726119E0,2.359358786E0
7.822036917E0,1.150761934E0,-6.897024751E-1,-2.045620914E0,2.446325297E0
7.831982917E0,1.134502362E0,-6.623483232E-1,-2.080428219E0,2.460484198E0
7.841928917E0,1.136419153E0,-6.122027479E-1,-2.045350188E0,2.418614911E0
7.851874917E0,1.154400291E0,-5.377019115E-1,-2.033664528E0,2.399490527E0
7.861820917E0,1.224193315E0,-4.398516811E-1,-1.957284688E0,2.350123853E0
7.871766917E0,1.300730225E0,-3.687192795E-1,-1.831335078E0,2.276321857E0
7.881712917E0,1.361477825E0,-3.230392228E-1,-1.732827036E0,2.227255205E0
7.891658917E0,1.370845211E0,-2.963671486E-1,-1.642769975E0,2.160033164E0
7.901604917E0,1.344744702E0,-3.357918540E-1,-1.568217391E0,2.092940579E0
7.911550917E0,1.384699896E0,-3.690591489E-1,-1.431184968E0,2.025312043E0
7.921496917E0,1.404349611E0,-3.408382934E-1,-1.303648424E0,1.946244534E0
7.931442917E0,1.374750566E0,-2.682750781E-1,-1.240844066E0,1.871257500E0
7.941388917E0,1.403597074E0,-2.281330656E-1,-1.144072646E0,1.825111411E0
7.951334917E0,1.434851173E0,-2.610471886E-1,-1.001920987E0,1.769403624E0
7.961280917E0,1.454930219E0,-2.742918630E-1,-9.411578912E-1,1.754376283E0
7.971226917E0,1.527430723E0,-2.083558819E-1,-8.202415645E-1,1.746211044E0
7.981171917E0,1.621930498E0,-1.799562478E-1,-6.625825042E-1,1.761266126E0
7.991117917E0,1.725099064E0,-1.866159341E-1,-5.956675529E-1,1.834560471E0
8.001063917E0,1.871466274E0,-1.394198406E-1,-5.280409956E-1,1.949525891E0
8.011009917E0,1.949135716E0,-1.018894869E-1,-2.839600879E-1,1.972345010E0
8.020955917E0,1.932018723E0,-4.858678065E-2,-7.645000577E-2,1.934141056E0
8.030901917E0,1.771038883E0,3.566545732E-2,8.313220382E-2,1.773347601E0
8.040847917E0,1.666224326E0,5.221490487E-2,2.830824208E-1,1.690906727E0
8.050793917E0,1.657259375E0,-9.913954139E-3,4.277431208E-1,1.711598990E0
8.060739917E0,1.638628977E0,-3.168788888E-2,5.230164832E-1,1.720364871E0
8.070685917E0,1.642155725E0,-5.203261793E-2,5.948694080E-1,1.747355840E0
8.080630708E0,1.645431335E0,-6.378106289E-2,6.784267044E-1,1.780947808E0
8.090576708E0,1.762588487E0,-4.132106703E-2,7.378303224E-1,1.911234991E0
8.100522708E0,1.951375492E0,-2.680794887E-2,7.639550972E-1,2.095760570E0
8.110468708E0,2.105471552E0,-1.250043344E-3,8.170179945E-1,2.258435392E0
8.120414708E0,2.163299637E0,9.603424961E-2,8.354530960E-1,2.321006199E0
8.130360708E0,2.223369546E0,9.636593292E-2,9.323028678E-1,2.412850424E0
8.140306708E0,2.330676770E0,1.365438876E-1,1.092411911E0,2.577607849E0
8.150252708E0,2.326987616E0,2.212105835E-1,1.278034696E0,2.664052959E0
8.160198708E0,2.283560053E0,3.262028588E-1,1.421499640E0,2.709560121E0
8.170144708E0,2.187231999E0,3.181368076E-1,1.572807455E0,2.712732596E0
8.180089708E0,2.101761201E0,2.512859930E-1,1.620710185E0,2.665941916E0
8.190035708E0,2.028020503E0,1.662600953E-1,1.572196421E0,2.571441457E0
8.199981708E0,1.888415451E0,5.445351139E-2,1.555899062E0,2.447427219E0
8.209927708E0,1.855684931E0,9.184404351E-2,1.613917474E0,2.461042768E0
8.219873708E0,1.823965540E0,1.875566049E-1,1.416516643E0,2.317012553E0
8.229819708E0,1.792009776E0,2.031838734E-1,1.471337798E0,2.327534670E0
8.239765708E0,1.902591587E0,3.598502959E-1,1.344885328E0,2.357554565E0
8.249711708E0,2.034034364E0,4.766771530E-1,1.336325004E0,2.479976092E0
8.259657708E0,2.129334331E0,5.569630784E-1,1.395808144E0,2.606252662E0
8.269603708E0,2.165255093E0,5.807552527E-1,1.464793010E0,2.677914271E0
8.279549708E0,1.996527253E0,5.337863235E-1,1.596537795E0,2.611509495E0
8.289495708E0,1.820994424E0,4.326053730E-1,1.654940370E0,2.498398633E0
8.299441708E0,1.694649104E0,2.817866047E-1,1.606275163E0,2.351884176E0
8.309387708E0,1.541454831E0,1.808636626E-1,1.676149975E0,2.284354044E0
8.319333708E0,1.438390785E0,9.490959249E-2,1.693565907E0,2.223992212E0
8.329279708E0,1.419195253E0,-2.078685164E-2,1.648546439E0,2.175374134E0
8.339225708E0,1.271198131E0,-4.451558366E-3,1.676040047E0,2.103586163E0
8.349171708E0,1.083926359E0,8.803852938E-2,1.710393024E0,2.026842725E0
8.359116708E0,9.873924831E-1,1.092256229E-1,1.665000504E0,1.938840074E0
8.369062708E0,8.780005800E-1,1.947137430E-2,1.669012279E0,1.885965572E0
8.379008708E0,7.368965951E-1,-9.102316752E-2,1.649677291E0,1.809070749E0
8.388954708E0,6.101078367E-1,-1.671735035E-1,1.571145092E0,1.693716461E0
8.398900708E0,4.706279891E-1,-2.683817898E-1,1.508687473E0,1.603015090E0
8.408846708E0,3.238723049E-1,-3.136431858E-1,1.481066980E0,1.548168181E0
8.418792708E0,2.326352754E-1,-2.894165634E-1,1.462122586E0,1.508536899E0
8.428738708E0,1.128556292E-1,-2.721653768E-1,1.474354377E0,1.503506307E0
8.438684708E0,-1.355016031E-1,-2.058849947E-1,1.591898029E0,1.610865808E0
8.448630708E0,-2.875785277E-1,-8.963518471E-2,1.673932126E0,1.700818814E0
8.458576708E0,-3.946150992E-1,-1.525927404E-1,1.771084784E0,1.820919255E0
8.468522708E0,-5.196476464E-1,-1.244784504E-1,1.959621236E0,2.031168124E0
8.478468708E0,-4.586009609E-1,-6.493537635E-2,2.048100718E0,2.099820944E0
8.488414708E0,-3.039447016E-1,-1.513833900E-1,2.091826197E0,2.119206491E0
8.498360708E0,-3.348226780E-1,-2.115835449E-1,2.279053457E0,2.313213886E0
8.508306708E0,-4.951452547E-1,-1.916217354E-1,2.402415674E0,2.460383869E0
8.518252708E0,-7.028294742E-1,-2.823705223E-1,2.435152481E0,2.550229399E0
8.528198708E0,-8.255150221E-1,-3.478301015E-1,2.539428216E0,2.692797151E0
8.538144708E0,-9.423599325E-1,-3.841399220E-1,2.606227977E0,2.797861682E0
8.548089708E0,-1.072793114E0,-4.138160033E-1,2.637776045E0,2.877497387E0
8.558035708E0,-1.113136710E0,-4.231092024E-1,2.618014795E0,2.876125205E0
8.567981708E0,-1.103660493E0,-4.470080884E-1,2.571066331E0,2.833419275E0
8.577927708E0,-1.092321645E0,-4.794776769E-1,2.587471279E0,2.849223234E0
8.587873708E0,-1.098948002E0,-5.202783052E-1,2.519046577E0,2.797136372E0
8.597819708E0,-1.143975802E0,-5.742410890E-1,2.403807312E0,2.723366126E0
8.607765708E0,-1.179115302E0,-6.403535829E-1,2.341557854E0,2.698751339E0
8.617711708E0,-1.177787253E0,-6.914919423E-1,2.187335787E0,2.578717077E0
8.627657708E0,-1.254785436E0,-7.463595097E-1,2.073375893E0,2.535828582E0
8.637603708E0,-1.287009880E0,-7.638908509E-1,1.975970051E0,2.478786256E0
8.647549708E0,-1.304371579E0,-8.785867634E-1,1.886637459E0,2.456155699E0
8.657495708E0,-1.386843486E0,-9.326436143E-1,1.747351520E0,2.417932236E0
8.667441708E0,-1.443141355E0,-9.455764858E-1,1.678446761E0,2.407063645E0
8.677387708E0,-1.539924030E0,-9.702197224E-1,1.524348071E0,2.374095484E0
8.687333708E0,-1.665248426E0,-1.025396096E0,1.315929331E0,2.357150712E0
8.697279708E0,-1.770047341E0,-1.082970924E0,1.179224353E0,2.386726563E0
8.707225708E0,-1.782609646E0,-1.056552765E0,1.044247227E0,2.320442450E0
8.717171708E0,-1.793473626E0,-1.015895686E0,8.432427567E-1,2.227027175E0
8.727117708E0,-1.824933839E0,-1.012006264E0,7.111407065E-1,2.204600032E0
8.737062708E0,-1.914570486E0,-9.697464634E-1,5.639738899E-1,2.219021157E0
8.747008708E0,-2.036682714E0,-9.245444897E-1,4.199493670E-1,2.275789195E0
8.756954708E0,-2.095839141E0,-8.556998842E-1,2.658261180E-1,2.279348048E0
8.766900708E0,-2.138680374E0,-7.954803604E-1,7.631844342E-2,2.283104740E0
8.776846708E0,-2.146582009E0,-7.927400628E-1,-9.652700543E-2,2.290320631E0
8.786792708E0,-2.220351505E0,-7.399485493E-1,-1.975744933E-1,2.348727388E0
8.796738708E0,-2.229703981E0,-7.799799033E-1,-2.345113546E-1,2.373803713E0
8.806684708E0,-2.209555206E0,-8.381341175E-1,-2.691233629E-1,2.378451259E0
8.816630708E0,-2.220128142E0,-8.273093133E-1,-3.228224373E-1,2.391155367E0
8.826576708E0,-2.213707899E0,-8.943259330E-1,-3.391285676E-1,2.411499476E0
8.836522708E0,-2.196502759E0,-9.698734210E-1,-3.525467581E-1,2.426843225E0
8.846468708E0,-2.200325815E0,-1.089585952E0,-4.256264287E-1,2.491944842E0
8.856414708E0,-2.251383702E0,-1.158942993E0,-4.984184164E-1,2.580755384E0
8.866360708E0,-2.227699994E0,-1.256261419E0,-6.037203383E-1,2.627797226E0
8.876306708E0,-2.207006405E0,-1.301360701E0,-6.964285272E-1,2.655076202E0
8.886252708E0,-2.151088751E0,-1.355733375E0,-8.058960056E-1,2.667332782E0
8.896198708E0,-2.030395788E0,-1.363836446E0,-8.286346579E-1,2.582477939E0
8.906144708E0,-1.957852161E0,-1.370060953E0,-8.550903851E-1,2.537997570E0
8.916089708E0,-1.851299227E0,-1.366397380E0,-8.519001442E-1,2.453586046E0
8.926035708E0,-1.782650576E0,-1.405767414E0,-9.175251997E-1,2.448648115E0
8.935981708E0,-1.706507403E0,-1.406224959E0,-9.553818280E-1,2.408815184E0
8.945927708E0,-1.644229002E0,-1.503057920E0,-1.020842577E0,2.450467646E0
8.955873708E0,-1.630403991E0,-1.580380476E0,-1.054138961E0,2.503403398E0
8.965819708E0,-1.614380135E0,-1.660251396E0,-1.131525691E0,2.577403404E0
8.975765708E0,-1.618746690E0,-1.738843821E0,-1.263310238E0,2.690700919E0
8.985711708E0,-1.619289896E0,-1.845768930E0,-1.349194726E0,2.801658280E0
8.995657708E0,-1.584416371E0,-1.942026087E0,-1.447889294E0,2.894516189E0
9.005603708E0,-1.561243563E0,-1.962031166E0,-1.547362127E0,2.946417708E0
9.015549708E0,-1.533072555E0,-1.970884435E0,-1.642467089E0,2.988711270E0
9.025495708E0,-1.505439345E0,-1.983725798E0,-1.742602996E0,3.039437590E0
9.035441708E0,-1.501596262E0,-2.002878352E0,-1.846087604E0,3.110362112E0
9.045387708E0,-1.510382873E0,-2.086837645E0,-1.947801674E0,3.229563305E0
9.055333708E0,-1.454365670E0,-2.061203744E0,-2.132888269E0,3.303475858E0
9.065279708E0,-1.404792683E0,-1.993311431E0,-2.263729659E0,3.327342019E0
9.075225708E0,-1.324476206E0,-1.927696315E0,-2.391015943E0,3.344728321E0
9.085175083E0,-1.225768482E0,-1.819191581E0,-2.415533903E0,3.262938923E0
9.095121083E0,-9.723831922E-1,-1.675890651E0,-2.358212478E0,3.052098399E0
9.105067083E0,-7.073164082E-1,-1.530839357E0,-2.261596595E0,2.821096382E0
9.115013083E0,-4.789793479E-1,-1.380499257E0,-2.152735473E0,2.601820407E0
9.124959083E0,-2.011274808E-1,-1.326049692E0,-2.154691951E0,2.538022351E0
9.134905083E0,5.374073580E-2,-1.299412409E0,-2.111239538E0,2.479655835E0
9.144851083E0,4.207802564E-4,-1.342188592E0,-2.075307228E0,2.471511781E0
9.154797083E0,-1.291429936E-1,-1.343631100E0,-2.157493352E0,2.544955797E0
9.164743083E0,-1.914496080E-1,-1.372654047E0,-2.257647386E0,2.649113777E0
9.174689083E0,-2.761316163E-1,-1.421628279E0,-2.291503934E0,2.710768509E0
9.184635083E0,-1.858202011E-1,-1.312079232E0,-2.286933165E0,2.643131544E0
9.194581083E0,2.606125943E-2,-1.176913826E0,-2.270716497E0,2.557725308E0
9.204527083E0,2.999481297E-1,-1.122015487E0,-2.229196588E0,2.513603999E0
9.214473083E0,5.618846067E-1,-1.085185045E0,-2.284300749E0,2.590631352E0
9.224419083E0,6.859411074E-1,-1.135480455E0,-2.410960211E0,2.751828520E0
9.234365083E0,6.104351346E-1,-1.242491811E0,-2.572188411E0,2.921056346E0
9.244311083E0,5.108121747E-1,-1.248812943E0,-2.680453117E0,3.000881830E0
9.254257083E0,4.092170585E-1,-1.260831895E0,-2.739387204E0,3.043254495E0
9.264202083E0,4.656619488E-1,-1.198653481E0,-2.610440311E0,2.909984508E0
9.274148083E0,6.554161566E-1,-1.098508803E0,-2.436624225E0,2.751986472E0
9.284094083E0,9.314398187E-1,-1.017105913E0,-2.234323427E0,2.625697193E0
9.294040083E0,1.157456704E0,-8.818422738E-1,-2.061057563E0,2.522956618E0
9.303986083E0,1.273118357E0,-8.075136378E-1,-1.990044883E0,2.496635189E0
9.313932083E0,1.384353595E0,-8.206157863E-1,-1.957827310E0,2.534350591E0
9.323878083E0,1.406014459E0,-8.188850105E-1,-1.937960225E0,2.530442482E0
9.333824083E0,1.307362576E0,-8.670689911E-1,-1.976340179E0,2.523276846E0
9.343770083E0,1.295488927E0,-8.969301367E-1,-1.986203263E0,2.535306418E0
9.353716083E0,1.437535337E0,-8.616132465E-1,-1.850356656E0,2.496538601E0
9.363662083E0,1.593788580E0,-8.064614314E-1,-1.671400867E0,2.446246704E0
9.373608083E0,1.774237749E0,-6.802931356E-1,-1.500354606E0,2.421111786E0
9.383554083E0,1.940848896E0,-5.620101026E-1,-1.241008372E0,2.371255274E0
9.393500083E0,1.978133520E0,-5.140740439E-1,-1.017348281E0,2.283042240E0
9.403446083E0,1.899241864E0,-6.117004721E-1,-8.928435177E-1,2.185970419E0
9.413392083E0,1.831233775E0,-6.125641058E-1,-8.305045974E-1,2.101996625E0
9.423338083E0,1.765112876E0,-6.268123086E-1,-7.263949227E-1,2.009021334E0
9.433284083E0,1.819544899E0,-6.458198525E-1,-6.075105035E-1,2.024079033E0
9.443229083E0,2.015623967E0,-5.070768271E-1,-3.682102793E-1,2.110792670E0
9.453175083E0,2.165890539E0,-4.206122951E-1,-1.515013576E-1,2.211549048E0
9.463121083E0,2.410924250E0,-3.272888330E-1,2.767487168E-3,2.433039535E0
9.473067083E0,2.563861392E0,-2.710718013E-1,1.194656324E-1,2.580917898E0
9.483013083E0,2.550059916E0,-3.065472972E-1,1.716105169E-1,2.574145876E0
9.492959083E0,2.448782925E0,-4.214233039E-1,1.940474528E-1,2.492346250E0
9.502905083E0,2.285104156E0,-5.017188773E-1,2.630293947E-1,2.354274262E0
9.512851083E0,2.061580597E0,-5.678273512E-1,2.590977269E-1,2.153990272E0
9.522797083E0,2.001055191E0,-4.865050799E-1,2.638111675E-1,2.076175667E0
9.532743083E0,1.985838104E0,-3.854282098E-1,3.714964145E-1,2.056724937E0
9.542689083E0,1.988111794E0,-3.300531773E-1,4.452233720E-1,2.063915564E0
9.552635083E0,2.128194709E0,-1.244986233E-1,5.951687855E-1,2.213354583E0
9.562581083E0,2.260584734E0,2.205635525E-2,6.997906762E-1,2.366524205E0
9.572527083E0,2.356056171E0,9.325402647E-2,7.352329892E-1,2.469871362E0
9.582473083E0,2.360596973E0,1.280868768E-1,7.677984720E-1,2.485626442E0
9.592419083E0,2.376412668E0,9.149511091E-2,8.108123446E-1,2.512593318E0
9.602364083E0,2.276939689E0,1.971266697E-1,8.717713219E-1,2.446078189E0
9.612310083E0,2.046810092E0,4.359520268E-1,9.556490457E-1,2.300597926E0
9.622256083E0,1.950062208E0,4.148671865E-1,1.069842829E0,2.262613770E0
9.632202083E0,2.049657978E0,3.829249437E-1,1.179562907E0,2.395641457E0
9.642148083E0,2.140859486E0,3.730806445E-1,1.223428134E0,2.493841395E0
9.652094083E0,2.275888360E0,2.811104839E-1,1.234460660E0,2.604339465E0
9.662040083E0,2.395391707E0,2.452433890E-1,1.291745832E0,2.732517711E0
9.671986083E0,2.464791724E0,1.682501586E-1,1.319651669E0,2.800890374E0
9.681932083E0,2.517456719E0,1.142126401E-1,1.215503987E0,2.797871119E0
9.691878083E0,2.407495443E0,2.712059949E-1,1.266322723E0,2.733708148E0
9.701824083E0,2.288994455E0,3.878758178E-1,1.345642542E0,2.683411470E0
9.711770083E0,2.157557087E0,4.686542615E-1,1.368774712E0,2.597736248E0
9.721716083E0,2.070479913E0,5.354195239E-1,1.504776270E0,2.614940298E0
9.731662083E0,2.035652581E0,5.126708584E-1,1.589578439E0,2.633148771E0
9.741608083E0,2.061411028E0,4.982102555E-1,1.673311737E0,2.701407235E0
9.751554083E0,2.072282756E0,4.953177841E-1,1.758854747E0,2.762836504E0
9.761500083E0,2.116380702E0,4.112524378E-1,1.848963264E0,2.840221998E0
9.771445083E0,2.083281953E0,3.997107650E-1,1.909710572E0,2.854264680E0
9.781391083E0,1.862456591E0,5.235558888E-1,1.979576029E0,2.767955306E0
9.791337083E0,1.724617692E0,5.915104750E-1,1.998382428E0,2.705129046E0
9.801283083E0,1.510860883E0,7.315219076E-1,1.985267708E0,2.599829376E0
9.811229083E0,1.296674596E0,8.277189839E-1,2.030690049E0,2.547584307E0
9.821175083E0,1.169675703E0,8.577008745E-1,1.988388367E0,2.461194901E0
9.831121083E0,1.092905709E0,8.961859323E-1,2.096720316E0,2.528602025E0
9.841067083E0,1.059741690E0,8.174344625E-1,2.165618058E0,2.545810897E0
9.851013083E0,1.085701135E0,7.505450928E-1,2.271177843E0,2.626844815E0
9.860959083E0,1.024736676E0,7.295130967E-1,2.279440543E0,2.603483014E0
9.870905083E0,1.019602894E0,7.857013308E-1,2.303777239E0,2.638997198E0
9.880851083E0,1.200428696E0,7.842129220E-1,2.557536458E0,2.932066114E0
9.890797083E0,1.400216945E0,6.652179904E-1,2.803030053E0,3.203139077E0
9.900743083E0,1.393492062E0,6.310331212E-1,2.884591110E0,3.265101652E0
9.910689083E0,1.277128670E0,5.260807166E-1,3.051028011E0,3.349117866E0
9.920634083E0,1.032575161E0,3.529643954E-1,3.140308562E0,3.324504954E0
9.930580083E0,7.696203183E-1,1.221438034E-1,3.089066488E0,3.185838399E0
9.940526083E0,5.159084617E-1,1.737178534E-2,2.990978860E0,3.035196511E0
9.950472083E0,3.086066135E-1,-8.423031092E-2,2.930426264E0,2.947834948E0
9.960418083E0,2.507683682E-1,-2.203015973E-1,2.812732923E0,2.832469605E0
9.970364083E0,1.593384538E-1,-2.689539398E-1,2.646768478E0,2.665165724E0
9.980310083E0,3.658507816E-2,-3.996706384E-1,2.566023692E0,2.597220182E0
9.990256083E0,-2.036552321E-1,-5.409444849E-1,2.477115024E0,2.543657845E0
1.000020208E1,-4.386495667E-1,-6.303756018E-1,2.365809181E0,2.487335908E0
1.001014808E1,-7.259162550E-1,-7.681572718E-1,2.299477197E0,2.530734159E0
1.002009408E1,-9.740510374E-1,-8.361348083E-1,2.247613564E0,2.588370834E0
1.003004008E1,-1.135616476E0,-8.561984324E-1,2.222140169E0,2.638296319E0
1.003998608E1,-1.296454595E0,-9.123721216E-1,2.160547353E0,2.679772802E0
1.004993208E1,-1.483765909E0,-9.374076332E-1,2.092524939E0,2.731108743E0
1.005987808E1,-1.624401239E0,-9.700680602E-1,2.033133600E0,2.777290706E0
1.006982408E1,-1.768936370E0,-1.016953740E0,1.972797936E0,2.838179432E0
1.007977008E1,-1.924875619E0,-1.070529292E0,1.871332372E0,2.890166770E0
1.008971071E1,-2.022802740E0,-1.154813105E0,1.777932458E0,2.930250511E0
1.009965671E1,-2.129192975E0,-1.214197061E0,1.693685775E0,2.979313466E0
1.010960271E1,-2.264708776E0,-1.277289907E0,1.616832311E0,3.061784131E0
1.011954871E1,-2.354797412E0,-1.340098797E0,1.494988031E0,3.094499128E0
1.012949471E1,-2.404902788E0,-1.411886964E0,1.379810747E0,3.111408028E0
1.013944071E1,-2.521450659E0,-1.583717044E0,1.299207464E0,3.248663285E0
1.014938671E1,-2.600184880E0,-1.671712523E0,1.174518514E0,3.306822933E0
1.015933271E1,-2.575263754E0,-1.674335876E0,1.099224502E0,3.262465102E0
1.016927871E1,-2.493765263E0,-1.751257460E0,9.970409006E-1,3.206221832E0
1.017922471E1,-2.510277507E0,-1.877016305E0,9.316906643E-1,3.269974138E0
1.018917071E1,-2.497634073E0,-1.862244484E0,9.285565567E-1,3.250899531E0
1.019911671E1,-2.470977201E0,-1.976341641E0,8.631677288E-1,3.279742847E0
1.020906271E1,-2.488127670E0,-2.098280354E0,9.134695709E-1,3.380530491E0
1.021900871E1,-2.545762213E0,-2.123295619E0,7.474735504E-1,3.398235754E0
1.022895471E1,-2.599553088E0,-2.105086513E0,5.157536566E-1,3.384533545E0
1.023889971E1,-2.654547906E0,-2.091753545E0,3.467814034E-1,3.397398243E0
1.024884571E1,-2.653349811E0,-1.954669521E0,1.859204078E-1,3.300843007E0
1.025879171E1,-2.615297009E0,-1.867492798E0,-8.568275928E-2,3.214754941E0
1.026873771E1,-2.607635694E0,-1.734284455E0,-3.501529080E-1,3.151208267E0
1.027868371E1,-2.502114210E0,-1.618322036E0,-4.622171348E-1,3.015491072E0
1.028862971E1,-2.401698075E0,-1.560246613E0,-6.324190575E-1,2.932997954E0
1.029857571E1,-2.373658922E0,-1.560136977E0,-7.711676377E-1,2.943294683E0
1.030852171E1,-2.421619831E0,-1.583993179E0,-8.892696995E-1,3.027222753E0
1.031846771E1,-2.393826992E0,-1.582041670E0,-1.014415902E0,3.043403216E0
1.032841371E1,-2.366555139E0,-1.716143176E0,-1.084957881E0,3.118150771E0
1.033835971E1,-2.248959008E0,-1.647074841E0,-1.185394920E0,3.029163790E0
1.034830571E1,-2.139800993E0,-1.607773074E0,-1.229823818E0,2.945530372E0
1.035825171E1,-2.007615913E0,-1.638854387E0,-1.230524899E0,2.868894715E0
1.036819771E1,-1.905370769E0,-1.669264002E0,-1.263157625E0,2.830626655E0
1.037814371E1,-1.871034457E0,-1.734354621E0,-1.323551762E0,2.874116413E0
1.038808971E1,-1.872184604E0,-1.865525649E0,-1.387271794E0,2.984926158E0
1.039803471E1,-1.818823499E0,-1.940648921E0,-1.510202487E0,3.058586063E0
1.040798071E1,-1.800279931E0,-2.022788122E0,-1.660768874E0,3.176607132E0
1.041792671E1,-1.810543257E0,-2.122536066E0,-1.813454293E0,3.327437859E0
1.042787271E1,-1.734133889E0,-2.143626973E0,-1.967529595E0,3.387259903E0
1.043781871E1,-1.661759100E0,-2.158762490E0,-2.117887822E0,3.450673503E0
1.044776471E1,-1.609033587E0,-2.173871696E0,-2.329297997E0,3.569360782E0
1.045771071E1,-1.552689233E0,-2.201432839E0,-2.453833165E0,3.643960428E0
1.046765671E1,-1.531423202E0,-2.235798972E0,-2.601749595E0,3.756747931E0
1.047760271E1,-1.409137165E0,-2.269503785E0,-2.746639506E0,3.831493645E0
1.048754871E1,-1.257828180E0,-2.369696117E0,-2.835494379E0,3.903539393E0
1.049749471E1,-1.167667623E0,-2.406601404E0,-2.867473387E0,3.921425967E0
1.050744071E1,-9.683671783E-1,-2.235946614E0,-2.794286712E0,3.707456066E0
1.051738671E1,-7.772982971E-1,-2.179919471E0,-2.779226038E0,3.616675119E0
1.052733271E1,-5.155033958E-1,-2.094013056E0,-2.709448290E0,3.462909827E0
1.053727871E1,-2.171267784E-1,-1.867601264E0,-2.679395941E0,3.273261543E0
1.054722471E1,5.137882613E-2,-1.743905756E0,-2.662166535E0,3.182919686E0
1.055716971E1,2.497760227E-1,-1.644402225E0,-2.766099624E0,3.227654546E0
1.056711571E1,4.565118603E-1,-1.526624392E0,-2.852194027E0,3.267108183E0
1.057706171E1,5.346150932E-1,-1.487899159E0,-3.035149312E0,3.422249049E0
1.058700771E1,5.762460992E-1,-1.403045828E0,-3.269122723E0,3.603853568E0
1.059695371E1,6.402170505E-1,-1.291136552E0,-3.302600956E0,3.603343523E0
1.060689971E1,7.060324328E-1,-1.184577186E0,-3.299889602E0,3.576447440E0
1.061684571E1,9.562884387E-1,-9.928937629E-1,-3.196112634E0,3.480727161E0
1.062679171E1,1.177921301E0,-8.899681494E-1,-3.049158071E0,3.387758380E0
1.063673771E1,1.330179727E0,-8.304011017E-1,-2.959754729E0,3.349491327E0
1.064668371E1,1.363453746E0,-7.677461395E-1,-2.872728279E0,3.271239523E0
1.065662971E1,1.264194921E0,-8.108892354E-1,-2.982350709E0,3.339183418E0
1.066657571E1,1.240358600E0,-8.122314638E-1,-3.027722763E0,3.371248217E0
1.067652171E1,1.313526126E0,-7.900091207E-1,-2.867347087E0,3.251329668E0
1.068646771E1,1.289219835E0,-7.628081658E-1,-2.800273676E0,3.175767111E0
1.069641371E1,1.272501037E0,-6.931979406E-1,-2.684919806E0,3.050996007E0
1.070635871E1,1.310086209E0,-6.222560120E-1,-2.575561085E0,2.955849002E0
1.071630471E1,1.289160632E0,-6.374771914E-1,-2.571889034E0,2.946680422E0
1.072625071E1,1.223018756E0,-6.702233532E-1,-2.626748781E0,2.974018052E0
1.073619671E1,1.179257463E0,-5.481194571E-1,-2.597392250E0,2.904742605E0
1.074614271E1,1.194054792E0,-3.782955569E-1,-2.477655306E0,2.776265512E0
1.075608871E1,1.301066586E0,-2.826842254E-1,-2.293127705E0,2.651625785E0
1.076603471E1,1.551595072E0,-1.149825722E-1,-2.108918193E0,2.620725893E0
1.077598071E1,1.720414859E0,-5.366486818E-2,-1.849240422E0,2.526340703E0
1.078592671E1,1.751861477E0,-3.828698337E-2,-1.611841128E0,2.380864623E0
1.079587271E1,1.735962898E0,-1.339632189E-1,-1.425129007E0,2.250001337E0
1.080581871E1,1.779831634E0,-2.901432261E-1,-1.235338327E0,2.185873857E0
1.081576471E1,1.712616574E0,-3.856567629E-1,-1.009552188E0,2.025088217E0
1.082571071E1,1.712748575E0,-3.364056654E-1,-7.443733567E-1,1.897569010E0
1.083565671E1,1.683287525E0,-4.402662487E-1,-5.108823413E-1,1.813364836E0
1.084560271E1,1.892384103E0,-4.554744181E-1,-4.001717448E-1,1.987136624E0
1.085554771E1,2.139203993E0,-4.748591074E-1,-2.033351701E-1,2.200688548E0
1.086549371E1,2.235846188E0,-5.460492504E-1,-6.843522727E-2,2.302577109E0
1.087543971E1,2.393345473E0,-4.771902461E-1,1.752235115E-1,2.446735859E0
1.088538571E1,2.504384391E0,-3.186726683E-1,4.394387215E-1,2.562537773E0
1.089533171E1,2.642823654E0,-1.908665675E-1,6.694559062E-1,2.732968738E0
1.090527771E1,2.771405972E0,-1.071646987E-1,8.665924430E-1,2.905711238E0
1.091522371E1,2.828118117E0,1.438283488E-2,9.888904667E-1,2.996057961E0
1.092516971E1,2.844881207E0,8.867309846E-2,1.076264241E0,3.042951974E0
1.093511571E1,2.843780469E0,1.223888748E-1,1.148139970E0,3.069249384E0
1.094506171E1,2.791118398E0,9.267909899E-2,1.225372333E0,3.049666979E0
1.095500771E1,2.668285939E0,1.423101193E-1,1.399444528E0,3.016363209E0
1.096495371E1,2.562784919E0,1.913033545E-1,1.529928653E0,2.990843560E0
1.097489971E1,2.600628684E0,1.486657869E-1,1.588889052E0,3.051219344E0
1.098484571E1,2.773486412E0,1.303094400E-1,1.591653031E0,3.200401037E0
1.099479071E1,2.962683307E0,1.020210127E-1,1.523568637E0,3.333040962E0
1.100473671E1,3.053544652E0,1.153935949E-1,1.430023711E0,3.373783994E0
1.101468271E1,3.055400266E0,9.143947100E-2,1.223628693E0,3.292582443E0
1.102462871E1,2.970380874E0,8.888747200E-2,9.855189621E-1,3.130864280E0
1.103457471E1,2.811306787E0,1.383632396E-1,8.462792158E-1,2.939179945E0
1.104452071E1,2.700057662E0,2.546519062E-1,7.912539929E-1,2.825109175E0
1.105446671E1,2.560433461E0,4.958031030E-1,8.477035975E-1,2.742305894E0
1.106441271E1,2.343408644E0,6.914545932E-1,9.579826695E-1,2.624386466E0
1.107435871E1,2.178070727E0,7.328881826E-1,1.064599630E0,2.532684259E0
1.108430479E1,2.059958872E0,5.562778213E-1,1.324124789E0,2.511211266E0
1.109425079E1,2.051412727E0,4.134193062E-1,1.438847160E0,2.539584779E0
1.110419679E1,1.995940485E0,1.709169640E-1,1.566583679E0,2.543064185E0
1.111414279E1,1.922236916E0,-2.806985110E-2,1.658642242E0,2.539070059E0
1.112408879E1,1.865741703E0,-1.393428766E-1,1.809144310E0,2.602577891E0
1.113403479E1,1.774049614E0,-1.951177856E-1,1.914996455E0,2.617734595E0
1.114397979E1,1.572808040E0,1.505073309E-3,1.994579984E0,2.540093838E0
1.115392579E1,1.335766303E0,2.567005147E-1,2.109682424E0,2.510164676E0
1.116387179E1,1.267049532E0,3.367287972E-1,2.118208834E0,2.491106072E0
1.117381779E1,1.217659709E0,3.935169556E-1,2.174787077E0,2.523340959E0
1.118376379E1,1.140716418E0,3.074314693E-1,2.278742386E0,2.566790781E0
1.119370979E1,1.143403944E0,1.562767786E-1,2.204422520E0,2.488227011E0
1.120365579E1,1.073512907E0,-4.456192285E-2,2.220884771E0,2.467132930E0
1.121360179E1,9.834757988E-1,-2.226370483E-1,2.254243137E0,2.469494689E0
1.122354779E1,9.410159500E-1,-3.816856264E-1,2.171415573E0,2.397131729E0
1.123349379E1,8.513335490E-1,-4.226269533E-1,2.148895606E0,2.349709489E0
1.124343979E1,7.234564776E-1,-3.039673595E-1,2.089163375E0,2.231678525E0
1.125338579E1,6.052575713E-1,-2.221708059E-1,1.993083097E0,2.094773693E0
1.126333179E1,5.188974852E-1,-2.056018433E-1,1.892271252E0,1.972870297E0
1.127327779E1,4.985998628E-1,-2.168441387E-1,1.795584617E0,1.876098964E0
1.128322279E1,5.160282565E-1,-2.127850746E-1,1.658855081E0,1.750246505E0
1.129316879E1,5.362747158E-1,-1.705759252E-1,1.615633047E0,1.710835135E0
1.130311479E1,5.260611649E-1,-1.212208204E-1,1.576156740E0,1.666044689E0
1.131306079E1,3.287110951E-1,-1.122983348E-1,1.698072356E0,1.733237325E0
1.132300679E1,1.234594635E-1,-6.346399762E-2,1.773847008E0,1.779270392E0
1.133295279E1,-1.987995581E-1,-1.168637677E-1,1.903161106E0,1.917081271E0
1.134289879E1,-5.214736953E-1,-1.930173927E-1,2.169967217E0,2.240077734E0
1.135284479E1,-8.514975634E-1,-2.990935591E-1,2.405662633E0,2.569380813E0
1.136279079E1,-9.457084867E-1,-3.684044069E-1,2.694960060E0,2.879738889E0
1.137273679E1,-1.025738962E0,-4.648158567E-1,2.765769841E0,2.986247982E0
1.138268279E1,-1.119996151E0,-4.744262673E-1,2.897910483E0,3.142826249E0
1.139262879E1,-1.162439043E0,-4.351231109E-1,3.008439231E0,3.254428253E0
1.140257479E1,-1.150652664E0,-4.921727130E-1,3.052467011E0,3.299059015E0
1.141252079E1,-1.133560668E0,-5.666485526E-1,3.016724151E0,3.272105587E0
1.142246679E1,-1.201424184E0,-5.388551286E-1,3.002875021E0,3.278878361E0
1.143241179E1,-1.328580659E0,-5.616080334E-1,2.936022635E0,3.271201471E0
1.144235779E1,-1.384209315E0,-6.558407376E-1,2.901174983E0,3.280697911E0
1.145230379E1,-1.438832103E0,-7.986541560E-1,2.801414468E0,3.249001278E0
1.146224979E1,-1.492404878E0,-8.888757433E-1,2.805332102E0,3.299584915E0
1.147219579E1,-1.575298515E0,-9.854724768E-1,2.763733256E0,3.330306731E0
1.148214179E1,-1.572807747E0,-1.028246906E0,2.662753596E0,3.259029399E0
1.149208779E1,-1.532578319E0,-1.116144006E0,2.602523181E0,3.219891404E0
1.150203379E1,-1.554926670E0,-1.237206659E0,2.473089216E0,3.172482866E0
1.151197979E1,-1.581768605E0,-1.324057692E0,2.270081490E0,3.067310004E0
1.152192579E1,-1.717771918E0,-1.430330105E0,2.073319175E0,3.048809107E0
1.153187179E1,-1.858525508E0,-1.549045248E0,1.809119752E0,3.021021768E0
1.154181779E1,-2.003390568E0,-1.621452489E0,1.506099495E0,2.985132766E0
1.155176379E1,-2.151835440E0,-1.642262144E0,1.183392248E0,2.954291442E0
1.156170979E1,-2.212027555E0,-1.638158276E0,8.725940251E-1,2.887567969E0
1.157165579E1,-2.350567244E0,-1.619374827E0,6.619124132E-1,2.930131267E0
1.158160079E1,-2.383310482E0,-1.623084446E0,5.018928319E-1,2.926852984E0
1.159154679E1,-2.372899368E0,-1.672789873E0,3.218243176E-1,2.921035478E0
1.160149279E1,-2.449777244E0,-1.731865169E0,9.179543853E-2,3.001531595E0
1.161143879E1,-2.624396446E0,-1.692142987E0,-9.723334908E-2,3.124141309E0
1.162138479E1,-2.769967557E0,-1.641091239E0,-2.860305870E-1,3.232292410E0
1.163133079E1,-2.827942993E0,-1.508909959E0,-3.980994916E-1,3.229946446E0
1.164127679E1,-2.803610974E0,-1.387698495E0,-4.849978870E-1,3.165622302E0
1.165122279E1,-2.675467781E0,-1.300123430E0,-6.295708787E-1,3.040527631E0
1.166116879E1,-2.525774383E0,-1.317261912E0,-7.100373369E-1,2.935790898E0
1.167111479E1,-2.470587485E0,-1.314675250E0,-8.047552139E-1,2.912010385E0
1.168106079E1,-2.382743741E0,-1.356522164E0,-8.196726304E-1,2.861727334E0
1.169100679E1,-2.385737223E0,-1.490005911E0,-9.190197480E-1,2.959131124E0
1.170095279E1,-2.315052571E0,-1.498038524E0,-1.084122899E0,2.962922592E0
1.171089779E1,-2.275035836E0,-1.511541937E0,-1.132505684E0,2.956876089E0
1.172084379E1,-2.211999342E0,-1.535312331E0,-1.091935948E0,2.905589296E0
1.173078979E1,-2.077818899E0,-1.604145315E0,-1.104385840E0,2.847855624E0
1.174073579E1,-1.902134189E0,-1.702968814E0,-1.260191917E0,2.847156638E0
1.175068179E1,-1.793397174E0,-1.755754554E0,-1.387354825E0,2.867699581E0
1.176062779E1,-1.720075867E0,-1.861056037E0,-1.582341925E0,2.987640629E0
1.177057379E1,-1.649189341E0,-1.960207711E0,-1.802624665E0,3.132362597E0
1.178051979E1,-1.616638476E0,-2.073237898E0,-2.047252287E0,3.332128040E0
1.179046579E1,-1.534157506E0,-2.174299712E0,-2.240557728E0,3.478694787E0
1.180041179E1,-1.489170052E0,-2.173580212E0,-2.278535394E0,3.483360723E0
1.181035779E1,-1.607432327E0,-2.111490383E0,-2.304241508E0,3.514506972E0
1.182030379E1,-1.588541143E0,-1.997713507E0,-2.302599025E0,3.437482289E0
1.183024979E1,-1.658613591E0,-1.945607799E0,-2.421040810E0,3.521054864E0
1.184019579E1,-1.709299302E0,-1.934349277E0,-2.524268725E0,3.610449256E0
1.185014079E1,-1.736347937E0,-1.896276302E0,-2.656982979E0,3.697340466E0
1.186008679E1,-1.698048675E0,-1.738772778E0,-2.692168599E0,3.626909406E0
1.187003279E1,-1.557828935E0,-1.906063664E0,-2.798782636E0,3.727344085E0
1.187997879E1,-1.471342476E0,-1.917536778E0,-2.780542831E0,3.684184362E0
1.188992479E1,-1.324230331E0,-1.749376703E0,-2.781688886E0,3.542837546E0
1.189987079E1,-1.191885914E0,-1.792855137E0,-2.810582317E0,3.540380564E0
1.190981679E1,-1.045583608E0,-1.789685946E0,-2.818728073E0,3.498778189E0
1.191976279E1,-9.656488808E-1,-1.726183138E0,-2.604798333E0,3.270651363E0
1.192970879E1,-9.127727289E-1,-1.687883583E0,-2.413058776E0,3.083011142E0
1.193965479E1,-7.891802779E-1,-1.515121457E0,-2.271274906E0,2.842021858E0
1.194960079E1,-6.497197261E-1,-1.345464495E0,-2.066117744E0,2.549755471E0
1.195954679E1,-4.985986568E-1,-1.313835151E0,-1.950142314E0,2.403709315E0
1.196949279E1,-3.472502039E-1,-1.227795711E0,-1.861942914E0,2.257187725E0
1.197943879E1,-2.998213913E-1,-1.180360759E0,-1.823315622E0,2.192629528E0
1.198938379E1,-2.720332298E-1,-1.232763214E0,-1.883919089E0,2.267787105E0
1.199932979E1,-1.901523301E-1,-1.246077031E0,-1.999784006E0,2.363895502E0
1.200927579E1,-1.019218659E-1,-1.203438258E0,-1.983411802E0,2.322191655E0
1.201922179E1,2.488940433E-2,-1.181313855E0,-1.938592309E0,2.270299991E0
1.202916779E1,1.736181584E-1,-1.136990791E0,-2.018697410E0,2.323366212E0
1.203911379E1,3.047238430E-1,-1.210298796E0,-2.103659207E0,2.446029815E0
1.204905979E1,4.175713044E-1,-1.310013118E0,-2.117490796E0,2.524731161E0
1.205900579E1,5.102699551E-1,-1.383812581E0,-2.160104719E0,2.615600329E0
1.206895179E1,6.713688958E-1,-1.399237829E0,-2.188035114E0,2.682554819E0
1.207889779E1,7.509657269E-1,-1.306283764E0,-2.010583813E0,2.512523446E0
1.208884421E1,9.032055147E-1,-1.251669601E0,-1.951271996E0,2.487954862E0
1.209879021E1,1.023195862E0,-1.226763970E0,-2.045167755E0,2.595109007E0
1.210873621E1,1.166629889E0,-1.019060638E0,-1.584688997E0,2.216021006E0
1.211868221E1,1.256933264E0,-9.417858821E-1,-1.805183406E0,2.392807767E0
1.212862721E1,1.250832572E0,-9.706398448E-1,-1.882812796E0,2.460021921E0
1.213857321E1,1.227577318E0,-8.662980357E-1,-1.987725293E0,2.491680196E0
1.214851921E1,1.138401432E0,-8.809587595E-1,-1.978012483E0,2.446340029E0
1.215846521E1,1.289418202E0,-8.313658923E-1,-1.889344136E0,2.433801514E0
1.216841121E1,1.425513169E0,-7.582821286E-1,-1.782294481E0,2.404922701E0
1.217835721E1,1.636342716E0,-6.287753651E-1,-1.672219477E0,2.422662569E0
1.218830321E1,1.835568024E0,-5.963396904E-1,-1.468505407E0,2.425167856E0
1.219824921E1,2.030183388E0,-4.100529546E-1,-1.359464775E0,2.477485114E0
1.220819521E1,2.219126514E0,-3.647411263E-1,-1.152126017E0,2.526846440E0
1.221814121E1,2.246202046E0,-2.913287491E-1,-1.010246837E0,2.480099744E0
1.222808721E1,2.287636878E0,-3.021922910E-1,-9.378682476E-1,2.490823060E0
1.223803321E1,2.382231086E0,-3.925978464E-1,-8.893053675E-1,2.572940351E0
1.224797921E1,2.459168165E0,-3.910392711E-1,-8.680600941E-1,2.637033959E0
1.225792421E1,2.443607262E0,-3.812782216E-1,-8.466610390E-1,2.614081951E0
1.226787021E1,2.415704641E0,-3.496358679E-1,-8.159029305E-1,2.573630072E0
1.227781621E1,2.411224359E0,-1.785475074E-1,-6.830424964E-1,2.512454810E0
1.228776221E1,2.373220088E0,-6.204831362E-2,-5.701327622E-1,2.441531271E0
1.229770821E1,2.414464739E0,1.344255875E-1,-3.973264897E-1,2.450628196E0
1.230765421E1,2.454124357E0,1.885387909E-1,-2.341114050E-1,2.472464637E0
1.231760021E1,2.509231148E0,1.980928490E-1,-1.213513595E-1,2.519961881E0
1.232754621E1,2.539982240E0,2.342735191E-1,-4.554805577E-2,2.551170023E0
1.233749221E1,2.619385090E0,1.673535977E-1,4.388510764E-2,2.625092642E0
1.234743821E1,2.685388752E0,3.653179541E-2,1.147557002E-1,2.688087832E0
1.235738421E1,2.732542453E0,-1.219597623E-1,1.956384802E-1,2.742250327E0
1.236733021E1,2.685314200E0,-1.908195705E-1,2.383635002E-1,2.702617550E0
1.237727621E1,2.557536751E0,-1.234850085E-1,2.500053066E-1,2.572692254E0
1.238722221E1,2.316577087E0,2.601572424E-2,3.174839294E-1,2.338375988E0
1.239716721E1,2.151203502E0,1.818277223E-1,3.743726599E-1,2.191093955E0
1.240711321E1,2.150977215E0,4.108900566E-1,5.831165045E-1,2.266177062E0
1.241705921E1,2.266967263E0,5.162198259E-1,8.323610884E-1,2.469503687E0
1.242700521E1,2.403253142E0,4.916206993E-1,1.048898102E0,2.667865027E0
1.243695121E1,2.637129343E0,3.842500324E-1,1.222765644E0,2.932107617E0
1.244689721E1,2.712517202E0,2.745512053E-1,1.229422699E0,2.990753769E0
1.245684321E1,2.575796728E0,2.158972186E-1,1.653251694E0,3.068319012E0
1.246678921E1,2.314709778E0,2.628654169E-1,1.496691910E0,2.768946778E0
1.247673521E1,2.235996023E0,3.511882306E-1,1.578717821E0,2.759594417E0
1.248668121E1,1.919381721E0,3.779447240E-1,2.499501674E0,3.174015914E0
1.249662721E1,2.094690455E0,6.625187695E-1,1.816493091E0,2.850667707E0
1.250657321E1,2.041493511E0,5.732847403E-1,2.542440117E0,3.310642369E0
1.251651821E1,2.222389845E0,5.773499805E-1,2.863092653E0,3.670102064E0
1.252646421E1,2.340568797E0,6.929318923E-1,2.905627638E0,3.794876661E0
1.253641021E1,2.328718245E0,6.049399213E-1,3.057973334E0,3.891025814E0
1.254635621E1,2.282864088E0,5.383999959E-1,3.030929376E0,3.832476469E0
1.255630221E1,2.261487544E0,4.658063020E-1,2.879991691E0,3.691294294E0
1.256624821E1,2.139534506E0,3.478868926E-1,2.814829735E0,3.552731291E0
1.257619421E1,2.008921742E0,3.943874598E-1,2.792236093E0,3.462353309E0
1.258614021E1,1.795039218E0,5.180269810E-1,2.831620014E0,3.392431230E0
1.259608621E1,1.569776258E0,6.139216100E-1,2.909611346E0,3.362578688E0
1.260603221E1,1.351234673E0,6.004675323E-1,3.000129168E0,3.344722922E0
1.261597821E1,1.331199042E0,4.360461670E-1,3.056150172E0,3.361886527E0
1.262592421E1,1.390458527E0,2.239859279E-1,3.109780249E0,3.413836230E0
1.263587021E1,1.357884565E0,5.741424903E-2,3.100658008E0,3.385443393E0
1.264581621E1,1.367477946E0,-1.752860767E-1,3.113349974E0,3.404947753E0
1.265576121E1,1.329190085E0,-4.090109807E-1,3.057787977E0,3.359181980E0
1.266570721E1,1.145453759E0,-4.351440878E-1,2.968251902E0,3.211220025E0
1.267565321E1,9.499747615E-1,-3.862642886E-1,2.977724392E0,3.149364174E0
1.268559921E1,8.184153329E-1,-3.992182832E-1,2.879769496E0,3.020306482E0
1.269554521E1,6.388403235E-1,-3.053090031E-1,2.788866343E0,2.877343571E0
1.270549121E1,3.918771040E-1,-7.223409019E-2,2.692942185E0,2.722264323E0
1.271543721E1,7.184448291E-2,4.470993049E-2,2.666680001E0,2.668022270E0
1.272538321E1,-1.796748140E-1,-4.847933806E-2,2.637422873E0,2.643980464E0
1.273532921E1,-3.774951462E-1,-1.233888949E-1,2.654618949E0,2.684162657E0
1.274527521E1,-6.255153231E-1,-1.499836396E-1,2.645433558E0,2.722514136E0
1.275522121E1,-8.127360054E-1,-1.328656965E-1,2.641062765E0,2.766478923E0
1.276516721E1,-9.540588223E-1,-1.460871282E-1,2.643032107E0,2.813749883E0
1.277511321E1,-1.141222714E0,-2.105333119E-1,2.659676791E0,2.901826009E0
1.278505821E1,-1.347973242E0,-2.692338387E-1,2.595674338E0,2.937183002E0
1.279500421E1,-1.588912880E0,-3.536365329E-1,2.468401503E0,2.956807217E0
1.280495021E1,-1.859993744E0,-5.310966043E-1,2.383191199E0,3.069403952E0
1.281489621E1,-2.106007449E0,-7.303577270E-1,2.318211091E0,3.216021214E0
1.282484221E1,-2.296783969E0,-9.049729818E-1,2.204699094E0,3.309817335E0
1.283478821E1,-2.521286645E0,-1.087032985E0,2.033147634E0,3.416462550E0
1.284473421E1,-2.552298230E0,-1.249745574E0,1.885620629E0,3.410521281E0
1.285468021E1,-2.641841906E0,-1.400230247E0,1.756390731E0,3.467691134E0
1.286462621E1,-2.721352344E0,-1.430362265E0,1.595723278E0,3.463816908E0
1.287457221E1,-2.732231966E0,-1.550981699E0,1.509601393E0,3.485617896E0
1.288451821E1,-2.893892861E0,-1.663918477E0,1.309152408E0,3.585682727E0
1.289446421E1,-3.067749001E0,-1.705071035E0,1.132612689E0,3.687975416E0
1.290441021E1,-3.100438153E0,-1.878104618E0,1.130346308E0,3.797061557E0
1.291435521E1,-3.109704235E0,-1.952332097E0,1.050228928E0,3.819010585E0
1.292430121E1,-3.129999921E0,-1.945759680E0,1.001146231E0,3.819054073E0
1.293424721E1,-3.123924664E0,-2.032301834E0,8.539115864E-1,3.823391302E0
1.294419321E1,-3.094317872E0,-2.150877813E0,6.114866102E-1,3.817721091E0
1.295413921E1,-3.117149787E0,-2.212041735E0,3.391811925E-1,3.837290100E0
1.296408521E1,-3.135497473E0,-2.315053156E0,1.212659901E-1,3.899425722E0
1.297403121E1,-3.131851149E0,-2.336858739E0,-1.424668247E-1,3.910204238E0
1.298397721E1,-3.135301884E0,-2.368875461E0,-3.453722245E-1,3.944739639E0
1.299392321E1,-3.200486351E0,-2.411616561E0,-4.666171646E-1,4.034444063E0
1.300386921E1,-3.145284250E0,-2.304864675E0,-6.200720769E-1,3.948379866E0
1.301381521E1,-3.059077580E0,-2.227685814E0,-6.654552412E-1,3.842313158E0
1.302376121E1,-3.026321478E0,-2.061680877E0,-7.110845733E-1,3.730253476E0
1.303370721E1,-2.918858425E0,-1.883665612E0,-7.858868337E-1,3.561677801E0
1.304365221E1,-2.839924522E0,-1.815734415E0,-8.388514978E-1,3.473576628E0
1.305359821E1,-2.734436367E0,-1.723208951E0,-8.872231740E-1,3.351679623E0
1.306354421E1,-2.649963689E0,-1.568266654E0,-8.359694052E-1,3.190707240E0
1.307349021E1,-2.575795559E0,-1.524675222E0,-7.948517847E-1,3.096957645E0
1.308343621E1,-2.399599217E0,-1.550018809E0,-8.754866427E-1,2.987827232E0
1.309338154E1,-2.121894334E0,-1.502893467E0,-9.690058404E-1,2.774904801E0
1.310332754E1,-1.946462808E0,-1.463788604E0,-9.503380197E-1,2.614294722E0
1.311327354E1,-1.906892945E0,-1.443791273E0,-9.294277918E-1,2.566049486E0
1.312321954E1,-1.853296343E0,-1.489186132E0,-1.011539657E0,2.583717312E0
1.313316554E1,-1.883662688E0,-1.495964224E0,-1.095732545E0,2.643241172E0
1.314311154E1,-1.936094525E0,-1.594203879E0,-1.226447636E0,2.791795448E0
1.315305754E1,-2.009791223E0,-1.741105817E0,-1.440123607E0,3.024014919E0
1.316300354E1,-2.053640078E0,-1.780320753E0,-1.650642081E0,3.179874028E0
1.317294954E1,-2.024803949E0,-1.759546765E0,-1.765565597E0,3.211394982E0
1.318289454E1,-1.950898652E0,-1.830633413E0,-1.942015854E0,3.305850846E0
1.319284054E1,-1.849445952E0,-1.830307138E0,-2.171345991E0,3.388984798E0
1.320278654E1,-1.787697016E0,-1.948118008E0,-2.231536059E0,3.459881151E0
1.321273254E1,-1.675975582E0,-2.080559197E0,-2.351217454E0,3.558910541E0
1.322267854E1,-1.531419693E0,-2.136708255E0,-2.529420707E0,3.648114246E0
1.323262454E1,-1.367259406E0,-2.225285678E0,-2.694768856E0,3.752742173E0
1.324257054E1,-1.200346104E0,-2.216865395E0,-2.708536125E0,3.700201466E0
1.325251654E1,-1.064550514E0,-2.158207297E0,-2.702169092E0,3.618403562E0
1.326246254E1,-9.038475390E-1,-2.111660537E0,-2.781646201E0,3.607437620E0
1.327240854E1,-6.835117355E-1,-1.898604371E0,-2.829072382E0,3.474987395E0
1.328235454E1,-4.286033924E-1,-1.737122693E0,-2.916439140E0,3.421536698E0
1.329230054E1,-1.102512977E-1,-2.202050597E0,-2.840272139E0,3.595598421E0
1.330224554E1,4.371575765E-2,-2.086831213E0,-2.659970906E0,3.381156725E0
1.331219154E1,-7.410432212E-2,-1.886409418E0,-2.792215628E0,3.370534091E0
1.332213754E1,-1.451626834E-1,-2.054651939E0,-2.710944593E0,3.404686091E0
1.333208354E1,-8.683802292E-2,-2.141359423E0,-2.848668156E0,3.564810133E0
1.334202954E1,-5.041337773E-2,-2.209516907E0,-2.929496557E0,3.669667090E0
1.335197554E1,-8.009932615E-2,-2.202601113E0,-3.029146560E0,3.746144211E0
1.336192154E1,-4.186043613E-2,-2.203524973E0,-3.200520265E0,3.885949635E0
1.337186754E1,-1.938355643E-2,-2.241980356E0,-3.296622763E0,3.986799879E0
1.338181354E1,1.050174549E-2,-2.152873467E0,-3.334935474E0,3.969479697E0
1.339175954E1,1.783252401E-1,-2.044225184E0,-3.293054792E0,3.880060097E0
1.340170554E1,5.286024014E-1,-1.883337876E0,-3.192018998E0,3.743710370E0
1.341165154E1,1.014723392E0,-1.674563625E0,-3.086108966E0,3.654845475E0
1.342159654E1,1.534693257E0,-1.399522880E0,-2.965135337E0,3.620217569E0
1.343154254E1,1.793076016E0,-1.215523868E0,-2.848099807E0,3.578308592E0
1.344148854E1,1.860070343E0,-1.198834452E0,-2.794325888E0,3.564452678E0
1.345143454E1,1.791858479E0,-1.388661677E0,-2.754414548E0,3.567343208E0
1.346138054E1,1.697116044E0,-1.194544350E0,-2.762679588E0,3.455363595E0
1.347132654E1,1.719630309E0,-1.086588377E0,-2.541247870E0,3.255110357E0
1.348127254E1,1.750393242E0,-1.005024689E0,-2.337592272E0,3.088412012E0
1.349121854E1,1.880609419E0,-8.088813016E-1,-2.211248560E0,3.013403547E0
1.350116454E1,2.074856992E0,-7.531742933E-1,-2.071777264E0,3.027303104E0
1.351111054E1,2.197283801E0,-6.771499649E-1,-2.083594487E0,3.102894481E0
1.352105654E1,2.221566118E0,-7.004958504E-1,-2.143428460E0,3.165491434E0
1.353100254E1,2.276756086E0,-7.649976557E-1,-2.126703084E0,3.208068842E0
1.354094854E1,2.370799048E0,-6.939937466E-1,-1.828827792E0,3.073585291E0
1.355089354E1,2.371740889E0,-5.488187841E-1,-1.524332283E0,2.872271890E0
1.356083954E1,2.470130232E0,-4.572636661E-1,-1.306922280E0,2.831727259E0
1.357078554E1,2.686027853E0,-3.803496838E-1,-1.136677088E0,2.941334104E0
1.358073154E1,2.706338156E0,-3.401167470E-1,-1.018479717E0,2.911571148E0
1.359067754E1,2.656576597E0,-3.832171583E-1,-9.761610782E-1,2.856071613E0
1.360062354E1,2.741379643E0,-4.430309585E-1,-7.850658846E-1,2.885787106E0
1.361056954E1,2.750286414E0,-4.827076788E-1,-5.583979851E-1,2.847611345E0
1.362051554E1,2.758703189E0,-2.754361631E-1,-2.405918741E-1,2.782838984E0
1.363046154E1,2.897825698E0,-7.046201840E-2,-2.699074745E-3,2.898683487E0
1.364040754E1,3.096411175E0,2.753366143E-2,2.064312708E-1,3.103406860E0
1.365035354E1,3.160110158E0,2.314636396E-1,4.707458836E-1,3.203353448E0
1.366029954E1,3.155739364E0,3.238616337E-1,6.256099749E-1,3.233413851E0
1.367024454E1,3.194305844E0,2.170864327E-1,7.381115735E-1,3.285654431E0
1.368019054E1,3.168212644E0,7.475570194E-2,9.368981946E-1,3.304684252E0
1.369013654E1,3.079399871E0,7.524796441E-2,1.016039089E0,3.243563049E0
1.370008254E1,3.033054839E0,7.704919919E-2,9.906218272E-1,3.191659418E0
1.371002854E1,2.944385322E0,2.186825033E-1,1.030779920E0,3.127256658E0
1.371997454E1,2.807096792E0,5.180740145E-1,1.307913383E0,3.139877466E0
1.372992054E1,2.799932199E0,6.157634830E-1,1.559578714E0,3.263597823E0
1.373986654E1,2.954350440E0,7.337328860E-1,1.616768577E0,3.446808828E0
1.374981254E1,3.162221003E0,7.423858881E-1,1.776417444E0,3.702220606E0
1.375975854E1,3.255014561E0,6.497762248E-1,1.950067470E0,3.849687269E0
1.376970454E1,3.333927706E0,5.632242769E-1,1.956273705E0,3.906315699E0
1.377965054E1,3.374745072E0,3.734921789E-1,1.921972184E0,3.901586573E0
1.378959554E1,3.234664204E0,3.347062087E-1,1.952611594E0,3.793121774E0
1.379954154E1,2.934882135E0,4.610776221E-1,2.035658428E0,3.601392919E0
1.380948754E1,2.666256370E0,5.742822388E-1,2.218823043E0,3.515949206E0
1.381943354E1,2.583082066E0,6.068602201E-1,2.314391105E0,3.520937159E0
1.382937954E1,2.480740590E0,5.171355730E-1,2.367869740E0,3.468185430E0
1.383932554E1,2.453610386E0,5.367836063E-1,2.463088138E0,3.517832251E0
1.384927154E1,2.485466017E0,4.795707207E-1,2.539582583E0,3.585667175E0
1.385921754E1,2.396114861E0,3.974765439E-1,2.653500962E0,3.597279720E0
1.386916354E1,2.268314753E0,3.939996433E-1,2.673077440E0,3.527864870E0
1.387910954E1,2.199903938E0,2.494542065E-1,2.668515442E0,3.467387980E0
1.388905554E1,2.093275137E0,1.764045028E-1,2.690851221E0,3.413736903E0
1.389900154E1,1.949962220E0,1.848847197E-1,2.696137104E0,3.332520113E0
1.390894654E1,1.823877686E0,1.537768015E-1,2.686214964E0,3.250527334E0
1.391889254E1,1.661140172E0,1.430699649E-1,2.702403565E0,3.175348912E0
1.392883854E1,1.495432858E0,7.760892391E-2,2.784026018E0,3.161193358E0
1.393878454E1,1.350530230E0,2.531142712E-2,2.878522870E0,3.179695973E0
1.394873054E1,1.264853318E0,5.006824583E-2,2.936417906E0,3.197641453E0
1.395867654E1,1.249231019E0,8.183938444E-2,3.072085589E0,3.317376326E0
1.396862254E1,1.307970686E0,7.219542548E-2,3.138210581E0,3.400641873E0
1.397856854E1,1.378497462E0,3.072653353E-2,3.146833470E0,3.435660091E0
1.398851454E1,1.370311507E0,-2.469951600E-2,3.111878815E0,3.400316669E0
1.399846054E1,1.165859737E0,-4.924261898E-2,3.151130004E0,3.360249108E0
1.400840654E1,8.429476916E-1,-7.697216213E-2,3.153284118E0,3.264917496E0
1.401835254E1,5.046033818E-1,-1.830900630E-1,3.070072392E0,3.116647403E0
1.402829754E1,1.574896373E-1,-2.598267286E-1,3.043485687E0,3.058613745E0
1.403824354E1,-1.796760200E-1,-2.682422606E-1,3.017356235E0,3.034580042E0
1.404818954E1,-4.323532118E-1,-3.094077551E-1,2.976145644E0,3.023260715E0
1.405813554E1,-5.416161838E-1,-3.196028142E-1,2.927414364E0,2.994202549E0
1.406808154E1,-7.026044295E-1,-4.644334488E-1,2.902850795E0,3.022564169E0
1.407802754E1,-8.637275997E-1,-6.011075831E-1,2.915569074E0,3.099661065E0
1.408797383E1,-1.021195456E0,-6.822597735E-1,2.900202007E0,3.149522224E0
1.409791983E1,-1.218803205E0,-8.141954704E-1,2.833157832E0,3.189855611E0
1.410786583E1,-1.399279051E0,-9.981064826E-1,2.720709443E0,3.218145163E0
1.411781183E1,-1.594586287E0,-1.169353814E0,2.602302157E0,3.268343661E0
1.412775783E1,-1.811615051E0,-1.327122071E0,2.473090970E0,3.340565975E0
1.413770383E1,-1.971829930E0,-1.469224615E0,2.400040535E0,3.436121187E0
1.414764883E1,-2.119953497E0,-1.574877516E0,2.328716784E0,3.520989048E0
1.415759483E1,-2.274122793E0,-1.732236321E0,2.199817253E0,3.607141957E0
1.416754083E1,-2.443055870E0,-1.819707890E0,2.111544762E0,3.706545571E0
1.417748683E1,-2.631281835E0,-1.855455135E0,2.056495566E0,3.820409908E0
1.418743283E1,-2.740526826E0,-1.893956419E0,2.013577003E0,3.892563493E0
1.419737883E1,-2.823545594E0,-1.896907801E0,1.969784866E0,3.930740560E0
1.420732483E1,-2.866056606E0,-1.898742365E0,1.795782838E0,3.878703268E0
1.421727083E1,-2.891699570E0,-1.908095864E0,1.612372055E0,3.821321744E0
1.422721683E1,-2.943724879E0,-1.935234984E0,1.360707893E0,3.776529701E0
1.423716283E1,-3.018087137E0,-1.918605649E0,1.097159266E0,3.740809546E0
1.424710883E1,-3.130084413E0,-1.908128462E0,7.791625357E-1,3.747729568E0
1.425705483E1,-3.220632933E0,-1.890037615E0,5.547633559E-1,3.775245827E0
1.426700083E1,-3.341225616E0,-1.905066275E0,3.303402025E-1,3.860335579E0
1.427694583E1,-3.398179251E0,-1.841386296E0,9.256200850E-2,3.866121239E0
1.428689183E1,-3.352087989E0,-1.806635124E0,-3.431555450E-2,3.808096888E0
1.429683783E1,-3.227691692E0,-1.777258128E0,-1.444110239E-1,3.687478088E0
1.430678383E1,-3.111627384E0,-1.788640172E0,-2.815837795E-1,3.600103897E0
1.431672983E1,-3.032892287E0,-1.661347164E0,-3.393659645E-1,3.474720029E0
1.432667583E1,-2.990239187E0,-1.654688793E0,-4.225057697E-1,3.443549989E0
1.433662183E1,-2.954568248E0,-1.661934955E0,-5.356295121E-1,3.431967410E0
1.434656783E1,-3.012306287E0,-1.658834908E0,-6.049464995E-1,3.491659016E0
1.435651383E1,-3.016646383E0,-1.708225900E0,-7.011676955E-1,3.536923417E0
1.436645983E1,-3.000169806E0,-1.707119460E0,-7.826369512E-1,3.539462716E0
1.437640583E1,-2.889265375E0,-1.751238603E0,-7.797998822E-1,3.467387908E0
1.438635183E1,-2.763047962E0,-1.691163286E0,-7.752308679E-1,3.330983368E0
1.439629683E1,-2.530857368E0,-1.656349110E0,-7.078352755E-1,3.106406633E0
1.440624283E1,-2.563922203E0,-1.643322098E0,-8.095551932E-1,3.151124274E0
1.441618883E1,-2.548756279E0,-1.532769231E0,-7.845180005E-1,3.075875254E0
1.442613483E1,-2.479948292E0,-1.512438900E0,-9.069335532E-1,3.043048378E0
1.443608083E1,-2.391008049E0,-1.614348706E0,-1.056481941E0,3.072327347E0
1.444602683E1,-2.262697772E0,-1.642606545E0,-1.135960804E0,3.018006696E0
1.445597283E1,-2.188833990E0,-1.668493631E0,-1.199020686E0,3.002085248E0
1.446591883E1,-2.082556314E0,-1.776324620E0,-1.424893364E0,3.085885781E0
1.447586483E1,-1.985963966E0,-1.840861070E0,-1.560380952E0,3.125317755E0
1.448581083E1,-2.046599738E0,-1.992097841E0,-1.571033410E0,3.259627321E0
1.449575683E1,-2.143331981E0,-2.111134288E0,-1.687211738E0,3.449267083E0
1.450570183E1,-2.044407324E0,-2.247807983E0,-1.849978341E0,3.557339160E0
1.451564783E1,-1.993034565E0,-2.308604408E0,-1.924961280E0,3.606565821E0
1.452559383E1,-1.855502498E0,-2.324565260E0,-1.987084438E0,3.577009608E0
1.453553983E1,-1.712689518E0,-2.444612691E0,-2.113772551E0,3.657522521E0
1.454548583E1,-1.475386118E0,-2.386984580E0,-2.198655412E0,3.564904655E0
1.455543183E1,-1.295069389E0,-2.357243595E0,-2.232957518E0,3.495697550E0
1.456537783E1,-1.164277993E0,-2.333735156E0,-2.243502386E0,3.440227606E0
1.457532383E1,-9.011743382E-1,-2.158088599E0,-2.234023465E0,3.234242172E0
1.458526983E1,-6.349726827E-1,-1.993841773E0,-2.205225343E0,3.040002325E0
1.459521583E1,-3.550512667E-1,-1.849912267E0,-2.230778260E0,2.919693211E0
1.460516183E1,-3.211298145E-2,-1.655982344E0,-2.293426498E0,2.828977531E0
1.461510783E1,1.607160578E-1,-1.566406508E0,-2.332725050E0,2.814438693E0
1.462505283E1,2.575475570E-1,-1.609587319E0,-2.439955384E0,2.934362683E0
1.463499883E1,2.865528895E-1,-1.730838106E0,-2.665252696E0,3.190843938E0
1.464494483E1,3.011762642E-1,-1.745620160E0,-2.770137126E0,3.288093153E0
1.465489083E1,3.032333147E-1,-1.666546800E0,-2.735591776E0,3.217575337E0
1.466483683E1,3.510894126E-1,-1.534470186E0,-2.701463333E0,3.126622245E0
1.467478283E1,4.808488490E-1,-1.468495174E0,-2.586298912E0,3.012745551E0
1.468472883E1,7.129243266E-1,-1.367619010E0,-2.504033266E0,2.940888547E0
1.469467483E1,7.861736396E-1,-1.316453242E0,-2.494562531E0,2.928132570E0
1.470462083E1,9.614272642E-1,-1.239208599E0,-2.485153776E0,2.938702031E0
1.471456683E1,1.196934692E0,-1.120394931E0,-2.425154327E0,2.927338547E0
1.472451283E1,1.334336220E0,-1.136942552E0,-2.483359265E0,3.039763931E0
1.473445883E1,1.385078650E0,-1.143619195E0,-2.644526070E0,3.196846237E0
1.474440383E1,1.393691452E0,-1.069621804E0,-2.794508906E0,3.300870596E0
1.475434983E1,1.322741922E0,-1.110103247E0,-2.884477674E0,3.361872524E0
1.476429583E1,1.387074597E0,-1.096885616E0,-2.988648745E0,3.472629452E0
1.477424183E1,1.560194865E0,-1.104346956E0,-3.140682784E0,3.676639575E0
1.478418783E1,1.681467287E0,-1.198113783E0,-3.290583758E0,3.884681498E0
1.479413383E1,1.641840560E0,-1.160165353E0,-3.399767062E0,3.949688614E0
1.480407983E1,1.486254922E0,-9.720797217E-1,-3.408011636E0,3.842972286E0
1.481402583E1,1.198217425E0,-9.604861549E-1,-3.394019834E0,3.725269022E0
1.482397183E1,9.265865567E-1,-1.017922477E0,-3.366403434E0,3.636949395E0
1.483391783E1,8.427594844E-1,-9.193226337E-1,-3.308721821E0,3.535963482E0
1.484386383E1,9.383379252E-1,-7.930031875E-1,-3.070839547E0,3.307474511E0
1.485380883E1,1.279034862E0,-6.876208663E-1,-2.675675358E0,3.044337572E0
1.486375483E1,1.746302383E0,-5.471917963E-1,-2.371844677E0,2.995770026E0
1.487370083E1,2.067455879E0,-4.146289855E-1,-2.184083565E0,3.035870885E0
1.488364683E1,2.215818013E0,-4.331754765E-1,-1.953388689E0,2.985501269E0
1.489359283E1,2.053266149E0,-5.492573252E-1,-1.842963436E0,2.813200973E0
1.490353883E1,1.679258063E0,-5.868217389E-1,-1.753051971E0,2.497490462E0
1.491348483E1,1.433983300E0,-6.151561765E-1,-1.653562181E0,2.273541975E0
1.492343083E1,1.370163572E0,-6.849308547E-1,-1.512810345E0,2.152922114E0
1.493337683E1,1.277247807E0,-5.190878852E-1,-1.039592843E0,1.726721597E0
1.494332283E1,1.425393594E0,-2.447574306E-1,-7.096356332E-1,1.610973565E0
1.495326883E1,1.909601229E0,-2.890041885E-1,-7.459392411E-1,2.070392626E0
1.496321383E1,2.054373319E0,-3.495255017E-1,-6.361349630E-1,2.178826634E0
1.497315983E1,1.988622841E0,-1.072736031E-1,-4.085508049E-1,2.032988487E0
1.498310583E1,2.064369865E0,1.301005483E-5,-2.535294235E-1,2.079879830E0
1.499305183E1,2.335906520E0,-5.543467417E-2,-1.755024236E-1,2.343146042E0
1.500299783E1,2.626046238E0,-8.712877572E-2,-1.257964128E-1,2.630500903E0
1.501294383E1,2.605815749E0,2.476763606E-2,1.223237514E-3,2.605933738E0
1.502288983E1,2.597056035E0,-2.473949634E-2,-2.918988526E-2,2.597337895E0
1.503283583E1,2.563881857E0,-6.590937629E-2,-5.942525268E-3,2.564735763E0
1.504278183E1,2.453979346E0,-6.632423624E-3,5.620986879E-2,2.454631982E0
1.505272783E1,2.441400377E0,-1.984599810E-2,6.007663250E-2,2.442220069E0
1.506267383E1,2.617761025E0,-1.562549246E-1,1.912127227E-1,2.629382188E0
1.507261983E1,2.687199635E0,-2.432426180E-1,3.771448249E-1,2.724416831E0
1.508256483E1,2.631668335E0,-1.067745980E-1,4.796611333E-1,2.677154057E0
1.509251146E1,2.422908996E0,-6.261335565E-2,5.604480189E-1,2.487671686E0
1.510245746E1,2.203166246E0,-1.744496690E-2,6.884336293E-1,2.308286528E0
1.511240346E1,2.108293710E0,2.145021826E-2,6.924424803E-1,2.219197844E0
1.512234946E1,2.056420429E0,2.856072485E-3,6.671287143E-1,2.161928273E0
1.513229546E1,1.953185498E0,-4.154771972E-2,8.730068386E-1,2.139813249E0
1.514224146E1,2.084742295E0,1.558258852E-1,1.018294360E0,2.325372131E0
1.515218746E1,2.351188364E0,5.487729565E-1,1.327871100E0,2.755445543E0
1.516213346E1,2.433800897E0,8.535981756E-1,1.754989738E0,3.119616263E0
1.517207946E1,2.523001633E0,1.253185637E0,2.133015153E0,3.533520218E0
1.518202546E1,2.735164930E0,1.391339848E0,2.287494498E0,3.827477608E0
1.519197146E1,2.887304803E0,1.122058610E0,2.482361730E0,3.969592462E0
1.520191646E1,3.061821386E0,9.080217201E-1,2.528846510E0,4.073612441E0
1.521186246E1,3.096331653E0,5.493576050E-1,2.629851898E0,4.099412700E0
1.522180846E1,2.916154965E0,3.264553124E-1,2.860141563E0,4.097675269E0
1.523175446E1,2.775334132E0,2.545110248E-1,2.942337627E0,4.052728231E0
1.524170046E1,2.557177147E0,3.513856472E-1,3.042855942E0,3.990187855E0
1.525164646E1,2.349721298E0,4.171294011E-1,3.335113814E0,4.100996375E0
1.526159246E1,2.340173233E0,3.274125016E-1,3.425206543E0,4.161207706E0
1.527153846E1,2.178018249E0,2.027598041E-1,3.434580799E0,4.072004457E0
1.528148446E1,1.884831693E0,1.546031593E-1,3.525816075E0,4.000983834E0
1.529143046E1,1.599233069E0,2.099865241E-1,3.480244630E0,3.835849767E0
1.530137646E1,1.411187783E0,4.212918878E-2,3.465023743E0,3.741605988E0
1.531132146E1,1.290176147E0,-2.742260818E-1,3.479732999E0,3.721329893E0
1.532126746E1,1.025576190E0,-4.276823097E-1,3.595143002E0,3.762947234E0
1.533121346E1,8.408894717E-1,-4.487553826E-1,3.609127788E0,3.732864836E0
1.534115946E1,5.483851399E-1,-5.670375386E-1,3.552243150E0,3.638775788E0
1.535110546E1,3.851166263E-1,-7.266605325E-1,3.503466847E0,3.598698417E0
1.536105146E1,2.452040116E-1,-8.292829679E-1,3.454737321E0,3.561326327E0
1.537099746E1,1.061573696E-1,-8.019976670E-1,3.478191088E0,3.571033868E0
1.538094346E1,3.088703960E-2,-8.504231375E-1,3.503671499E0,3.605535674E0
1.539088946E1,-1.758124723E-1,-9.182240881E-1,3.634481315E0,3.752798946E0
1.540083546E1,-3.734996706E-1,-7.680981418E-1,3.793624399E0,3.888581083E0
1.541078146E1,-5.966349748E-1,-6.455312924E-1,3.933979209E0,4.030989501E0
1.542072646E1,-7.934380741E-1,-7.057966438E-1,4.038192964E0,4.175487432E0
1.543067246E1,-8.759788321E-1,-7.987179637E-1,4.124806600E0,4.291773385E0
1.544061846E1,-9.822446676E-1,-8.445412771E-1,4.191232139E0,4.386853246E0
1.545056446E1,-1.113843126E0,-9.135432458E-1,4.241605902E0,4.479556719E0
1.546051046E1,-1.253944021E0,-1.063769764E0,4.241733372E0,4.549316841E0
1.547045646E1,-1.427534698E0,-1.180474049E0,4.100922478E0,4.499882162E0
1.548040246E1,-1.587418185E0,-1.295331052E0,3.869566866E0,4.378507367E0
1.549034846E1,-1.673532469E0,-1.421998115E0,3.625781828E0,4.238995568E0
1.550029446E1,-1.779203350E0,-1.506419046E0,3.354276894E0,4.084854512E0
1.551024046E1,-1.834713015E0,-1.575898732E0,3.011334187E0,3.862351906E0
1.552018646E1,-1.911716752E0,-1.537024980E0,2.649844698E0,3.610925595E0
1.553013246E1,-1.952130660E0,-1.525316954E0,2.311932351E0,3.388574497E0
1.554007746E1,-2.050424402E0,-1.607501032E0,1.933107036E0,3.244256866E0
1.555002346E1,-2.194349083E0,-1.597747292E0,1.607069800E0,3.154463132E0
1.555996946E1,-2.419083747E0,-1.619832079E0,1.356078653E0,3.211661790E0
1.556991546E1,-2.607274629E0,-1.669836736E0,1.114103327E0,3.290510894E0
1.557986146E1,-2.706369147E0,-1.522440855E0,9.811434907E-1,3.256516953E0
1.558980746E1,-2.741092544E0,-1.438413735E0,8.280475974E-1,3.204416520E0
1.559975346E1,-2.730499729E0,-1.396621784E0,6.927436119E-1,3.144212920E0
1.560969946E1,-2.759774691E0,-1.378035825E0,5.408142382E-1,3.131743782E0
1.561964546E1,-2.859586954E0,-1.476461275E0,4.126169586E-1,3.244599852E0
1.562959146E1,-2.977133531E0,-1.513696490E0,3.084318548E-1,3.354061916E0
1.563953746E1,-3.065055481E0,-1.550571517E0,2.156359577E-1,3.441705391E0
1.564948346E1,-3.079988978E0,-1.538295434E0,6.301310420E-2,3.443349473E0
1.565942846E1,-2.982519401E0,-1.446842496E0,-1.222997779E-1,3.317187426E0
1.566937446E1,-2.978177259E0,-1.550090876E0,-2.951534128E-1,3.370376395E0
1.567932046E1,-2.987897962E0,-1.615716078E0,-3.557405072E-1,3.415351224E0
1.568926646E1,-2.946427170E0,-1.628829628E0,-4.889622992E-1,3.401999876E0
1.569921246E1,-2.921403718E0,-1.674215716E0,-7.144309348E-1,3.442093768E0
1.570915846E1,-2.873918188E0,-1.678246494E0,-9.055477631E-1,3.449048245E0
1.571910446E1,-2.778046363E0,-1.631852931E0,-1.037327047E0,3.384750062E0
1.572905046E1,-2.698014645E0,-1.641676984E0,-1.107253314E0,3.346699306E0
1.573899646E1,-2.627724681E0,-1.694299879E0,-1.195355651E0,3.347307009E0
1.574894246E1,-2.544907350E0,-1.796201791E0,-1.226102650E0,3.347569566E0
1.575888746E1,-2.440223478E0,-1.865244690E0,-1.265863717E0,3.322083582E0
1.576883346E1,-2.323564509E0,-1.896728584E0,-1.305622444E0,3.271266012E0
1.577877946E1,-2.217279963E0,-1.940895528E0,-1.344229855E0,3.238882490E0
1.578872546E1,-2.197359669E0,-1.938491737E0,-1.412014872E0,3.252679776E0
1.579867146E1,-2.193054071E0,-2.011919025E0,-1.465447898E0,3.317354649E0
1.580861746E1,-2.149343503E0,-2.041807068E0,-1.604145023E0,3.370746928E0
1.581856346E1,-2.180546000E0,-2.112312502E0,-1.616821201E0,3.439586568E0
1.582850946E1,-2.256554833E0,-2.239228072E0,-1.709270943E0,3.609402891E0
1.583845546E1,-2.285552053E0,-2.289046641E0,-1.891880073E0,3.747358126E0
1.584840146E1,-2.369228925E0,-2.395949239E0,-2.082786402E0,3.961289897E0
1.585834746E1,-2.415821732E0,-2.364502620E0,-2.198773525E0,4.032576385E0
1.586829346E1,-2.404600048E0,-2.368463524E0,-2.354600653E0,4.115320776E0
1.587823846E1,-2.275757090E0,-2.387278402E0,-2.430018625E0,4.096725402E0
1.588818446E1,-2.056197065E0,-2.204158811E0,-2.397672998E0,3.851635788E0
1.589813046E1,-1.865184756E0,-2.037355290E0,-2.348297939E0,3.625497754E0
1.590807646E1,-1.688986952E0,-1.935464926E0,-2.211651433E0,3.389705513E0
1.591802246E1,-1.422398504E0,-1.884644144E0,-2.050163031E0,3.127022466E0
1.592796846E1,-1.127697446E0,-1.816321475E0,-1.942839727E0,2.888832192E0
1.593791446E1,-8.771558766E-1,-1.762850735E0,-1.860154250E0,2.708730141E0
1.594786046E1,-5.919031886E-1,-1.737876984E0,-1.698087559E0,2.500813299E0
1.595780646E1,-2.662902773E-1,-1.732004625E0,-1.618645533E0,2.385532204E0
1.596775246E1,3.747875199E-2,-1.742318529E0,-1.590163745E0,2.359173425E0
1.597769846E1,3.270865558E-1,-1.716551019E0,-1.590109366E0,2.362621598E0
1.598764346E1,6.154321651E-1,-1.646641709E0,-1.596281687E0,2.374510664E0
1.599758946E1,8.765253275E-1,-1.616880551E0,-1.657987939E0,2.476191303E0
1.600753546E1,1.000618081E0,-1.519873489E0,-1.798092488E0,2.558200258E0
1.601748146E1,1.147782339E0,-1.364426723E0,-1.871070417E0,2.584563616E0
1.602742746E1,1.069340114E0,-1.346180194E0,-1.933894072E0,2.587592641E0
1.603737346E1,1.073494415E0,-1.407840252E0,-2.128728560E0,2.768734316E0
1.604731946E1,1.136248049E0,-1.368463055E0,-2.302048802E0,2.909154422E0
1.605726546E1,1.284574222E0,-1.328445004E0,-2.477269975E0,3.090592757E0
1.606721146E1,1.328315780E0,-1.300962798E0,-2.562463907E0,3.165935610E0
1.607715746E1,1.336402187E0,-1.130299822E0,-2.690358886E0,3.209607363E0
1.608710346E1,1.265703211E0,-1.141071563E0,-2.845152225E0,3.316465003E0
