"Time (s)","Linear Acceleration x (m/s^2)","Linear Acceleration y (m/s^2)","Linear Acceleration z (m/s^2)","Absolute acceleration (m/s^2)"
-1.845415682E-4,1.847190608E-1,3.333606365E-2,1.966360152E-2,1.887301825E-1
9.758458356E-3,3.757334897E-2,6.285162512E-2,-9.829052567E-2,1.225688002E-1
1.970245840E-2,-3.205460066E-2,7.749688578E-2,7.100683272E-2,1.098873743E-1
2.964645834E-2,2.519412649E-2,2.970819524E-2,-6.311367631E-2,7.416641431E-2
3.958945838E-2,9.060116300E-2,4.397238647E-3,-2.464192092E-2,9.399537601E-2
4.953345843E-2,-1.305507839E-2,-1.465431014E-2,-5.966674268E-2,6.281165544E-2
5.947645835E-2,-1.521396268E-1,-8.310113135E-3,6.081104279E-5,1.523664259E-1
6.942045840E-2,-1.281304386E-1,-8.973530000E-3,-9.063184261E-5,1.284443138E-1
7.936345844E-2,-1.605353057E-2,-1.258794067E-2,-5.038545728E-2,5.435868283E-2
8.930745837E-2,3.970111420E-2,7.349584624E-4,-3.781102002E-2,5.483057421E-2
9.925045841E-2,-1.306444307E-2,1.510570605E-2,-3.332094312E-2,3.884774483E-2
1.091937501E-1,-1.772450035E-2,4.041873659E-2,-8.390754461E-4,4.414222726E-2
1.191377500E-1,6.091950864E-2,5.005066307E-2,-7.876784205E-3,7.923571881E-2
1.290807500E-1,9.697852925E-2,3.721406955E-2,-3.601826370E-2,1.099410634E-1
1.390247501E-1,1.670963385E-2,1.603447231E-2,-4.125795364E-2,4.731315784E-2
1.489677500E-1,-7.930766797E-2,6.134067262E-3,-2.494071364E-2,8.336289448E-2
1.589117501E-1,-7.246368477E-2,3.621769943E-3,-1.760713577E-2,7.465998967E-2
1.688547500E-1,-1.516296308E-2,-8.492971100E-3,-3.512013137E-2,3.918506904E-2
1.787987500E-1,-2.020926551E-2,-1.270121220E-2,-3.646791458E-2,4.358490562E-2
1.887417501E-1,-5.201541432E-2,7.168969614E-3,-2.329589188E-2,5.744298069E-2
1.986857500E-1,-3.266114878E-2,2.225125940E-2,-1.147223711E-2,4.115193080E-2
2.086297501E-1,4.277148714E-2,2.725345189E-2,-4.186021686E-2,6.576038707E-2
2.185727501E-1,6.763642453E-2,1.565894402E-2,-4.260807574E-2,8.145757527E-2
2.285167500E-1,9.527855180E-3,2.393790246E-2,-2.614114702E-2,3.670371597E-2
2.384597501E-1,-3.288102237E-2,3.162546985E-2,-1.760830522E-2,4.890178307E-2
2.484037500E-1,-3.240168773E-2,8.342862111E-3,-1.626169145E-2,3.720101241E-2
2.583467501E-1,-3.617146075E-2,-3.827697458E-2,-3.886293411E-2,6.545096641E-2
2.682907501E-1,-8.130189741E-2,-4.089763725E-2,-3.422199905E-2,9.723045034E-2
2.782337500E-1,-8.644080511E-2,5.488845287E-4,2.003256083E-3,8.646575679E-2
2.881777501E-1,-7.009178001E-2,6.398375113E-3,-4.883009791E-3,7.055239623E-2
2.981217500E-1,-2.138774442E-3,-6.677063461E-4,-4.410145462E-2,4.415833429E-2
3.080647500E-1,5.490328104E-2,2.748087660E-2,-3.871266067E-2,7.258263528E-2
3.180087501E-1,7.096920954E-2,5.721995702E-2,-2.538802564E-2,9.463246816E-2
3.279517500E-1,7.062755856E-2,6.493874306E-2,-5.396980047E-4,9.594573285E-2
3.378957501E-1,5.241843366E-2,3.189926115E-2,-5.367860913E-2,8.152697792E-2
3.478387501E-1,2.923141876E-2,5.938532716E-4,-1.775156200E-2,3.420448009E-2
3.577827500E-1,-3.992188314E-2,-5.138277300E-3,-4.035338938E-2,5.699609357E-2
3.677257501E-1,-9.262506707E-2,-1.103513033E-2,-6.671673059E-3,9.351838521E-2
3.776697500E-1,-1.030102794E-1,-3.454868938E-2,-2.747898996E-2,1.120706228E-1
3.876127501E-1,-7.528729607E-2,-4.175889557E-2,-4.155089915E-2,9.559529031E-2
3.975567501E-1,-3.043724254E-2,-1.117567364E-2,-1.161373973E-2,3.444125963E-2
4.075007500E-1,-1.597404499E-3,2.994350913E-2,-2.957814038E-2,4.211925722E-2
4.174437501E-1,3.895852695E-2,4.554056859E-2,-2.284331739E-2,6.413678632E-2
4.273877500E-1,7.840198908E-2,2.944596133E-2,-3.032775342E-2,8.907137115E-2
4.373307501E-1,7.565458344E-2,4.011554018E-2,-3.272394240E-2,9.167185482E-2
4.472747501E-1,3.454290155E-2,4.747840438E-2,-1.969985425E-2,6.193137483E-2
4.572177500E-1,-3.232952029E-2,2.185336094E-2,-2.538685620E-2,4.655383695E-2
4.671617501E-1,-6.231016838E-2,-1.173723018E-2,-3.451669872E-2,7.219225822E-2
4.771047500E-1,-6.372953430E-2,-4.003228588E-2,-5.442237496E-2,9.287535923E-2
4.870487500E-1,-6.724005640E-2,1.818305911E-2,2.459338903E-3,6.969861670E-2
4.969927501E-1,-4.505469695E-2,-4.052988393E-3,-4.798517525E-2,6.594641367E-2
5.069357500E-1,3.526254762E-3,-9.625521954E-3,1.667859793E-2,1.957704713E-2
5.168797501E-1,2.409454845E-3,9.786567064E-3,-1.177424580E-1,1.181730459E-1
5.268227501E-1,4.028684076E-2,5.062688333E-2,5.125493824E-2,8.254198658E-2
5.367667500E-1,7.862650389E-3,3.468169983E-2,-4.364712596E-2,5.630020585E-2
5.467097501E-1,-1.127996421E-2,-4.570846134E-3,-5.651977122E-2,5.781535061E-2
5.566537500E-1,-2.245143517E-2,-9.961069906E-3,1.997058034E-2,3.165618319E-2
5.665967501E-1,-5.739839760E-2,6.069482937E-3,-8.017117381E-2,9.878679962E-2
5.765407501E-1,-2.777167051E-2,2.616610275E-2,6.398081839E-2,7.449480343E-2
5.864847500E-1,-3.907054681E-2,-1.199726226E-2,-9.768124580E-2,1.058870517E-1
5.964277501E-1,-1.178426829E-2,-1.763808033E-3,-4.125210643E-3,1.260941556E-2
6.063717500E-1,4.402142085E-2,3.717658798E-2,-2.313567817E-2,6.209060953E-2
6.163147500E-1,4.754617726E-2,5.676462337E-2,-2.987108588E-2,7.984449393E-2
6.262587501E-1,1.227883310E-2,2.232601696E-2,-5.022173524E-3,2.597004048E-2
6.362017500E-1,-1.579355788E-2,2.404489280E-3,-5.741264105E-2,5.959387042E-2
6.461457501E-1,-9.141235454E-3,8.781695645E-3,-3.074465990E-3,1.304349283E-2
6.560887500E-1,-1.032113962E-2,1.740706050E-2,-4.468559146E-2,4.905439595E-2
6.660327500E-1,-4.078830346E-2,3.029830721E-3,-3.669712543E-3,4.106497733E-2
6.759767501E-1,-5.267939307E-2,-2.098722842E-2,-3.495348573E-2,6.661327477E-2
6.859197500E-1,-2.008750638E-2,9.418142228E-3,-1.863741517E-2,2.897520595E-2
6.958637501E-1,6.326714745E-3,2.505607281E-2,-4.168947816E-2,4.904943112E-2
7.058067501E-1,1.922365336E-2,1.148411884E-2,-9.207025766E-3,2.421163269E-2
7.157507500E-1,-1.442904616E-2,1.349126240E-3,-3.001434267E-2,3.332984069E-2
7.256937501E-1,-3.222459018E-2,8.713013702E-3,-3.540313661E-2,4.865925300E-2
7.356377500E-1,-7.173702205E-3,2.288781561E-2,-1.609270692E-2,2.888406694E-2
7.455807501E-1,-7.485715114E-4,8.292685691E-3,-4.902247131E-2,4.972455820E-2
7.555247501E-1,-1.223940094E-2,-2.855496900E-3,-2.791343808E-2,3.061236390E-2
7.654677500E-1,-1.090848329E-2,9.710069038E-3,-3.524760067E-2,3.815329346E-2
7.754117501E-1,-1.728811534E-3,2.247102791E-2,4.869561195E-3,2.305750444E-2
7.853557500E-1,1.425992458E-2,2.077242090E-2,-3.704386532E-2,4.480052318E-2
7.952987500E-1,-5.416056588E-3,7.045163959E-3,-4.482650936E-2,4.569883965E-2
8.052427501E-1,-1.812150802E-2,1.409777398E-3,-2.102658749E-2,2.779377460E-2
8.151857500E-1,-2.213955930E-2,3.427194706E-3,-3.614514828E-2,4.252502197E-2
8.251297501E-1,-7.897971226E-3,1.755317694E-2,-3.000615656E-2,3.564914307E-2
8.350727501E-1,-1.778933136E-3,8.034430621E-3,-3.120191216E-2,3.226880849E-2
8.450167500E-1,-1.294959096E-2,2.156919083E-3,-3.973416924E-2,4.184672522E-2
8.549597501E-1,-1.871425124E-2,1.166485262E-2,-2.356895685E-2,3.227673641E-2
8.649037500E-1,-1.340885321E-3,2.040008574E-2,-3.314845026E-2,3.894587560E-2
8.748477501E-1,3.557117097E-3,1.421848244E-2,-1.428825617E-2,2.046881993E-2
8.847907501E-1,-7.112050625E-3,4.202567479E-3,-4.347872615E-2,4.425655279E-2
8.947347500E-1,-9.368573371E-3,4.817530112E-3,-2.387067318E-2,2.609191065E-2
9.046777501E-1,-1.351762055E-2,1.549920083E-2,-2.342219174E-2,3.116970256E-2
9.146217500E-1,-1.897303621E-2,1.198786103E-2,-1.369242489E-2,2.629006304E-2
9.245647501E-1,-1.898880542E-2,3.174946737E-3,-3.764262021E-2,4.228027760E-2
9.345087501E-1,-1.077843756E-2,4.650354562E-3,-3.449915707E-2,3.644162939E-2
9.444517500E-1,-4.674784960E-3,1.636411822E-2,-1.504079282E-2,2.271262707E-2
9.543957501E-1,-8.739001835E-3,1.892221112E-2,-4.288347960E-2,4.768032140E-2
9.643397500E-1,-1.123013497E-2,9.376197592E-3,-3.195620298E-2,3.514580945E-2
9.742827500E-1,2.104358096E-4,1.389749771E-2,-2.970970273E-2,3.280017015E-2
9.842267501E-1,-2.439047238E-3,1.958936929E-2,-2.536814511E-2,3.214397497E-2
9.941697500E-1,9.657334462E-3,1.627691705E-2,-2.761406064E-2,3.347743244E-2
1.004113750E0,-4.075089041E-3,1.041656801E-2,-2.791285336E-2,3.007056073E-2
1.014056750E0,-1.099134017E-2,6.679868298E-3,-2.806137264E-2,3.086860595E-2
1.024000750E0,-1.558701413E-2,8.636684697E-3,-3.614573300E-2,4.029964449E-2
1.033943750E0,-1.595034549E-2,1.393587006E-2,-3.120542049E-2,3.771472211E-2
1.043887750E0,-1.762229285E-2,1.882575033E-4,-2.177561581E-2,2.801353405E-2
1.053830750E0,-2.572048553E-2,3.728148155E-4,-2.911094785E-2,3.884751796E-2
1.063774750E0,-1.999596091E-2,1.063467372E-2,-2.821164608E-2,3.617777926E-2
1.073718750E0,-9.465436153E-3,1.860271103E-2,-1.938118100E-2,2.848307421E-2
1.083661750E0,4.815145545E-3,1.814837781E-2,-2.222643614E-2,2.909576786E-2
1.093605750E0,7.710494874E-3,1.003865515E-2,-2.267608702E-2,2.596981423E-2
1.103548208E0,1.562489312E-2,2.197113665E-2,-4.018849790E-2,4.839404400E-2
1.113492208E0,-8.571195882E-4,2.611988691E-2,-2.147623837E-2,3.382620228E-2
1.123435208E0,-5.502165975E-3,1.113159112E-2,-3.045756161E-2,3.289147626E-2
1.133379208E0,-1.345454372E-2,3.806747524E-3,-3.105631649E-2,3.405893227E-2
1.143322208E0,-3.133842638E-2,5.202646921E-3,-3.150479794E-2,4.474054979E-2
1.153266208E0,-1.703220829E-2,-8.614730230E-4,-2.911094785E-2,3.373848751E-2
1.163210208E0,-1.563056675E-2,1.086623716E-2,-1.399297178E-2,2.362610815E-2
1.173153208E0,-1.991636569E-2,1.009990930E-2,-1.623771787E-2,2.761038340E-2
1.183097208E0,-7.311532041E-3,1.681547759E-2,-2.656740904E-2,3.228073745E-2
1.193040208E0,-8.752368204E-4,1.821120797E-2,-3.031021178E-2,3.537121815E-2
1.202984208E0,3.120256998E-3,2.716520004E-2,-1.878359556E-2,3.317389877E-2
1.212927208E0,-5.221490487E-3,1.793312261E-2,-1.489110410E-2,2.388735714E-2
1.222871208E0,7.787696393E-3,-3.340518870E-3,-4.198300838E-2,4.282966582E-2
1.232814208E0,1.013179947E-2,-6.187085062E-5,-3.150362849E-2,3.309283603E-2
1.242758208E0,-1.908074375E-2,1.526119174E-2,-2.476822078E-2,3.479142877E-2
1.252701208E0,-2.732176381E-2,2.228731570E-2,2.925361991E-3,3.538023406E-2
1.262645208E0,-2.246845605E-2,-1.056822103E-2,-4.617253840E-2,5.242539571E-2
1.272589208E0,-8.505268525E-3,-1.797059048E-2,-3.749234676E-2,4.243769292E-2
1.282532208E0,-2.991601808E-2,6.452758787E-3,-2.686503232E-2,4.072267421E-2
1.292476208E0,-2.877331682E-2,2.541428329E-2,-1.623771787E-2,4.168276668E-2
1.302419208E0,-1.405159925E-2,1.222988094E-2,-2.522021055E-2,3.135404997E-2
1.312363208E0,1.667131632E-2,5.498867780E-3,-4.812375426E-2,5.122563869E-2
1.322306208E0,2.774122844E-2,1.782160982E-2,-2.432324767E-2,4.097323406E-2
1.332250208E0,7.655357458E-3,3.096616887E-2,-1.534250915E-2,3.539633738E-2
1.342193208E0,-3.538022283E-3,2.061185544E-2,-2.312632263E-2,3.118000938E-2
1.352137208E0,-4.378660033E-3,5.093792779E-3,-2.881449401E-2,2.958706565E-2
1.362081208E0,-1.759014230E-2,5.578421890E-3,-2.582188904E-2,3.173801901E-2
1.372024208E0,-4.289073380E-2,2.779725208E-3,-1.968465149E-2,4.727396136E-2
1.381968208E0,-4.698522829E-2,2.389400722E-3,-2.133181214E-2,5.165623991E-2
1.391911208E0,-3.526518800E-2,-9.136502864E-3,-2.432558656E-2,4.380460399E-2
1.401855208E0,-7.949682539E-3,-5.242156740E-3,-2.806780457E-2,2.963915170E-2
1.411798208E0,1.156657828E-2,2.966064094E-2,-2.657033265E-2,4.146711867E-2
1.421742208E0,3.842561720E-3,3.405782020E-2,-2.776784241E-2,4.411069563E-2
1.431685208E0,8.238260904E-3,1.335415433E-2,-3.150947571E-2,3.520013409E-2
1.441629208E0,4.996957406E-3,1.385523787E-2,-5.156776428E-2,5.362994978E-2
1.451572208E0,6.311247032E-3,2.282815574E-2,-1.115122497E-2,2.617835656E-2
1.461516208E0,-1.548629584E-2,1.448878826E-2,-2.746612608E-2,3.470069777E-2
1.471460208E0,-7.005868843E-3,-5.740412604E-4,-3.360394835E-2,3.433128408E-2
1.481403208E0,-3.806290710E-3,1.130303331E-3,-3.105748594E-2,3.131026776E-2
1.491347208E0,-1.634183485E-2,1.193787647E-2,-1.548868954E-2,2.548466136E-2
1.501290208E0,-2.925983258E-2,9.715952799E-3,-1.893036067E-2,3.617866908E-2
1.511234208E0,-2.701525094E-2,-1.938096173E-3,-4.258117855E-2,5.046520352E-2
1.521177208E0,-2.682967493E-3,9.881671113E-3,-3.165448666E-2,3.326938929E-2
1.531121208E0,1.746024275E-3,1.943061281E-2,-2.970970273E-2,3.554242186E-2
1.541064208E0,-1.060949871E-3,1.663517321E-2,-1.728378475E-2,2.401215979E-2
1.551008208E0,-4.281952567E-3,9.522058214E-3,-2.341985285E-2,2.564165007E-2
1.560952208E0,-2.485276787E-3,9.156611804E-3,-3.808700860E-2,3.925099189E-2
1.570895208E0,2.097697752E-3,2.308274717E-2,-2.326840997E-2,3.284254033E-2
1.580839208E0,-1.847053198E-2,1.060940278E-2,-2.746086359E-2,3.475369057E-2
1.590782208E0,-2.704224863E-2,-3.336110618E-4,-2.222292781E-2,3.500361450E-2
1.600726208E0,-1.961018172E-2,4.643456675E-3,-3.045580745E-2,3.651954442E-2
1.610669208E0,-5.728727309E-3,8.698952976E-3,-2.072662532E-2,2.319661822E-2
1.620613208E0,-1.240075668E-3,9.654273810E-3,-2.955650568E-2,3.111799830E-2
1.630556208E0,9.165574489E-3,1.219967185E-2,-2.341926813E-2,2.795177756E-2
1.640500208E0,1.439005254E-2,2.159213201E-2,-3.299876153E-2,4.197870936E-2
1.650443208E0,1.262571003E-2,2.498948765E-2,-1.683179498E-2,3.266791038E-2
1.660387208E0,5.385303888E-3,1.023208378E-2,-3.030436456E-2,3.243534412E-2
1.670331208E0,-6.871574745E-3,3.648050437E-3,-3.180183649E-2,3.273963371E-2
1.680274208E0,-1.676722893E-2,4.018343640E-3,-3.015584528E-2,3.473704156E-2
1.690218208E0,-3.492149049E-2,8.842141237E-3,-3.045405328E-2,4.717142484E-2
1.700161208E0,-3.164614524E-2,-6.495251600E-4,-2.596339166E-2,4.093895575E-2
1.710105208E0,-2.833836621E-2,-3.246004111E-3,-3.673981011E-2,4.651250572E-2
1.720048208E0,-7.963496586E-3,1.018607807E-2,-1.308723807E-2,1.839699064E-2
1.729992208E0,-2.153456435E-3,1.496967606E-2,-2.311521292E-2,2.762320844E-2
1.739935208E0,1.802277231E-2,1.340711731E-3,-3.808466971E-2,4.215518825E-2
1.749879208E0,2.387345061E-2,7.711326275E-3,-3.524058402E-2,4.325858248E-2
1.759822208E0,-1.258512670E-3,2.788649064E-2,-3.329463065E-2,4.344850566E-2
1.769766208E0,-1.016697412E-2,3.441583882E-2,-4.554396272E-3,3.617402175E-2
1.779710208E0,-8.152252017E-3,3.716302975E-3,-3.958097219E-2,4.058230502E-2
1.789653208E0,1.992986910E-4,-5.038929451E-3,-3.224564016E-2,3.263758323E-2
1.799597208E0,-2.278638013E-2,4.917417001E-4,-2.281642020E-2,3.224980558E-2
1.809540208E0,-4.218371406E-2,1.188703767E-2,-1.173887014E-2,4.537144993E-2
1.819484208E0,-2.000316943E-2,7.820102759E-3,-3.254443288E-2,3.899257501E-2
1.829427208E0,2.654453181E-4,-6.141997548E-4,-3.613813162E-2,3.614432541E-2
1.839371208E0,1.410290857E-2,1.099654328E-2,-2.940096974E-2,3.441268685E-2
1.849314208E0,-1.534702247E-3,2.461913962E-2,-2.176626027E-2,3.289722531E-2
1.859258208E0,2.371996120E-3,2.685808418E-2,-2.326314747E-2,3.561119321E-2
1.869202208E0,1.334083364E-2,-2.283949843E-3,-2.865135670E-2,3.168745035E-2
1.879145208E0,8.441753145E-3,-1.740734372E-3,-3.314201832E-2,3.424451387E-2
1.889089208E0,-2.053316471E-2,2.071738855E-2,-1.637629688E-2,3.345151926E-2
1.899032208E0,-2.709182206E-2,1.468174637E-2,-3.343964159E-2,4.547230068E-2
1.908976208E0,-1.794766299E-2,-1.181493420E-2,-3.194275439E-2,3.849741335E-2
1.918919208E0,-1.066264442E-2,-2.899652515E-3,-3.418691576E-2,3.592833394E-2
1.928863208E0,-1.210626715E-2,1.985828182E-2,-3.253917038E-2,3.999638322E-2
1.938806208E0,-1.097365234E-2,1.156079959E-2,-2.490387619E-2,2.956816162E-2
1.948750208E0,4.912337232E-3,1.107213224E-2,-2.744975388E-2,3.000353575E-2
1.958693208E0,1.623638397E-2,1.005418682E-2,-3.987508714E-2,4.421232194E-2
1.968637208E0,1.110909761E-2,1.643265855E-2,-2.685275316E-2,3.338434767E-2
1.978580208E0,-2.713574013E-3,2.392425743E-2,-1.877014697E-2,3.052952660E-2
1.988524208E0,-1.730433223E-2,1.306937666E-2,-2.715213060E-2,3.474890957E-2
1.998468208E0,-1.290853254E-2,2.831993834E-3,-3.463656664E-2,3.707212093E-2
2.008411208E0,-2.013491451E-2,8.684878545E-3,-2.730064988E-2,3.501667291E-2
2.018355208E0,-1.527128275E-2,1.012745060E-2,-1.248088181E-2,2.217092112E-2
2.028298208E0,-1.840244846E-2,1.104991282E-3,-2.505473435E-2,3.110644352E-2
2.038242208E0,-5.822611665E-3,1.291327884E-2,-3.074524462E-2,3.385152351E-2
2.048185208E0,1.298662028E-2,1.150002509E-2,-3.224447072E-2,3.661432473E-2
2.058129208E0,7.217848683E-3,2.017981016E-2,-2.101840138E-2,3.001824902E-2
2.068072208E0,3.431840502E-3,1.676059599E-2,-2.475944996E-2,3.009527321E-2
2.078016208E0,5.330879102E-3,1.429762999E-2,-3.029734790E-2,3.392299788E-2
2.087959208E0,1.787457280E-3,1.119478673E-2,-2.550672412E-2,2.791256399E-2
2.097903208E0,-1.312160874E-2,1.411477659E-2,-2.954715014E-2,3.527658735E-2
2.107848208E0,-2.400569818E-2,5.618164684E-3,-2.999738574E-2,3.882886131E-2
2.117791208E0,-2.356000330E-2,3.063790253E-3,-3.254267871E-2,4.029251176E-2
2.127735208E0,-1.482604469E-2,5.985570825E-3,-2.835139453E-2,3.254904348E-2
2.137678208E0,-8.470806498E-3,1.028198155E-2,-2.625516772E-2,2.944159539E-2
2.147622208E0,-1.152010205E-2,7.524736142E-3,-2.580493212E-2,2.924429734E-2
2.157565208E0,-5.243993131E-3,1.395712561E-2,-2.954715014E-2,3.309584415E-2
2.167509208E0,9.869387392E-3,1.530297192E-2,-2.790057421E-2,3.331707968E-2
2.177452208E0,1.673242886E-2,1.798904575E-2,-3.239065111E-2,4.065383403E-2
2.187396208E0,9.029105958E-3,1.481509030E-2,-2.176216722E-2,2.783170093E-2
2.197339208E0,-8.776734648E-3,6.840648456E-3,-2.385722458E-2,2.632475465E-2
2.207283208E0,-1.026872481E-2,1.084469383E-2,-2.041262984E-2,2.529287549E-2
2.217227208E0,-2.754972300E-2,9.529613913E-3,-2.729714155E-2,3.993663375E-2
2.227170208E0,-1.550931925E-2,7.225879468E-5,-2.564939618E-2,2.997391748E-2
2.237114208E0,-1.107035981E-2,-1.985458620E-3,-2.819468915E-2,3.035515457E-2
2.247057208E0,-1.019728828E-2,2.967228969E-3,-3.148842573E-2,3.323116145E-2
2.257001208E0,-8.495026762E-3,1.325405274E-2,-2.415309370E-2,2.883066646E-2
2.266944208E0,-5.990472436E-4,1.749896685E-2,-2.849406660E-2,3.344375173E-2
2.276888208E0,2.078118715E-3,1.797612706E-2,-2.669721723E-2,3.225214922E-2
2.286831208E0,3.929484235E-3,1.723450825E-2,-1.532028973E-2,2.339188745E-2
2.296775208E0,3.643427482E-3,7.491863826E-3,-2.115814984E-2,2.273917087E-2
2.306718208E0,5.490900949E-4,5.948303961E-3,-2.520091474E-2,2.589922631E-2
2.316662208E0,-1.142889462E-2,5.563452104E-3,-2.475184858E-2,2.782491042E-2
2.326606208E0,-8.459669380E-3,5.861258106E-3,-1.651955366E-2,1.946319619E-2
2.336549208E0,-6.898663798E-3,8.009817498E-3,-3.253566206E-2,3.420991149E-2
2.346493208E0,-1.658410144E-2,1.624425944E-2,-3.477982342E-2,4.181560119E-2
2.356436208E0,-1.343663662E-2,2.894079387E-3,-2.624698162E-2,2.962807694E-2
2.366380208E0,6.118800547E-3,8.324479926E-3,-3.283387005E-2,3.442091964E-2
2.376323208E0,-1.612789985E-3,1.452058249E-2,-3.552885175E-2,3.841546191E-2
2.386267208E0,-1.079514781E-3,2.247056196E-2,-2.325379193E-2,3.235475770E-2
2.396210208E0,1.030154231E-2,1.367244386E-2,-2.834262371E-2,3.311135476E-2
2.406154208E0,1.404428110E-4,1.642576524E-2,-3.148667157E-2,3.551388424E-2
2.416097208E0,1.178323589E-3,1.582906601E-2,-3.612760663E-2,3.946076201E-2
2.426041208E0,-1.147491404E-2,1.475457162E-2,-2.864375532E-2,3.420286179E-2
2.435985208E0,-8.969811536E-3,4.866820313E-3,-3.089025557E-2,3.253231237E-2
2.445928208E0,-1.800335772E-2,7.984633357E-3,-2.490329146E-2,3.174979031E-2
2.455872208E0,-9.779212363E-3,1.019970026E-2,-2.864434004E-2,3.194002342E-2
2.465815208E0,-4.966213843E-3,1.050911847E-2,-3.403313398E-2,3.596330157E-2
2.475759208E0,-1.570370262E-3,7.738872143E-3,-3.074056685E-2,3.173859882E-2
2.485702208E0,-5.003544660E-3,1.257590820E-2,-1.876605392E-2,2.313771177E-2
2.495646208E0,-2.611220330E-3,1.322264680E-2,-2.804733932E-2,3.111768152E-2
2.505589208E0,5.446407292E-3,1.434756429E-2,-2.385605514E-2,2.836595354E-2
2.515533208E0,-2.154333517E-3,8.916076538E-3,-2.370695114E-2,2.541962050E-2
2.525476208E0,-1.095063807E-2,1.243625111E-2,-2.310702682E-2,2.843433671E-2
2.535420208E0,-1.128495262E-2,3.682722598E-3,-2.340581954E-2,2.624395148E-2
2.545364208E0,-1.625095633E-2,1.146221919E-2,-1.996356368E-2,2.817835916E-2
2.555307208E0,-5.035823118E-3,6.602082057E-3,-3.044177413E-2,3.155390014E-2
2.565251208E0,-1.046748446E-2,4.746929551E-3,-2.655103683E-2,2.893197415E-2
2.575194208E0,-1.710219216E-3,1.538179970E-2,-2.161189377E-2,2.658192176E-2
2.585138208E0,-2.090078099E-3,7.965858313E-3,-2.415777147E-2,2.552295530E-2
2.595081208E0,4.620323628E-3,7.193345195E-3,-3.343730271E-2,3.451296594E-2
2.605025208E0,-1.479281606E-3,1.130288713E-2,-2.924660325E-2,3.138960550E-2
2.614968208E0,-3.882121788E-3,1.253330575E-2,-2.670189500E-2,2.975140029E-2
2.624912208E0,-5.479343561E-3,1.083591387E-2,-2.191244066E-2,2.505185204E-2
2.634855208E0,-1.213391352E-2,9.604362343E-3,-2.625282884E-2,3.047436062E-2
2.644799208E0,-4.059667010E-3,2.096327310E-3,-3.239006639E-2,3.271073042E-2
2.654743208E0,-5.532982629E-3,4.077441632E-3,-2.760061204E-2,2.844350914E-2
2.664686208E0,-1.962200406E-2,7.234252864E-3,-2.984594285E-2,3.644362445E-2
2.674630208E0,-1.090226149E-2,8.414111347E-3,-2.834905565E-2,3.151706731E-2
2.684573208E0,-3.858303521E-3,9.831645442E-3,-2.894956470E-2,3.081598699E-2
2.694517208E0,1.822659345E-3,7.352891956E-3,-3.224505544E-2,3.312296344E-2
2.704460208E0,-3.011215562E-3,1.419499765E-2,-3.254501760E-2,3.563346107E-2
2.714404208E0,-1.447551325E-4,1.084935789E-2,-2.925186574E-2,3.119937772E-2
2.724347208E0,-2.587794922E-3,6.574645825E-3,-3.434186697E-2,3.506118191E-2
2.734291208E0,-5.252873590E-3,-3.985535279E-3,-3.194860160E-2,3.262193000E-2
2.744234208E0,-2.032948975E-3,7.945685419E-3,-3.015292168E-2,3.124844770E-2
2.754178208E0,-7.777043497E-3,3.598833326E-3,-3.180008233E-2,3.293446892E-2
2.764122208E0,-1.385716106E-2,9.615490325E-3,-2.970502496E-2,3.415943610E-2
2.774065208E0,-1.060622793E-2,6.889331094E-3,-2.252055109E-2,2.582886321E-2
2.784009208E0,-8.706083838E-3,1.091282759E-2,-2.237027764E-2,2.636882674E-2
2.793952208E0,-2.393466365E-3,1.719643283E-2,-2.162066460E-2,2.772903029E-2
2.803896208E0,5.254454166E-4,1.430805904E-2,-2.925420463E-2,3.257000361E-2
2.813839208E0,2.474468574E-3,1.163425067E-2,-3.209829032E-2,3.423125801E-2
2.823783208E0,-2.585337264E-3,1.152156842E-2,-3.164980888E-2,3.378077723E-2
2.833726208E0,-4.488350144E-3,6.373245791E-3,-3.239766777E-2,3.332225121E-2
2.843670208E0,-1.134218224E-2,7.661510739E-3,-2.042257011E-2,2.458506080E-2
2.853613208E0,-5.216182312E-3,2.045817417E-3,-2.251762748E-2,2.320425552E-2
2.863557208E0,-5.879046433E-3,1.082212723E-2,-3.090019584E-2,3.326415079E-2
2.873501208E0,-9.318671040E-3,8.312470294E-3,-3.045112967E-2,3.291209642E-2
2.883444208E0,-5.331975454E-3,2.633133684E-3,-3.134926200E-2,3.190829960E-2
2.893388208E0,-1.516027702E-3,8.290840164E-3,-3.015292168E-2,3.130870576E-2
2.903331208E0,-1.015082119E-2,8.247931651E-3,-2.820813775E-2,3.109287029E-2
2.913275208E0,4.368217271E-3,1.169119706E-2,-2.072487116E-2,2.419267855E-2
2.923218208E0,-1.464864565E-3,1.145187692E-2,-3.344841242E-2,3.538484996E-2
2.933162208E0,-9.881639136E-3,1.267490887E-2,-2.326957941E-2,2.828026578E-2
2.943105208E0,-1.105892119E-2,5.714022475E-3,-1.862864435E-2,2.240482495E-2
2.953049208E0,-1.459968436E-2,9.126576302E-3,-2.925654352E-2,3.394687787E-2
2.962992208E0,-1.433745501E-2,4.694245225E-3,-2.731117487E-2,3.120094273E-2
2.972936208E0,-1.020348268E-2,5.201303889E-3,-2.686035454E-2,2.920005594E-2
2.982879208E0,-1.835431857E-2,1.155898604E-2,-3.060198784E-2,3.750963647E-2
2.992823208E0,-2.715922035E-3,8.252289654E-3,-2.536171317E-2,2.680845038E-2
3.002767208E0,3.049222464E-3,1.333319572E-2,-3.344490409E-2,3.613355055E-2
3.012710208E0,-1.759308418E-3,7.354600439E-3,-2.132011771E-2,2.262151040E-2
3.022654208E0,-1.211596987E-2,2.739009401E-3,-2.925361991E-2,3.178164842E-2
3.032597208E0,-8.184201568E-3,1.339651924E-2,-2.431506157E-2,2.894253102E-2
3.042541208E0,-3.576412909E-3,9.051421308E-3,-2.985412896E-2,3.140044542E-2
3.052484208E0,-1.221196471E-2,3.751801969E-3,-3.090195000E-2,3.343857972E-2
3.062428208E0,-1.303045613E-2,1.446410204E-2,-1.428591728E-2,2.414726625E-2
3.072371208E0,-1.335138604E-2,2.257830148E-2,-2.057284355E-2,3.333588305E-2
3.082315208E0,-1.137275222E-2,4.476363352E-3,-3.913424492E-2,4.099837128E-2
3.092258208E0,1.206390224E-3,8.324045953E-3,-2.910568535E-2,3.029663411E-2
3.102202208E0,6.518466873E-3,5.811428865E-3,-2.641011894E-2,2.781649687E-2
3.112145458E0,2.201842144E-4,2.073980897E-2,-2.341692924E-2,3.128163570E-2
3.122088458E0,1.516402289E-2,2.075565127E-2,-2.251879692E-2,3.417368673E-2
3.132032458E0,1.821666232E-2,2.096925280E-2,-2.446475029E-2,3.701459652E-2
3.141975458E0,-8.770439755E-3,5.610202421E-3,-3.000381768E-2,3.175884223E-2
3.151919458E0,-3.492821479E-2,-1.024381933E-3,-3.419510186E-2,4.889104763E-2
3.161862458E0,-4.449339165E-2,-3.641225640E-3,-2.611132622E-2,5.171771246E-2
3.171806458E0,-4.720545818E-2,-9.468843983E-3,-3.030144095E-2,5.688753477E-2
3.181749458E0,-4.008156694E-2,-9.054363188E-3,-3.523941457E-2,5.413252110E-2
3.191693458E0,-1.858819806E-2,5.583624998E-3,-2.640719533E-2,3.277251807E-2
3.201636458E0,1.179675758E-4,2.167791249E-2,-2.670715749E-2,3.439793697E-2
3.211580458E0,2.056738920E-2,3.293800988E-2,-2.805494070E-2,4.790625941E-2
3.221523458E0,5.009266709E-2,3.252277991E-2,-2.730708182E-2,6.567102273E-2
3.231467458E0,5.291351010E-2,3.124437757E-2,-2.760645926E-2,6.736592071E-2
3.241411458E0,2.340026468E-2,3.048439028E-2,-2.416011035E-2,4.539362698E-2
3.251354458E0,-9.476417955E-3,1.595959140E-2,-2.909749925E-2,3.451341069E-2
3.261298458E0,-4.138767047E-2,-7.971043149E-3,-2.670131028E-2,4.989425584E-2
3.271241458E0,-4.685993342E-2,-1.896183514E-2,-3.553177536E-2,6.178925159E-2
3.281185458E0,-4.645835761E-2,-2.265632983E-2,-3.328527510E-2,6.147843371E-2
3.291128458E0,-4.726120773E-2,1.493383446E-3,-2.190951705E-2,5.211409490E-2
3.301072458E0,-1.790438446E-2,3.830063296E-3,-2.071317673E-2,2.764547084E-2
3.311015458E0,1.890022924E-2,1.649326860E-2,-3.209010422E-2,4.073108596E-2
3.320959458E0,3.644221424E-2,3.229550594E-2,-1.966594040E-2,5.251460649E-2
3.330902458E0,4.625123827E-2,3.383400888E-2,-2.819702804E-2,6.386696790E-2
3.340846458E0,3.222417905E-2,2.626878991E-2,-3.074115157E-2,5.170556487E-2
3.350789458E0,1.768771771E-2,1.446446293E-2,-3.987391770E-2,4.595655947E-2
3.360733458E0,-1.703289351E-2,4.988862667E-4,-2.804792404E-2,3.281850685E-2
3.370677458E0,-4.685900152E-2,-4.810682475E-3,-2.804850876E-2,5.482360379E-2
3.380620458E0,-5.064475388E-2,-1.387968197E-2,-2.221064866E-2,5.701622209E-2
3.390564458E0,-4.529972269E-2,-1.908284053E-2,-2.730064988E-2,5.622761921E-2
3.400507458E0,-3.624173697E-2,-8.661270412E-3,-3.224037766E-2,4.927395921E-2
3.410451458E0,-9.287022986E-3,1.218002429E-2,-2.116282761E-2,2.612407051E-2
3.420394458E0,2.766515069E-2,1.778196752E-2,-1.891749680E-2,3.793982890E-2
3.430338458E0,3.013544398E-2,2.281470715E-2,-1.981562912E-2,4.267686732E-2
3.440281458E0,3.870003434E-2,2.531011149E-2,-3.343671799E-2,5.706407374E-2
3.450225458E0,2.520217555E-2,2.663804158E-2,-2.191185594E-2,4.271843094E-2
3.460168458E0,2.769570239E-4,1.529971027E-2,-2.625224411E-2,3.038647990E-2
3.470112458E0,-2.676284309E-2,4.894923493E-3,-3.178897262E-2,4.184195055E-2
3.480055458E0,-4.866210010E-2,-1.174419202E-2,-3.388519943E-2,6.044942326E-2
3.489999458E0,-4.933951830E-2,-6.913464563E-4,-3.029208541E-2,5.790057396E-2
3.499943458E0,-3.381278532E-2,-8.689341615E-3,-1.891574264E-2,3.970660434E-2
3.509886458E0,-2.278331948E-2,3.703548736E-3,-2.894430220E-2,3.702119055E-2
3.519830458E0,-2.115321625E-4,1.932453610E-2,-2.355375409E-2,3.046738868E-2
3.529773458E0,2.221107806E-2,1.833362034E-2,-2.085994184E-2,3.556108543E-2
3.539717458E0,2.270934306E-2,2.506531872E-2,-2.879227459E-2,4.441823433E-2
3.549660458E0,3.208171712E-2,2.694890788E-2,-4.016803265E-2,5.804266583E-2
3.559604458E0,2.234004571E-2,1.627606281E-2,-2.430161297E-2,3.680429671E-2
3.569547458E0,-4.847442275E-3,7.607245836E-3,-2.085877240E-2,2.272567429E-2
3.579491458E0,-2.784690773E-2,4.014031319E-3,-2.534884930E-2,3.786986768E-2
3.589434458E0,-3.076998565E-2,-3.615863342E-3,-4.465869427E-2,5.435315500E-2
3.599378458E0,-2.447793393E-2,-7.164561362E-3,-4.093635678E-3,2.583133838E-2
3.609321458E0,-2.163583081E-2,5.883367890E-3,-2.475126386E-2,3.339683002E-2
3.619265458E0,-8.099435214E-3,1.652121646E-2,-3.927048504E-2,4.336729689E-2
3.629209458E0,2.373279766E-2,2.021863476E-2,-1.008059978E-2,3.276671128E-2
3.639152458E0,2.899060484E-2,2.703149980E-2,-1.487122357E-2,4.233568756E-2
3.649096458E0,1.626974965E-2,1.837293830E-2,-4.076737225E-2,4.758411768E-2
3.659039458E0,3.282937501E-3,6.869756626E-3,-3.013888836E-2,3.108574957E-2
3.668983458E0,-7.455665907E-3,4.257499329E-3,-1.142955244E-2,1.429503143E-2
3.678926458E0,-4.511698807E-2,-1.243919299E-2,-6.396853924E-2,7.926064690E-2
3.688870458E0,-2.876468305E-2,4.505147184E-3,-4.241570234E-3,2.942268274E-2
3.698813458E0,-1.633920360E-2,-9.475545441E-3,-5.708285809E-2,6.012660163E-2
3.708757458E0,-1.312738286E-2,-2.973592384E-3,-1.741476238E-2,2.201009726E-2
3.718700458E0,-3.174526468E-3,7.324976069E-3,-3.028799236E-2,3.132244202E-2
3.728644458E0,-1.478640240E-2,1.335496746E-2,-3.193573773E-2,3.764152223E-2
3.738587458E0,1.047958089E-3,2.630988944E-2,-1.322523236E-2,2.946549286E-2
3.748531458E0,2.065477766E-2,2.279068788E-2,-7.145297527E-2,7.779179243E-2
3.758475458E0,2.764218209E-2,2.218517672E-2,5.188234448E-3,3.582164253E-2
3.768418458E0,-5.202569263E-3,1.077638190E-2,-4.929962933E-2,5.073115991E-2
3.778362458E0,-1.605245249E-2,1.373964116E-2,-1.999163032E-3,2.122393986E-2
3.788305458E0,-4.243379217E-3,1.106817624E-2,-2.490153730E-2,2.757892950E-2
3.798249458E0,1.055847262E-2,2.070739347E-2,-5.049889326E-2,5.559150752E-2
3.808192458E0,-1.113683534E-2,-1.151702313E-2,-2.340698898E-2,2.836473261E-2
3.818136458E0,-1.986391434E-2,-3.541311342E-4,1.071970046E-2,2.257459810E-2
3.828079458E0,-3.139743757E-2,2.422744927E-2,-2.595403612E-2,4.739599535E-2
3.838023458E0,-2.224391383E-2,-4.582321295E-3,-5.469485521E-2,5.922260175E-2
3.847966458E0,-2.452859458E-2,-2.544603185E-3,-7.992559075E-3,2.592311628E-2
3.857910458E0,-3.615252125E-2,-1.798339040E-2,-7.924555957E-2,8.893967526E-2
3.867854458E0,-1.269747547E-2,2.051365420E-2,3.032482982E-2,3.875088638E-2
3.877797458E0,-1.186747234E-2,1.070585443E-2,-8.313980520E-2,8.466214873E-2
3.887741458E0,3.526663153E-2,4.110546922E-2,2.687731147E-2,6.046308602E-2
3.897684458E0,7.510616030E-2,3.264759969E-2,-5.096433163E-2,9.645809545E-2
3.907628458E0,3.287416102E-2,3.327033272E-2,-4.198593199E-2,6.285255753E-2
3.917571458E0,-3.877813121E-2,-7.599786068E-3,-1.175290346E-2,4.122658061E-2
3.927515458E0,-3.453889987E-2,1.720580664E-2,-8.315910101E-3,3.947315223E-2
3.937458458E0,-1.336035786E-2,3.432076218E-2,-2.119615674E-2,4.249342230E-2
3.947402458E0,2.449672725E-3,-2.045345985E-2,1.322347820E-2,2.447867015E-2
3.957345458E0,2.210335225E-2,-9.606012354E-2,-8.079156339E-2,1.274495282E-1
3.967289458E0,3.339519545E-1,-4.461466473E-1,6.003804088E-2,5.605134300E-1
3.977232458E0,2.808090234E-1,-3.964167726E-1,5.174049103E-1,7.097237536E-1
3.987176458E0,3.741748413E-2,-3.169997160E-2,8.321640372E-2,9.659154294E-2
3.997119458E0,-2.331272821E-1,3.810728382E-1,4.796576250E-1,6.554664559E-1
4.007063458E0,9.752278626E-2,6.704566571E-1,1.182194738E0,1.362573749E0
4.017007458E0,7.031465395E-1,4.416624177E-1,1.078129503E0,1.360824739E0
4.026950458E0,3.197625528E-1,-8.066416718E-5,8.067508686E-1,8.678104981E-1
4.036894458E0,-5.646176318E-1,-7.949544033E-1,1.073992013E0,1.450587611E0
4.046837458E0,-1.264878022E0,-1.463934346E0,2.556613183E-1,1.951507851E0
4.056781458E0,-4.571886025E-1,-1.430895385E0,-8.193685752E-1,1.711095521E0
4.066724458E0,-2.263740221E-1,-9.683912981E-1,3.855537057E-1,1.066620159E0
4.076668458E0,-1.280917958E0,-8.398427470E-1,1.742366769E0,2.319898405E0
4.086611458E0,-1.130436647E0,-7.196228968E-1,1.795373533E0,2.240337084E0
4.096555458E0,-9.226339120E-1,-8.116768554E-1,1.783187935E0,2.165601964E0
4.106502208E0,-1.112032390E0,-1.211808108E0,2.056200281E0,2.633069411E0
4.116446208E0,-1.198469878E0,-1.721823161E0,2.096698097E0,2.965998644E0
4.126389208E0,-1.277506254E0,-1.496721146E0,2.130669250E0,2.900335821E0
4.136333208E0,-1.087160454E0,-6.293612561E-1,2.511780242E0,2.808389828E0
4.146277208E0,-7.362110822E-1,1.505102545E-2,2.895145335E0,2.987323183E0
4.156220208E0,-8.298497824E-1,1.307504663E-1,3.080065868E0,3.192577658E0
4.166164208E0,-9.089664839E-1,1.075507611E-2,3.134833229E0,3.263972291E0
4.176107208E0,-8.764536260E-1,-1.326091500E-1,2.975784286E0,3.105003746E0
4.186051208E0,-6.958571081E-1,-1.588720652E-1,2.789162212E0,2.879042079E0
4.195994208E0,-4.425804305E-1,-3.486476885E-1,2.323954226E0,2.391274952E0
4.205938208E0,-4.946259123E-1,-2.534634961E-1,1.979509370E0,2.056053473E0
4.215881208E0,-5.397007822E-1,6.457518786E-2,2.181992016E0,2.248674287E0
4.225825208E0,-4.906816730E-1,1.103088927E-1,2.250044251E0,2.305566240E0
4.235768208E0,-4.790515611E-1,1.441341582E-1,1.890717646E0,1.955780732E0
4.245712208E0,-4.255344813E-1,2.090584248E-1,1.735773448E0,1.799359465E0
4.255655208E0,-2.098939919E-1,3.428412572E-1,1.615734789E0,1.664990848E0
4.265599208E0,-3.637011990E-2,3.527727529E-1,1.483050941E0,1.524864418E0
4.275543208E0,-5.377654999E-2,8.106579781E-2,1.246506509E0,1.250296788E0
4.285486208E0,-6.334478751E-2,-7.347435772E-2,1.190327631E0,1.194274220E0
4.295430208E0,6.684010684E-2,1.407766870E-1,1.139010712E0,1.149622145E0
4.305373208E0,2.139654082E-1,2.443633282E-1,1.041096162E0,1.090585096E0
4.315317208E0,3.066459325E-1,1.518752870E-1,8.358542150E-1,9.031888504E-1
4.325260208E0,3.869377051E-1,5.393471718E-2,7.178199810E-1,8.172485952E-1
4.335204208E0,4.317005163E-1,-6.756808519E-2,6.377271599E-1,7.730632008E-1
4.345147208E0,4.125948488E-1,-1.740201545E-1,5.683639795E-1,7.235710999E-1
4.355091208E0,2.881094183E-1,-2.637427551E-1,5.951483202E-1,7.118769562E-1
4.365034208E0,2.614264902E-1,-3.771448249E-1,5.691042370E-1,7.310688485E-1
4.374978208E0,3.665557366E-1,-5.759349543E-1,3.498734111E-1,7.671216223E-1
4.384921208E0,4.107584211E-1,-6.973792845E-1,2.217439592E-1,8.391845628E-1
4.394865208E0,5.014180380E-1,-6.242540056E-1,2.896897745E-1,8.514888594E-1
4.404809208E0,6.660583084E-1,-5.014683241E-1,4.673311096E-1,9.557732557E-1
4.414752208E0,5.957663709E-1,-5.148438299E-1,5.192561388E-1,9.432012911E-1
4.424696208E0,5.871554688E-1,-6.442076290E-1,3.460616112E-1,9.378238920E-1
4.434639208E0,8.140479013E-1,-8.858075631E-1,1.430790281E-1,1.211528222E0
4.444583208E0,1.034377054E0,-1.186252121E0,1.903853416E-2,1.574005226E0
4.454526208E0,8.528026620E-1,-1.182319869E0,-1.042792439E-2,1.457827628E0
4.464470208E0,6.878087812E-1,-9.675393587E-1,1.973663324E-1,1.203398022E0
4.474413208E0,8.793504828E-1,-7.876690650E-1,2.523383456E-1,1.207209372E0
4.484357208E0,9.949177766E-1,-6.743593812E-1,2.022961199E-1,1.218829634E0
4.494300208E0,9.015380350E-1,-7.961545444E-1,1.264027691E-1,1.209384367E0
4.504244208E0,8.584349924E-1,-1.036678006E0,-1.422042847E-3,1.345962090E0
4.514187208E0,6.600734639E-1,-1.280292306E0,-7.827550650E-2,1.442557597E0
4.524131208E0,6.870276663E-1,-1.275692301E0,-2.252265608E-1,1.466330408E0
4.534074208E0,9.086573124E-1,-1.193424901E0,-4.131057858E-1,1.555820522E0
4.544018208E0,1.100325679E0,-1.229653080E0,-3.224464613E-1,1.681289689E0
4.553962208E0,1.244081376E0,-1.171154611E0,-2.740473032E-2,1.708827847E0
4.563905208E0,1.246644503E0,-1.158899431E0,1.885341132E-1,1.712517305E0
4.573849208E0,1.094863795E0,-1.414881177E0,1.120887852E-1,1.792534343E0
4.583792208E0,9.532316606E-1,-1.554624369E0,-1.622377226E-1,1.830799990E0
4.593736208E0,9.051277868E-1,-1.519287305E0,-2.784604892E-1,1.790259889E0
4.603679208E0,9.601265511E-1,-1.514642862E0,-2.579382241E-1,1.811772094E0
4.613623208E0,1.125314486E0,-1.548050929E0,-1.749533701E-1,1.921822846E0
4.623566208E0,1.272270511E0,-1.765167986E0,-9.448398829E-2,2.177938818E0
4.633510208E0,1.241004279E0,-2.018028488E0,-2.071305978E-1,2.378115574E0
4.643453208E0,1.118108085E0,-2.063684133E0,-3.944537526E-1,2.380031860E0
4.653397208E0,9.673756367E-1,-2.031791664E0,-4.742138672E-1,2.299754722E0
4.663340208E0,9.512930162E-1,-2.037647651E0,-4.472245815E-1,2.292809669E0
4.673284208E0,8.532710239E-1,-2.168434078E0,-4.312613904E-1,2.369844758E0
4.683227208E0,7.372207502E-1,-2.305694541E0,-5.171113801E-1,2.475303200E0
4.693171208E0,7.078430231E-1,-2.303349808E0,-6.241940716E-1,2.489192705E0
4.703115208E0,7.208831911E-1,-2.216835575E0,-7.013264474E-1,2.434315371E0
4.713058208E0,6.957151669E-1,-2.223368669E0,-7.733925033E-1,2.454694236E0
4.723002208E0,6.716089971E-1,-2.454980389E0,-8.752267340E-1,2.691469708E0
4.732945208E0,6.130896243E-1,-2.687448726E0,-1.011969427E0,2.936382411E0
4.742889208E0,4.886331010E-1,-2.716795317E0,-1.037455101E0,2.948906948E0
4.752832208E0,4.106957097E-1,-2.593483971E0,-1.036990978E0,2.823150786E0
4.762776208E0,3.403263697E-1,-2.420530933E0,-1.025918545E0,2.650905675E0
4.772719208E0,2.351415382E-1,-2.367381497E0,-1.029338142E0,2.592165833E0
4.782663208E0,8.261647940E-2,-2.466022271E0,-9.238059863E-1,2.634674330E0
4.792606208E0,1.019907899E-1,-2.494510490E0,-9.097299841E-1,2.657177704E0
4.802550208E0,1.387219754E-1,-2.504106356E0,-9.984500796E-1,2.699387892E0
4.812493208E0,8.151223272E-2,-2.606164243E0,-1.108018130E0,2.833097330E0
4.822437208E0,3.526309580E-2,-2.577578959E0,-1.160258324E0,2.826898682E0
4.832381208E0,-1.731726006E-2,-2.473092139E0,-1.081129855E0,2.699134376E0
4.842324208E0,-8.746981457E-2,-2.360097036E0,-1.049861869E0,2.584553913E0
4.852268208E0,-1.829041216E-1,-2.326418828E0,-1.064876788E0,2.565081101E0
4.862211208E0,-2.431550011E-1,-2.354694793E0,-1.017701014E0,2.576708613E0
4.872155208E0,-2.588074127E-1,-2.386520019E0,-9.946616685E-1,2.598424698E0
4.882098208E0,-2.846614614E-1,-2.502176775E0,-9.955725186E-1,2.707967023E0
4.892042208E0,-4.251153821E-1,-2.593534842E0,-1.036818924E0,2.825268048E0
4.901985208E0,-5.905684885E-1,-2.571646374E0,-1.074610648E0,2.849021632E0
4.911929208E0,-6.976139040E-1,-2.463128484E0,-1.029805920E0,2.759378068E0
4.921872208E0,-7.424500613E-1,-2.424457923E0,-9.003228374E-1,2.690689415E0
4.931816208E0,-7.392836478E-1,-2.531044478E0,-8.749924068E-1,2.778189730E0
4.941759208E0,-8.069891426E-1,-2.547580404E0,-8.804820652E-1,2.813653507E0
4.951703208E0,-8.723431796E-1,-2.429049742E0,-8.829086597E-1,2.727781694E0
4.961646208E0,-9.381269869E-1,-2.334493833E0,-9.991991079E-1,2.707091161E0
4.971590208E0,-1.104456883E0,-2.346903963E0,-9.669141452E-1,2.768159349E0
4.981533208E0,-1.357539580E0,-2.239740288E0,-9.058563499E-1,2.771267940E0
4.991477208E0,-1.526446490E0,-2.118933889E0,-8.990282638E-1,2.761914468E0
5.001421208E0,-1.649353648E0,-2.136855020E0,-8.952709892E-1,2.843945670E0
5.011364208E0,-1.831764410E0,-2.150158605E0,-8.747186109E-1,2.956970668E0
5.021308208E0,-2.002766378E0,-1.984422786E0,-7.667956746E-1,2.921811521E0
5.031251208E0,-2.073055758E0,-1.699372777E0,-5.434805685E-1,2.735104959E0
5.041195208E0,-2.031726468E0,-1.549781120E0,-4.100248879E-1,2.588021323E0
5.051138208E0,-1.967913465E0,-1.557784789E0,-3.371387601E-1,2.532397954E0
5.061082208E0,-2.023828488E0,-1.482155147E0,-2.948448260E-1,2.525786828E0
5.071025208E0,-2.077107293E0,-1.196506968E0,-3.344034326E-1,2.420295290E0
5.080969208E0,-2.198444181E0,-8.684723228E-1,-3.252526863E-1,2.386040717E0
5.090912208E0,-2.387868679E0,-7.302599323E-1,-1.397332513E-1,2.500944177E0
5.100856208E0,-2.523931341E0,-7.341401446E-1,2.031802189E-1,2.636375043E0
5.110795958E0,-2.581293988E0,-7.439868557E-1,4.479031509E-1,2.723455953E0
5.120739958E0,-2.532011023E0,-5.463848805E-1,5.759799778E-1,2.653557837E0
5.130683958E0,-2.516312126E0,-4.054225445E-2,6.426160169E-1,2.597388253E0
5.140626958E0,-2.612404099E0,3.154151845E-1,6.054534531E-1,2.700132552E0
5.150570958E0,-2.982668797E0,2.226198721E-1,5.869034538E-1,3.048004007E0
5.160513958E0,-3.177793307E0,4.289441389E-1,7.726905450E-1,3.298395679E0
5.170457958E0,-3.267424107E0,6.321804911E-1,6.413305065E-1,3.389250254E0
5.180400958E0,-3.473480571E0,6.824039805E-1,3.049881372E-1,3.552993137E0
5.190344958E0,-3.653405828E0,7.365363336E-1,3.030337054E-1,3.739209722E0
5.200287958E0,-3.631528179E0,9.469121361E-1,1.507879972E-1,3.755978771E0
5.210231958E0,-3.607799885E0,1.248933104E0,-1.996897236E-1,3.823078589E0
5.220174958E0,-3.508888385E0,1.561605359E0,-1.282893732E-1,3.842833221E0
5.230118958E0,-3.419164323E0,1.699403767E0,1.488698182E-1,3.821101942E0
5.240061958E0,-3.265071772E0,1.774887813E0,3.357982859E-1,3.731444883E0
5.250005958E0,-3.026698039E0,2.009391566E0,5.765307856E-1,3.678443044E0
5.259948958E0,-2.621541250E0,2.401552625E0,8.055717775E-1,3.645391533E0
5.269892958E0,-2.259807786E0,2.734272060E0,1.062164265E0,3.702859415E0
5.279836958E0,-2.015150196E0,2.902544401E0,1.266888149E0,3.753744783E0
5.289779958E0,-1.979775419E0,2.964124353E0,1.359140840E0,3.814814243E0
5.299723958E0,-2.066591661E0,3.000157235E0,1.343922291E0,3.883023519E0
5.309666958E0,-2.036886343E0,3.086687840E0,1.289218665E0,3.916456634E0
5.319610958E0,-1.830767606E0,3.359441155E0,1.394615897E0,4.072162619E0
5.329553958E0,-1.270238311E0,3.913765969E0,1.579993683E0,4.407658048E0
5.339497958E0,-4.907805640E-1,4.186760774E0,1.920496639E0,4.632293026E0
5.349440958E0,3.222568654E-2,3.941788750E0,2.210717340E0,4.519514156E0
5.359384958E0,1.390003029E-1,3.667549658E0,2.283092129E0,4.322354827E0
5.369327958E0,1.948102221E-2,3.635875291E0,2.146071109E0,4.222036221E0
5.379271958E0,-1.172182551E-1,3.662707579E0,1.917441176E0,4.135909524E0
5.389214958E0,-1.640787184E-1,3.648268465E0,1.673394767E0,4.017092812E0
5.399158958E0,7.450346768E-2,3.612785221E0,1.532245320E0,3.924989623E0
5.409101958E0,5.643618527E-1,3.524962381E0,1.490387442E0,3.868477584E0
5.419045958E0,8.031603858E-1,3.295193118E0,1.537045299E0,3.723690716E0
5.428989958E0,7.501208773E-1,2.979268641E0,1.559450076E0,3.445374799E0
5.438932958E0,7.726010826E-1,2.848975135E0,1.589542186E0,3.352643154E0
5.448876958E0,9.298809510E-1,2.784556360E0,1.649360372E0,3.367316787E0
5.458819958E0,1.151416457E0,2.529866849E0,1.663969640E0,3.239564955E0
5.468763958E0,1.330790614E0,2.183896455E0,1.609678243E0,3.021832462E0
5.478706958E0,1.555820709E0,1.893840644E0,1.481885591E0,2.864122094E0
5.488650958E0,1.730466077E0,1.656081746E0,1.354430030E0,2.751654103E0
5.498593958E0,1.888320288E0,1.388205010E0,1.162120078E0,2.615987334E0
5.508537958E0,1.833893235E0,1.157683210E0,1.040207970E0,2.405291549E0
5.518480958E0,1.751031904E0,1.036255252E0,9.273219171E-1,2.236037480E0
5.528424958E0,1.812969413E0,9.637123561E-1,1.013163721E0,2.289563347E0
5.538367958E0,1.953481805E0,9.289576757E-1,1.266883179E0,2.506800055E0
5.548311958E0,2.119702505E0,8.948099363E-1,1.358360236E0,2.671884366E0
5.558254958E0,2.194298651E0,8.430807889E-1,1.399708822E0,2.735857557E0
5.568198958E0,2.371502907E0,9.086362624E-1,1.366413606E0,2.883874484E0
5.578141958E0,2.551782798E0,9.426284659E-1,1.425620173E0,3.071243519E0
5.588085958E0,2.607747669E0,8.514984405E-1,1.453500282E0,3.104522599E0
5.598028958E0,2.428823308E0,6.659803212E-1,1.484638167E0,2.923501828E0
5.607972958E0,2.281443507E0,4.948685718E-1,1.431461542E0,2.738423182E0
5.617916958E0,2.186664526E0,3.651211953E-1,1.304090474E0,2.572055054E0
5.627859958E0,2.164880578E0,1.972447103E-1,1.245277717E0,2.505260463E0
5.637803958E0,2.273613646E0,6.137997687E-2,1.273201680E0,2.606555012E0
5.647746958E0,2.386865297E0,3.458803475E-2,1.532977099E0,2.836959828E0
5.657690958E0,2.450790859E0,-4.440609455E-2,1.766550560E0,3.021431551E0
5.667633958E0,2.575176631E0,-1.829576236E-1,1.690563362E0,3.085937889E0
5.677577958E0,2.640620130E0,-2.740385324E-1,1.463111204E0,3.031281278E0
5.687520958E0,2.643377385E0,-2.819094694E-1,1.323284544E0,2.969511564E0
5.697464958E0,2.675150278E0,-3.807584041E-1,1.253133013E0,2.978548022E0
5.707407958E0,2.550257844E0,-5.744433296E-1,1.358118746E0,2.945893199E0
5.717351958E0,2.394562571E0,-7.697146046E-1,1.381139380E0,2.869483659E0
5.727294958E0,2.368529598E0,-9.490077782E-1,1.353973655E0,2.888562424E0
5.737238958E0,2.339711888E0,-1.109453037E0,1.200774412E0,2.854294475E0
5.747181958E0,2.243801764E0,-1.197093444E0,1.068931101E0,2.758675908E0
5.757125958E0,2.158965974E0,-1.295236620E0,1.026656317E0,2.718969505E0
5.767069958E0,2.043184379E0,-1.320236390E0,1.099249426E0,2.669452347E0
5.777012958E0,1.941185842E0,-1.388112039E0,1.126719645E0,2.639044271E0
5.786956958E0,1.974445682E0,-1.489740155E0,1.061875924E0,2.691717288E0
5.796899958E0,1.997587499E0,-1.503582269E0,9.836110157E-1,2.686746376E0
5.806843958E0,1.974064151E0,-1.495407277E0,9.725123426E-1,2.660630085E0
5.816786958E0,1.939814670E0,-1.551686143E0,1.004831073E0,2.679607494E0
5.826730958E0,1.809743650E0,-1.683937297E0,1.082855807E0,2.698776315E0
5.836673958E0,1.721820530E0,-1.922843419E0,1.073455165E0,2.795406722E0
5.846617958E0,1.668325231E0,-2.037071700E0,1.052227507E0,2.835516340E0
5.856560958E0,1.573687753E0,-2.051542974E0,1.087423067E0,2.804961791E0
5.866504958E0,1.435232996E0,-2.123226914E0,1.046075651E0,2.768078855E0
5.876447958E0,1.195453885E0,-2.291851258E0,9.315374672E-1,2.747627019E0
5.886391958E0,9.388219285E-1,-2.450837052E0,8.159438610E-1,2.748409222E0
5.896334958E0,6.876144344E-1,-2.519933015E0,7.885783070E-1,2.728503574E0
5.906278958E0,5.478738740E-1,-2.462156092E0,7.968994796E-1,2.645265050E0
5.916222958E0,5.402479354E-1,-2.522007022E0,7.458521175E-1,2.684898998E0
5.926165958E0,5.584894940E-1,-2.667067087E0,6.469219065E-1,2.800654444E0
5.936109958E0,4.136334971E-1,-2.773878760E0,6.629456162E-1,2.881838464E0
5.946052958E0,2.024934635E-1,-2.889385242E0,7.101900224E-1,2.982267686E0
5.955996958E0,4.948440135E-2,-2.989286676E0,6.034209974E-1,3.049983678E0
5.965939958E0,-2.554253832E-2,-3.079441971E0,4.404392167E-1,3.110884436E0
5.975883958E0,-1.082014100E-1,-3.231644994E0,3.291246394E-1,3.250163064E0
5.985826958E0,-2.316178599E-1,-3.440194711E0,2.181759882E-1,3.454878760E0
5.995770958E0,-4.240245840E-1,-3.580227925E0,1.218980011E-1,3.607310350E0
6.005713958E0,-5.524425960E-1,-3.591055799E0,7.406558432E-2,3.634055624E0
6.015657958E0,-4.415235463E-1,-3.524657156E0,2.658370815E-2,3.552303169E0
6.025600958E0,-1.417957105E-1,-3.509705826E0,-1.356950911E-1,3.515189066E0
6.035544958E0,-7.266353895E-1,-4.012928315E0,8.457653917E-2,4.079061882E0
6.045487958E0,-5.527111293E-1,-3.940069669E0,-5.702899061E-2,3.979056533E0
6.055431958E0,-3.802530585E-1,-3.755150889E0,-1.337046989E-1,3.776721797E0
6.065375958E0,-5.201881850E-1,-3.766048930E0,-1.447068930E-1,3.804557842E0
6.075318958E0,-5.581784222E-1,-3.815712841E0,-2.463114743E-1,3.864181281E0
6.085262958E0,-5.257328072E-1,-3.779291704E0,-2.880081153E-1,3.826537526E0
6.095205958E0,-5.705850443E-1,-3.638873159E0,-1.938000425E-1,3.688431051E0
6.105149958E0,-5.873846796E-1,-3.571052474E0,-2.147004032E-1,3.625401053E0
6.115092208E0,-6.209460895E-1,-3.656466846E0,-2.866398303E-1,3.719877180E0
6.125036208E0,-7.099502134E-1,-3.731287817E0,-2.859042871E-1,3.808973529E0
6.134979208E0,-9.511414272E-1,-3.655216126E0,-2.485991243E-1,3.785112478E0
6.144923208E0,-1.194671527E0,-3.437003886E0,-1.566772763E-1,3.642085053E0
6.154866208E0,-1.459459764E0,-3.243396143E0,-6.196875494E-2,3.557173242E0
6.164810208E0,-1.744342397E0,-3.174127103E0,-6.385524943E-4,3.621852243E0
6.174753208E0,-1.928199468E0,-3.028957111E0,-1.974020004E-2,3.590671809E0
6.184697208E0,-2.053783773E0,-2.817348130E0,-1.273990433E-2,3.486494024E0
6.194640208E0,-2.186210344E0,-2.744400022E0,4.978553295E-2,3.509091869E0
6.204584208E0,-2.404749298E0,-2.534467438E0,1.305759269E-1,3.496197142E0
6.214528208E0,-2.697882498E0,-2.131767358E0,3.622098666E-1,3.457484349E0
6.224471208E0,-3.012802423E0,-1.681583793E0,6.079501776E-1,3.503470552E0
6.234415208E0,-3.186127344E0,-1.204801828E0,5.639802853E-1,3.452684269E0
6.244358208E0,-3.399330860E0,-9.019990879E-1,5.234064559E-1,3.555700630E0
6.254302208E0,-3.625053849E0,-6.908649015E-1,7.221474322E-1,3.760293424E0
6.264245208E0,-3.821478195E0,-3.705631989E-1,9.080690094E-1,3.945326603E0
6.274189208E0,-4.020332059E0,2.053542137E-2,1.101050003E0,4.168429282E0
6.284132208E0,-4.072987698E0,4.903919435E-1,1.159645536E0,4.263155031E0
6.294076208E0,-4.144382493E0,9.215328813E-1,1.066807100E0,4.377579981E0
6.304019208E0,-4.270358416E0,1.140136301E0,1.024371956E0,4.537092647E0
6.313963208E0,-4.398269767E0,1.239517917E0,1.001507589E0,4.678055051E0
6.323906208E0,-4.425217537E0,1.443993879E0,8.912786566E-1,4.739414122E0
6.333850208E0,-4.384014255E0,1.813205202E0,8.219150376E-1,4.814856012E0
6.343793208E0,-4.319063383E0,2.313578342E0,8.042447519E-1,4.965255570E0
6.353737208E0,-4.164893649E0,2.690542488E0,7.935475633E-1,5.021461513E0
6.363681208E0,-4.004223857E0,2.706239923E0,7.882608032E-1,4.896825330E0
6.373624208E0,-3.931224586E0,2.640356421E0,8.390296917E-1,4.809363741E0
6.383568208E0,-3.829729201E0,2.770656944E0,9.511838195E-1,4.821630047E0
6.393511208E0,-3.748698487E0,3.214520838E0,9.119811621E-1,5.021712278E0
6.403455208E0,-3.765766802E0,3.629873124E0,7.264101255E-1,5.280591839E0
6.413398208E0,-3.601999447E0,3.731864353E0,5.635239467E-1,5.217161183E0
6.423342208E0,-3.299252840E0,3.913932030E0,5.896194854E-1,5.152822952E0
6.433285208E0,-2.859127948E0,4.087880849E0,6.382613030E-1,5.029190784E0
6.443229208E0,-2.579816981E0,4.070206470E0,7.674549481E-1,4.879654031E0
6.453172208E0,-2.440364104E0,4.182451376E0,9.089075732E-1,4.926904652E0
6.463116208E0,-2.124065697E0,4.502983459E0,8.276909173E-1,5.047136552E0
6.473059208E0,-1.844095457E0,4.576175981E0,7.331545964E-1,4.987944499E0
6.483003208E0,-1.453791181E0,4.523708915E0,7.511271831E-1,4.810576180E0
6.492946208E0,-1.123984610E0,4.571433889E0,8.395248047E-1,4.781856449E0
6.502890208E0,-1.096512198E0,4.494617847E0,1.074839567E0,4.749653533E0
6.512834208E0,-1.051915485E0,4.496739802E0,1.231851925E0,4.779608163E0
6.522777208E0,-4.885767484E-1,4.721990921E0,1.269112137E0,4.913914032E0
6.532721208E0,4.424543499E-1,4.759226575E0,1.368303134E0,4.971745861E0
6.542664208E0,1.155016222E0,4.404239774E0,1.624932751E0,4.834438634E0
6.552608208E0,1.617443930E0,3.902359806E0,1.814906449E0,4.597654004E0
6.562551208E0,1.850696087E0,3.535145892E0,1.822805160E0,4.386906784E0
6.572495208E0,1.819262332E0,3.152806985E0,1.517771415E0,3.943797331E0
6.582438208E0,1.692693502E0,2.859467379E0,1.010617843E0,3.473199304E0
6.592382208E0,1.797280017E0,2.657004029E0,7.016495061E-1,3.283625724E0
6.602325208E0,2.069549475E0,2.462694036E0,9.058731607E-1,3.341931047E0
6.612269208E0,2.563210304E0,2.207204626E0,1.158045445E0,3.575313773E0
6.622212208E0,3.028582304E0,1.819007978E0,1.353429572E0,3.783235706E0
6.632156208E0,3.267658872E0,1.652263514E0,1.350831946E0,3.902859999E0
6.642099208E0,3.098743922E0,1.472483853E0,1.357855475E0,3.689741736E0
6.652043208E0,3.049028555E0,1.494690408E0,1.292400574E0,3.633314436E0
6.661987208E0,3.352136813E0,1.496586075E0,1.345627924E0,3.909898413E0
6.671930208E0,3.682250728E0,1.255553906E0,1.490205009E0,4.166064930E0
6.681874208E0,3.798042847E0,1.000798906E0,1.497654362E0,4.203533812E0
6.691817208E0,3.642144383E0,8.107275599E-1,1.395945554E0,3.983862306E0
6.701761208E0,3.524620027E0,6.040243936E-1,1.402592376E0,3.841231205E0
6.711704208E0,3.456838226E0,6.325658226E-1,1.544102450E0,3.838505232E0
6.721648208E0,3.470360789E0,6.352865320E-1,1.668659692E0,3.902744951E0
6.731591208E0,3.411786891E0,4.480908465E-1,1.674668875E0,3.826955845E0
6.741535208E0,3.342999369E0,3.426702261E-1,1.527579242E0,3.691417885E0
6.751478208E0,3.336953933E0,2.923420715E-1,1.482231746E0,3.663022848E0
6.761422208E0,3.307085478E0,1.244702643E-1,1.549983433E0,3.654415938E0
6.771365208E0,3.270094530E0,4.928968906E-2,1.832056771E0,3.748650387E0
6.781309208E0,3.292707175E0,5.142509222E-2,2.069298044E0,3.889287785E0
6.791253208E0,3.225774390E0,-1.836341465E-1,2.086967161E0,3.846397515E0
6.801196208E0,3.030808924E0,-5.233714092E-1,1.912767497E0,3.621933166E0
6.811140208E0,2.697672583E0,-8.468721235E-1,1.665363616E0,3.281473104E0
6.821083208E0,2.384882652E0,-1.019746808E0,1.509026027E0,3.000784625E0
6.831027208E0,2.282098541E0,-1.089241551E0,1.544105812E0,2.962884349E0
6.840970208E0,2.263519013E0,-9.955475217E-1,1.623861249E0,2.958303323E0
6.850914208E0,2.377066240E0,-9.527991128E-1,1.693613854E0,3.070276526E0
6.860857208E0,2.397349354E0,-1.207305021E0,1.809224417E0,3.236998970E0
6.870801208E0,2.319537386E0,-1.562343278E0,1.784595945E0,3.317522101E0
6.880744208E0,2.185616413E0,-1.857876175E0,1.532127206E0,3.252081912E0
6.890688208E0,1.895631208E0,-2.003644338E0,1.422090794E0,3.103280608E0
6.900631208E0,1.732773681E0,-1.945872678E0,1.532562239E0,3.022858270E0
6.910575208E0,1.763979247E0,-2.057464449E0,1.611447026E0,3.153021450E0
6.920519208E0,1.768675731E0,-2.387068487E0,1.671618383E0,3.408902730E0
6.930462208E0,1.641329660E0,-2.629759512E0,1.685431845E0,3.528495238E0
6.940406208E0,1.474241087E0,-2.812572709E0,1.506599432E0,3.514796420E0
6.950349208E0,1.426518598E0,-2.979605441E0,1.304682212E0,3.551788221E0
6.960293208E0,1.213490206E0,-3.058597232E0,1.270391800E0,3.527246920E0
6.970236208E0,1.037045796E0,-3.106686487E0,1.321756082E0,3.531855610E0
6.980180208E0,1.023883713E0,-3.211085014E0,1.388234246E0,3.645078758E0
6.990123208E0,1.038838406E0,-3.404553008E0,1.419465540E0,3.832107624E0
7.000067208E0,9.509278576E-1,-3.618713129E0,1.359703196E0,3.980972403E0
7.010010208E0,8.293369085E-1,-3.785602019E0,1.233414009E0,4.066926661E0
7.019954208E0,7.451041125E-1,-3.812844781E0,1.229166737E0,4.074778072E0
7.029897208E0,5.916439377E-1,-3.906191486E0,1.250244488E0,4.143849147E0
7.039841208E0,3.909501010E-1,-4.107727468E0,1.200807595E0,4.297465045E0
7.049784208E0,2.962768091E-1,-4.197419663E0,1.060613730E0,4.339471541E0
7.059728208E0,1.079403318E-1,-4.368176486E0,8.995705931E-1,4.461148303E0
7.069672208E0,-1.243452801E-1,-4.558434359E0,7.034830467E-1,4.614073466E0
7.079615208E0,-3.322667138E-1,-4.699081530E0,6.052805217E-1,4.749540283E0
7.089559208E0,-5.503516316E-1,-4.743863016E0,6.840961647E-1,4.824428546E0
7.099502208E0,-7.631331249E-1,-4.683622077E0,7.804324047E-1,4.809133255E0
7.109446208E0,-8.766382518E-1,-4.605839490E0,8.112181413E-1,4.758185254E0
7.119389208E0,-9.175333858E-1,-4.583635858E0,7.244422451E-1,4.730370151E0
7.129333208E0,-9.359823013E-1,-4.603329865E0,5.405635388E-1,4.728521720E0
7.139276208E0,-9.599983509E-1,-4.683415085E0,3.908514293E-1,4.796742492E0
7.149220208E0,-1.091994274E0,-4.743938445E0,3.569703229E-1,4.881068661E0
7.159163208E0,-1.392879566E0,-4.687163735E0,4.314650197E-1,4.908745199E0
7.169107208E0,-1.748009624E0,-4.520805772E0,4.368806378E-1,4.866629960E0
7.179050208E0,-2.136964948E0,-4.344813352E0,4.347077394E-1,4.861377692E0
7.188994208E0,-2.401270205E0,-4.169418517E0,3.634418750E-1,4.825167288E0
7.198938208E0,-2.591262906E0,-3.928473471E0,4.170048554E-1,4.724557155E0
7.208881208E0,-2.787013360E0,-3.648156198E0,5.490054564E-1,4.623623483E0
7.218825208E0,-2.936605310E0,-3.377312585E0,5.819184832E-1,4.513149694E0
7.228768208E0,-3.196790326E0,-3.012483750E0,5.305249659E-1,4.424475503E0
7.238712208E0,-3.581113193E0,-2.655788392E0,6.535223897E-1,4.506070927E0
7.248655208E0,-3.819458859E0,-2.415532733E0,7.695334140E-1,4.584238872E0
7.258599208E0,-4.021107108E0,-2.179126296E0,7.091900754E-1,4.628265804E0
7.268542208E0,-4.290663457E0,-1.869523244E0,6.827559829E-1,4.729806105E0
7.278486208E0,-4.512328771E0,-1.509301431E0,4.994633138E-1,4.784199551E0
7.288429208E0,-4.691185158E0,-1.108720965E0,2.911200035E-1,4.829206065E0
7.298373208E0,-4.978190183E0,-7.070745528E-1,4.154125124E-1,5.045284876E0
7.308316208E0,-5.256976655E0,-3.297215670E-1,6.384060216E-1,5.305853570E0
7.318260208E0,-5.280818676E0,1.931271011E-1,6.621397968E-1,5.325671139E0
7.328204208E0,-5.177383186E0,9.717230415E-1,4.688543093E-1,5.288607254E0
7.338147208E0,-5.034151545E0,1.808491176E0,3.747099712E-1,5.362250430E0
7.348091208E0,-4.933595223E0,2.319559459E0,5.510894772E-1,5.479454127E0
7.358034208E0,-4.695253066E0,2.582371922E0,6.711678247E-1,5.400417793E0
7.367978208E0,-4.638604071E0,2.805267783E0,7.705185968E-1,5.475388020E0
7.377921208E0,-4.598722259E0,3.220722395E0,7.108629638E-1,5.659207128E0
7.387865208E0,-4.340702467E0,3.839401665E0,4.364790072E-1,5.811472875E0
7.397808208E0,-4.032700090E0,4.362702323E0,1.996623878E-1,5.944384463E0
7.407752208E0,-3.574496191E0,4.816968999E0,1.276900336E-1,5.999709835E0
7.417695208E0,-3.109955081E0,5.064970465E0,2.043786058E-1,5.947059528E0
7.427639208E0,-2.760379585E0,5.034683057E0,2.459941167E-1,5.747020275E0
7.437583208E0,-2.620836076E0,4.981364052E0,2.618779318E-1,5.634833592E0
7.447526208E0,-2.707131331E0,4.930301487E0,2.370987475E-1,5.629622422E0
7.457470208E0,-2.971805840E0,4.841738974E0,6.871048495E-2,5.681442367E0
7.467413208E0,-3.049723205E0,4.854925615E0,-2.278544457E-1,5.737859531E0
7.477357208E0,-2.542730139E0,5.221501597E0,-3.718770683E-1,5.819608925E0
7.487300208E0,-1.798865782E0,5.418545748E0,-2.076904687E-1,5.713115740E0
7.497244208E0,-1.221948496E0,5.296832446E0,-5.087077618E-2,5.436191674E0
7.507187208E0,-8.969093791E-1,5.055628953E0,6.240133926E-2,5.134951263E0
7.517131208E0,-8.310700232E-1,4.734979926E0,8.998148605E-2,4.808202257E0
7.527074208E0,-6.827676773E-1,4.411254678E0,1.903327167E-2,4.463821435E0
7.537018208E0,-4.066960680E-1,4.102476084E0,8.122645006E-2,4.123385677E0
7.546961208E0,-5.632887790E-2,3.800865591E0,2.670432159E-1,3.810651422E0
7.556905208E0,4.053693348E-1,3.672987569E0,5.601268606E-1,3.737499710E0
7.566849208E0,9.274450010E-1,3.630522165E0,8.889285144E-1,3.851108844E0
7.576792208E0,1.363496431E0,3.385288187E0,1.065063314E0,3.801796745E0
7.586736208E0,1.581528870E0,3.121330839E0,1.096955783E0,3.667049462E0
7.596679208E0,1.621011901E0,3.051477662E0,9.674066269E-1,3.588184929E0
7.606623208E0,1.688395506E0,3.098399228E0,8.630757813E-1,3.632582686E0
7.616566208E0,2.087496334E0,3.289602596E0,9.869448057E-1,4.019102665E0
7.626510208E0,2.782152862E0,3.400554682E0,1.372121074E0,4.602918958E0
7.636453208E0,3.417651941E0,3.352343220E0,1.711352552E0,5.084021775E0
7.646397208E0,3.688433866E0,3.196493872E0,1.922800734E0,5.245882207E0
7.656340208E0,3.524955364E0,2.940210995E0,2.156933189E0,5.071736566E0
7.666284208E0,3.540110763E0,3.179368547E0,2.182335833E0,5.234821703E0
7.676228208E0,3.747152775E0,3.278393483E0,2.264673985E0,5.469713522E0
7.686171208E0,4.025997427E0,3.100724666E0,2.394717376E0,5.617634738E0
7.696115208E0,4.373242514E0,2.950603836E0,2.437981510E0,5.811632036E0
7.706058208E0,4.535164779E0,2.783069998E0,2.690760005E0,5.962666148E0
7.716002208E0,4.577934823E0,2.519676322E0,3.008774861E0,6.029840974E0
7.725945208E0,4.545964294E0,2.268110978E0,3.191131391E0,5.999453169E0
7.735889208E0,4.553070416E0,1.982596700E0,3.227449032E0,5.922631775E0
7.745832208E0,4.465566249E0,1.603814070E0,3.167179441E0,5.704781074E0
7.755776208E0,4.375825814E0,1.246902366E0,3.044989007E0,5.474904119E0
7.765719208E0,4.233998967E0,9.260767525E-1,2.944815677E0,5.239876409E0
7.775663208E0,4.034144060E0,5.728669202E-1,2.992107958E0,5.055215607E0
7.785606208E0,3.912755570E0,2.703822684E-1,3.084177046E0,4.989480010E0
7.795550208E0,3.802048775E0,-6.925383747E-2,3.154015020E0,4.940463716E0
7.805493208E0,3.585303308E0,-4.380061537E-1,3.153903923E0,4.795139117E0
7.815437208E0,3.493388586E0,-8.500728893E-1,3.053502553E0,4.717018716E0
7.825381208E0,3.334160718E0,-1.220278823E0,3.086658604E0,4.704590252E0
7.835324208E0,3.031062693E0,-1.533677888E0,3.005729631E0,4.535848270E0
7.845268208E0,2.668157885E0,-1.890467970E0,2.895472194E0,4.367687589E0
7.855211208E0,2.338183426E0,-2.216986433E0,2.907216911E0,4.339820359E0
7.865155208E0,2.046498581E0,-2.307000225E0,2.994962568E0,4.298861159E0
7.875098208E0,1.873592029E0,-2.411435004E0,3.040451567E0,4.309258823E0
7.885042208E0,1.725127130E0,-2.798236506E0,3.049145207E0,4.483690183E0
7.894985208E0,1.531180542E0,-3.197285585E0,3.122721891E0,4.724250309E0
7.904929208E0,1.229914012E0,-3.470670984E0,3.039075133E0,4.774329609E0
7.914872208E0,8.288549517E-1,-3.664015017E0,2.883197134E0,4.735486489E0
7.924816208E0,4.140410480E-1,-3.800867929E0,2.706772020E0,4.684510836E0
7.934759208E0,3.202622339E-2,-3.902507740E0,2.463500074E0,4.615130005E0
7.944703208E0,-3.148561907E-1,-3.999437034E0,2.206142040E0,4.578394229E0
7.954647208E0,-5.613060978E-1,-4.142036591E0,1.914614632E0,4.597529863E0
7.964590208E0,-6.513602355E-1,-4.181446824E0,1.651013964E0,4.542533964E0
7.974534208E0,-6.409216399E-1,-4.209327518E0,1.537794035E0,4.527033156E0
7.984477208E0,-5.977354208E-1,-4.278404769E0,1.466216807E0,4.561998107E0
7.994421208E0,-6.869991611E-1,-4.379475646E0,1.328698188E0,4.627873557E0
8.004364208E0,-9.165851136E-1,-4.372000566E0,1.209159466E0,4.627805509E0
8.014308208E0,-9.765395392E-1,-4.292725770E0,1.041557800E0,4.523932654E0
8.024251208E0,-8.351005089E-1,-4.331778738E0,8.991555870E-1,4.502241738E0
8.034195208E0,-7.027236396E-1,-4.537026533E0,8.571410036E-1,4.670451903E0
8.044138208E0,-6.284533297E-1,-4.656012109E0,7.218694702E-1,4.753367004E0
8.054082208E0,-6.503206006E-1,-4.674063633E0,6.399841851E-1,4.762285952E0
8.064025208E0,-6.886694182E-1,-4.765211200E0,5.874145004E-1,4.850418450E0
8.073969208E0,-8.796992692E-1,-4.777038948E0,6.021222943E-1,4.894540139E0
8.083913208E0,-1.073873168E0,-4.805602596E0,5.075888970E-1,4.950218822E0
8.093856208E0,-1.405977037E0,-4.985767590E0,4.033619857E-1,5.195897495E0
8.103800208E0,-1.718640960E0,-5.144190297E0,3.457736358E-1,5.434701460E0
8.113744833E0,-1.884117748E0,-5.157504407E0,3.719861189E-1,5.503464824E0
8.123688833E0,-1.944391139E0,-5.170689293E0,5.891768512E-1,5.555521040E0
8.133631833E0,-1.798458962E0,-5.163480261E0,7.048575810E-1,5.512967191E0
8.143575833E0,-1.634896992E0,-4.895202990E0,9.381179237E-1,5.245566292E0
8.153518833E0,-1.729536662E0,-4.390913969E0,1.210084495E0,4.871932577E0
8.163462833E0,-1.870933300E0,-4.002266502E0,1.340385311E0,4.616834559E0
8.173405833E0,-2.104078453E0,-3.872075322E0,1.332265867E0,4.603807747E0
8.183349833E0,-2.301790648E0,-3.658809825E0,1.369745350E0,4.534460480E0
8.193293833E0,-2.263725566E0,-3.177465279E0,1.281087527E0,4.106327348E0
8.203236833E0,-2.261151914E0,-2.752001402E0,1.164845903E0,3.747423872E0
8.213180833E0,-2.419624907E0,-2.538368701E0,1.122174385E0,3.682007021E0
8.223123833E0,-2.771520285E0,-2.400034103E0,1.094776379E0,3.826228392E0
8.233067833E0,-3.355201339E0,-2.040808071E0,1.029202268E0,4.059745178E0
8.243010833E0,-3.956539229E0,-1.479952501E0,7.855172896E-1,4.296684709E0
8.252954833E0,-4.455953718E0,-1.033736857E0,6.282049692E-1,4.617226106E0
8.262897833E0,-4.898877965E0,-7.951651955E-1,4.093705845E-1,4.979847114E0
8.272841833E0,-5.122673712E0,-5.298249811E-1,2.605016434E-1,5.156584294E0
8.282784833E0,-5.214047567E0,-2.297207308E-1,2.293160852E-1,5.224141031E0
8.292728833E0,-5.283055236E0,-7.114424229E-2,2.569318817E-1,5.289777701E0
8.302671833E0,-5.410277785E0,3.669057655E-1,1.240234639E-1,5.424122728E0
8.312615833E0,-5.370775166E0,1.391371862E0,-3.085440483E-1,5.556648357E0
8.322559833E0,-4.977758074E0,2.238678433E0,-3.776628882E-1,5.471049792E0
8.332502833E0,-4.393789045E0,2.615959498E0,-9.225853801E-2,5.114404942E0
8.342446833E0,-3.966568081E0,2.798112545E0,1.875820403E-1,4.857806416E0
8.352389833E0,-3.807622341E0,2.991947744E0,1.861519575E-2,4.842528856E0
8.362333833E0,-4.020113666E0,3.394162506E0,-5.572338045E-1,5.290761998E0
8.372276833E0,-4.223940879E0,3.636338391E0,-1.049148071E0,5.671450001E0
8.382220833E0,-4.145702795E0,3.586375102E0,-1.175270612E0,5.606264269E0
8.392163833E0,-3.806313734E0,3.605884337E0,-9.251990855E-1,5.324135558E0
8.402107833E0,-3.368514864E0,3.768256838E0,-6.351184246E-1,5.094116940E0
8.412050833E0,-3.101063220E0,4.001401699E0,-4.640385425E-1,5.083614897E0
8.421994833E0,-2.747280360E0,4.580888836E0,-5.617452237E-1,5.371000801E0
8.431937833E0,-2.067049351E0,5.391418176E0,-4.412691924E-1,5.790924060E0
8.441881833E0,-1.197673488E0,5.803311834E0,-9.808587313E-2,5.926421421E0
8.451825833E0,-5.617042932E-1,5.679328058E0,9.226789355E-2,5.707783481E0
8.461768833E0,-4.714937425E-1,5.244631428E0,5.692498326E-2,5.266090164E0
8.471712833E0,-6.555615330E-1,5.027642425E0,-1.424524990E-1,5.072202873E0
8.481655833E0,-4.901744270E-1,5.313599921E0,-3.156753856E-1,5.345490253E0
8.491599833E0,6.793441325E-2,5.604863766E0,-1.483918083E-1,5.607239343E0
8.501542833E0,5.799905465E-1,5.489513989E0,1.981817266E-1,5.523624613E0
8.511486833E0,7.075718585E-1,5.042144689E0,4.053930160E-1,5.107663311E0
8.521429833E0,5.273977653E-1,4.447457714E0,4.201601592E-1,4.498284460E0
8.531373833E0,2.123454006E-1,3.838871908E0,3.509601161E-1,3.860725462E0
8.541316833E0,2.164156474E-1,3.652700654E0,2.108953276E-1,3.665178664E0
8.551260833E0,6.957856259E-1,3.734510803E0,4.124009040E-1,3.821094487E0
8.561203833E0,1.155286437E0,3.505837308E0,7.632317966E-1,3.769363973E0
8.571147833E0,1.205140967E0,3.022680125E0,9.043517151E-1,3.377397209E0
8.581091833E0,8.635413659E-1,2.507877225E0,7.112515113E-1,2.746093695E0
8.591034833E0,5.388434342E-1,2.001125357E0,3.801318750E-1,2.106977737E0
8.600978833E0,4.732271495E-1,1.713532394E0,3.604659346E-1,1.813855808E0
8.610921833E0,7.679814899E-1,1.724542117E0,5.166991514E-1,1.957247837E0
8.620865833E0,1.065125880E0,1.662582681E0,6.915636438E-1,2.092112469E0
8.630808833E0,1.164866515E0,1.445540468E0,7.282306561E-1,1.994196863E0
8.640752833E0,1.065659730E0,1.249383339E0,6.512611252E-1,1.766558927E0
8.650695833E0,8.986845937E-1,1.120310147E0,5.723283917E-1,1.546055824E0
8.660639833E0,7.354537216E-1,1.057643198E0,5.299074268E-1,1.392947663E0
8.670582833E0,7.429969221E-1,1.142141311E0,4.386996335E-1,1.431428856E0
8.680526833E0,9.295464903E-1,1.262405089E0,4.872353241E-1,1.641682535E0
8.690469833E0,1.104691649E0,1.268072795E0,7.267621279E-1,1.832084999E0
8.700413833E0,1.149225798E0,1.253313253E0,9.065603547E-1,1.927009528E0
8.710357833E0,1.114458546E0,1.308389931E0,1.021818331E0,1.999503629E0
8.720300833E0,1.132624091E0,1.429702114E0,1.115832641E0,2.138216067E0
8.730244833E0,1.209566724E0,1.607256326E0,1.135439379E0,2.309880330E0
8.740187833E0,1.280209860E0,1.735544822E0,1.125570302E0,2.432686092E0
8.750131833E0,1.383872223E0,1.772267675E0,1.154016860E0,2.527407754E0
8.760074833E0,1.528599581E0,1.760736966E0,1.259087817E0,2.649927070E0
8.770018833E0,1.707797153E0,1.671527166E0,1.354339691E0,2.746781786E0
8.779961833E0,1.776946033E0,1.681157531E0,1.455673838E0,2.846544250E0
8.789905833E0,1.836175696E0,1.838425412E0,1.578193910E0,3.040073223E0
8.799848833E0,1.967719337E0,1.934475870E0,1.741220714E0,3.262815633E0
8.809792833E0,2.073272982E0,1.893002154E0,1.991520721E0,3.442102961E0
8.819735833E0,2.262680669E0,1.826263204E0,2.129218556E0,3.603960704E0
8.829679833E0,2.350335986E0,1.693255420E0,2.305246060E0,3.702074089E0
8.839623833E0,2.263486123E0,1.574878539E0,2.371544130E0,3.637008853E0
8.849566833E0,2.115623780E0,1.502413411E0,2.390189731E0,3.527905467E0
8.859510833E0,2.099872843E0,1.373603927E0,2.440133139E0,3.500071919E0
8.869453833E0,2.123455833E0,1.219675391E0,2.437045809E0,3.454832124E0
8.879397833E0,2.137649364E0,1.184964564E0,2.412825472E0,3.434445018E0
8.889340833E0,2.123105585E0,1.124999614E0,2.440842991E0,3.425042476E0
8.899284833E0,2.044227230E0,1.096284522E0,2.396273174E0,3.335090681E0
8.909227833E0,1.884364354E0,1.080150885E0,2.395152848E0,3.233312870E0
8.919171833E0,1.813142929E0,1.022141828E0,2.368412361E0,3.153036363E0
8.929114833E0,1.811249893E0,9.387956160E-1,2.433969004E0,3.175872871E0
8.939058833E0,1.906989717E0,7.813868165E-1,2.538671587E0,3.269866750E0
8.949001833E0,1.969741012E0,6.629707593E-1,2.688285463E0,3.397983021E0
8.958945833E0,1.941505977E0,4.712610233E-1,2.739145714E0,3.390346834E0
8.968889833E0,1.793692166E0,2.690894490E-1,2.757951529E0,3.300914624E0
8.978832833E0,1.635419440E0,1.406816697E-1,2.720810015E0,3.177608411E0
8.988776833E0,1.531473195E0,1.970043898E-2,2.736716781E0,3.136146839E0
8.998719833E0,1.490063506E0,-2.456356823E-2,2.744901713E0,3.123360056E0
9.008663833E0,1.425231772E0,-1.060994822E-1,2.809771893E0,3.152357974E0
9.018606833E0,1.363034062E0,-2.528932464E-1,2.857821972E0,3.176312843E0
9.028550833E0,1.458899163E0,-3.442542368E-1,2.778367960E0,3.156933047E0
9.038493833E0,1.631175239E0,-5.235766464E-1,2.735356134E0,3.227543701E0
9.048437833E0,1.647271746E0,-7.110986066E-1,2.780374432E0,3.309025146E0
9.058380833E0,1.481638253E0,-8.395549178E-1,2.729297833E0,3.217012751E0
9.068324833E0,1.206061757E0,-9.425547910E-1,2.761489972E0,3.157344036E0
9.078267833E0,9.852170996E-1,-1.048087678E0,2.621980084E0,2.990638740E0
9.088211833E0,9.437508389E-1,-1.291549366E0,2.561205586E0,3.019691949E0
9.098155833E0,1.019302712E0,-1.443184624E0,2.559976501E0,3.110504713E0
9.108098833E0,1.036537088E0,-1.528475620E0,2.617452877E0,3.203389833E0
9.118045875E0,9.386991370E-1,-1.666229589E0,2.587139157E0,3.217260656E0
9.127988875E0,7.467654526E-1,-1.849458523E0,2.518324445E0,3.212493344E0
9.137932875E0,6.220260702E-1,-1.875062311E0,2.410503251E0,3.116616920E0
9.147875875E0,6.051080288E-1,-1.827698110E0,2.317807926E0,3.013116275E0
9.157819875E0,6.421780604E-1,-1.852036561E0,2.293483801E0,3.017034973E0
9.167762875E0,5.207541955E-1,-1.932183761E0,2.304394705E0,3.052008187E0
9.177706875E0,2.969575712E-1,-2.103676164E0,2.205658329E0,3.062444427E0
9.187649875E0,1.506311457E-1,-2.338364689E0,2.043141402E0,3.108868918E0
9.197593875E0,1.354568902E-1,-2.558896521E0,2.006228807E0,3.254420686E0
9.207536875E0,6.345135301E-2,-2.462361914E0,1.918794514E0,3.122342815E0
9.217480875E0,-2.467700422E-2,-2.338351825E0,1.916416744E0,3.023433702E0
9.227424875E0,-1.475951251E-1,-2.417948803E0,1.923597125E0,3.093297049E0
9.237367875E0,-2.007365213E-1,-2.607920746E0,1.829203476E0,3.191791210E0
9.247311875E0,-3.254229864E-1,-2.727126178E0,1.819948211E0,3.294742600E0
9.257254875E0,-4.499805205E-1,-2.778380531E0,1.772090797E0,3.325986566E0
9.267198875E0,-4.123598273E-1,-2.737370499E0,1.682193950E0,3.239292262E0
9.277141875E0,-4.166468596E-1,-2.589797301E0,1.788656836E0,3.174891801E0
9.287085875E0,-5.029593641E-1,-2.578964165E0,1.840801136E0,3.208204031E0
9.297028875E0,-5.950461401E-1,-2.706748631E0,1.743128953E0,3.273998566E0
9.306972875E0,-7.398575521E-1,-2.823121671E0,1.546454054E0,3.302866226E0
9.316915875E0,-8.412745839E-1,-2.898053155E0,1.317174788E0,3.292628803E0
9.326859875E0,-9.261803944E-1,-2.953539138E0,1.146720266E0,3.300934857E0
9.336802875E0,-9.911752662E-1,-2.983457587E0,1.065246332E0,3.319367007E0
9.346746875E0,-1.062470367E0,-3.027546762E0,1.003774262E0,3.361910981E0
9.356690875E0,-1.193482203E0,-3.077402462E0,9.492527765E-1,3.434514014E0
9.366633875E0,-1.434773405E0,-3.194182468E0,9.178877270E-1,3.619930143E0
9.376577875E0,-1.762170119E0,-3.293892113E0,7.744330153E-1,3.815064256E0
9.386520875E0,-1.995972498E0,-3.297944233E0,5.577591768E-1,3.895052975E0
9.396464875E0,-2.087656840E0,-3.354471021E0,4.991472718E-1,3.982453379E0
9.406407875E0,-2.041940092E0,-3.416014135E0,5.167301416E-1,4.013188502E0
9.416351875E0,-1.974556779E0,-3.383660907E0,5.438164911E-1,3.955220851E0
9.426294875E0,-1.895453599E0,-3.315639077E0,5.932678556E-1,3.864993349E0
9.436238875E0,-1.912075771E0,-3.197499593E0,5.897747290E-1,3.771985105E0
9.446181875E0,-1.953328901E0,-2.964321989E0,5.831200129E-1,3.597600255E0
9.456125875E0,-2.085507403E0,-2.703266029E0,5.358742180E-1,3.456030893E0
9.466069875E0,-2.185589370E0,-2.524778017E0,4.985599190E-1,3.376368896E0
9.476012875E0,-2.252774024E0,-2.655291964E0,4.613833219E-1,3.512611676E0
9.485956875E0,-2.343488312E0,-2.798422447E0,3.760908642E-1,3.669407309E0
9.495899875E0,-2.352878940E0,-2.720049877E0,2.420042691E-1,3.604618802E0
9.505843875E0,-2.561529522E0,-2.592041463E0,1.792266615E-1,3.648593514E0
9.515786875E0,-2.891004336E0,-2.371152951E0,-3.146722957E-2,3.739152655E0
9.525730875E0,-3.200983072E0,-2.237920049E0,-1.806906581E-1,3.909888475E0
9.535673875E0,-3.465486550E0,-2.281748439E0,-1.106528552E-1,4.150688741E0
9.545617875E0,-3.721308667E0,-2.331794758E0,-7.876550317E-2,4.392221419E0
9.555560875E0,-3.818875600E0,-2.264583353E0,-2.506466731E-1,4.446905931E0
9.565504875E0,-3.868166458E0,-1.921134862E0,-4.930044063E-1,4.347013256E0
9.575447875E0,-3.855481216E0,-1.380486685E0,-7.385314035E-1,4.161238701E0
9.585391875E0,-3.801295653E0,-6.908204627E-1,-8.489209148E-1,3.955723483E0
9.595334875E0,-3.807356000E0,-2.229876620E-1,-6.662995791E-1,3.871645430E0
9.605278875E0,-3.847983331E0,-8.112193108E-2,-4.542257452E-1,3.875548673E0
9.615222875E0,-3.967539888E0,-1.446080750E-1,-3.734944081E-1,3.987703892E0
9.625165875E0,-3.966908389E0,1.840972459E-1,-5.262505782E-1,4.005894860E0
9.635109875E0,-3.685229300E0,1.239714383E0,-7.034615582E-1,3.951286488E0
9.645052875E0,-3.347866299E0,2.234183679E0,-4.986821624E-1,4.055671259E0
9.654996875E0,-3.082874286E0,2.795471942E0,-1.449607352E-1,4.164107451E0
9.664939875E0,-2.961220626E0,2.882051080E0,1.576244887E-1,4.135201507E0
9.674883875E0,-3.213908050E0,2.641662689E0,2.991539316E-1,4.170980675E0
9.684826875E0,-3.701312651E0,2.696483844E0,-1.772076179E-1,4.582809510E0
9.694770875E0,-3.725239457E0,3.300941516E0,-7.575981505E-1,5.034637908E0
9.704713875E0,-3.316295427E0,3.869484420E0,-6.632718909E-1,5.139129755E0
9.714657875E0,-2.908688071E0,3.952016700E0,-8.982536539E-2,4.907847887E0
9.724600875E0,-2.607337194E0,3.751008137E0,1.242211729E-1,4.569868727E0
9.734544875E0,-2.776598300E0,3.526308410E0,-5.940639541E-2,4.488638796E0
9.744488875E0,-2.873821124E0,3.873285111E0,-7.122410063E-1,4.875292058E0
9.754431875E0,-2.384694372E0,4.613540858E0,-9.360161421E-1,5.277087522E0
9.764375875E0,-1.566732783E0,5.016684743E0,-5.205023266E-1,5.281354002E0
9.774318875E0,-9.216577193E-1,5.027913736E0,-1.119162923E-1,5.112914505E0
9.784262875E0,-7.706063050E-1,4.834750382E0,1.138102055E-2,4.895791546E0
9.794205875E0,-9.737786302E-1,4.627391742E0,-2.077223361E-1,4.733301990E0
9.804149875E0,-1.001443123E0,4.480095702E0,-5.135361001E-1,4.619292712E0
9.814092875E0,-7.611282608E-1,4.915627899E0,-5.196385467E-1,5.001273647E0
9.824036875E0,9.143963546E-2,5.653920152E0,-2.620909166E-1,5.660730159E0
9.833979875E0,9.168850757E-1,5.978623638E0,3.343756583E-1,6.057757500E0
9.843923875E0,1.502093860E0,5.915171993E0,5.576504186E-1,6.128337430E0
9.853866875E0,1.580521394E0,5.497326454E0,3.647615916E-1,5.731639995E0
9.863810875E0,1.149242681E0,4.921062886E0,7.445011184E-2,5.054024287E0
9.873754875E0,6.143216327E-1,4.381021650E0,-1.197188169E-1,4.425502724E0
9.883697875E0,2.822111857E-1,3.896031364E0,-1.149726319E-1,3.907930686E0
9.893641875E0,2.766297260E-1,3.514160235E0,-1.087447625E-1,3.526708322E0
9.903584875E0,4.703693229E-1,3.174183236E0,-4.350562334E-2,3.209139956E0
9.913528875E0,7.046681312E-1,2.845200757E0,-3.371270657E-2,2.931358230E0
9.923471875E0,7.895811045E-1,2.566237115E0,4.683268905E-2,2.685368607E0
9.933415875E0,7.365117753E-1,2.318528595E0,1.712848270E-1,2.438721578E0
9.943358875E0,6.326099691E-1,2.022460093E0,2.498778373E-1,2.133771106E0
9.953302875E0,5.253775889E-1,1.573102155E0,2.163773847E-1,1.672570230E0
9.963245875E0,4.707824287E-1,1.197833117E0,7.304166377E-2,1.289098660E0
9.973189875E0,5.933406535E-1,1.017254725E0,4.087788463E-2,1.178359584E0
9.983132875E0,7.679276955E-1,8.921055990E-1,2.300358957E-1,1.199367274E0
9.993076875E0,9.040207627E-1,8.739131570E-1,5.526134808E-1,1.373447999E0
1.000302088E1,9.496904406E-1,8.107573807E-1,6.893878949E-1,1.426357295E0
1.001296388E1,8.531882858E-1,6.550261474E-1,6.948394002E-1,1.280543360E0
1.002290788E1,9.040222245E-1,6.220653927E-1,6.282885844E-1,1.264503096E0
1.003285088E1,1.080107908E0,6.378879583E-1,7.674738785E-1,1.470561217E0
1.004279488E1,1.181745380E0,6.756171173E-1,9.757412481E-1,1.674828832E0
1.005273788E1,1.262230257E0,8.548740381E-1,1.146435506E0,1.907445730E0
1.006268188E1,1.290400680E0,1.052974781E0,1.299827853E0,2.112686028E0
1.007262487E1,1.381857857E0,1.314466943E0,1.475811503E0,2.411508671E0
1.008256888E1,1.529486311E0,1.607597803E0,1.669799314E0,2.777035978E0
1.009251188E1,1.714845971E0,1.840860193E0,1.813158424E0,3.101129863E0
1.010245588E1,1.988730722E0,2.005789096E0,1.900789475E0,3.404591079E0
1.011239625E1,2.229160043E0,2.083009765E0,2.025725763E0,3.662191836E0
1.012233925E1,2.409655697E0,2.070617761E0,2.138535510E0,3.829782320E0
1.013228325E1,2.519949387E0,2.217893336E0,2.302829990E0,4.070899375E0
1.014222625E1,2.674223202E0,2.365969979E0,2.496543567E0,4.356835257E0
1.015217025E1,2.782358977E0,2.238281407E0,2.681303887E0,4.465514043E0
1.016211325E1,2.716282516E0,2.034966702E0,2.663426610E0,4.314292699E0
1.017205725E1,2.496623966E0,1.922196717E0,2.520627079E0,4.035038081E0
1.018200025E1,2.387573979E0,1.908693157E0,2.491358256E0,3.943410330E0
1.019194425E1,2.366130485E0,1.826383072E0,2.658710246E0,4.000373579E0
1.020188725E1,2.460436426E0,1.733143371E0,2.843899752E0,4.140688246E0
1.021183125E1,2.498670200E0,1.544004071E0,2.854244646E0,4.095609092E0
1.022177425E1,2.354614979E0,1.399137549E0,2.780684334E0,3.903076087E0
1.023171825E1,2.187656507E0,1.390163242E0,2.787096391E0,3.806087377E0
1.024166125E1,2.031782747E0,1.351453505E0,2.903893354E0,3.793041566E0
1.025160525E1,1.970085120E0,1.108943160E0,3.012938079E0,3.766800523E0
1.026154925E1,1.951475772E0,8.052083731E-1,3.052192776E0,3.711131762E0
1.027149225E1,2.023959758E0,6.332066774E-1,2.991846002E0,3.667220514E0
1.028143625E1,2.055266189E0,4.991282684E-1,3.072672064E0,3.730222748E0
1.029137925E1,2.011451832E0,4.564067566E-1,3.223827267E0,3.827180143E0
1.030132325E1,1.921433216E0,3.496190572E-1,3.192140036E0,3.742178122E0
1.031126625E1,1.761015878E0,6.693834007E-2,3.087111179E0,3.554702954E0
1.032121025E1,1.770553710E0,-2.496065265E-1,2.884558951E0,3.393794955E0
1.033115325E1,1.699336378E0,-4.318735939E-1,2.854694004E0,3.350154740E0
1.034109725E1,1.576068009E0,-4.517675757E-1,2.897819559E0,3.329480816E0
1.035104025E1,1.405243358E0,-3.768074405E-1,2.981910414E0,3.317903322E0
1.036098425E1,1.305449659E0,-4.620154059E-1,2.984696612E0,3.290299517E0
1.037092725E1,1.322385534E0,-7.868112785E-1,2.914486170E0,3.295755623E0
1.038087125E1,1.409545154E0,-1.066383616E0,2.771315925E0,3.286971785E0
1.039081525E1,1.449089874E0,-1.213578499E0,2.601683521E0,3.215803380E0
1.040075825E1,1.402825242E0,-1.204732831E0,2.649963104E0,3.231347135E0
1.041070225E1,1.192026832E0,-1.189887335E0,2.741110379E0,3.217210895E0
1.042064525E1,9.688406566E-1,-1.282517172E0,2.789561869E0,3.219496534E0
1.043058925E1,7.947614452E-1,-1.333404905E0,2.798019282E0,3.199769726E0
1.044053225E1,7.210830197E-1,-1.535827909E0,2.754873847E0,3.235437838E0
1.045047625E1,5.793201998E-1,-1.946681347E0,2.574541331E0,3.279244307E0
1.046041925E1,3.144825536E-1,-2.342348982E0,2.336871603E0,3.323622560E0
1.047036325E1,1.408681959E-2,-2.552083930E0,2.225503779E0,3.386177475E0
1.048030625E1,-2.434969170E-1,-2.593053031E0,2.166229970E0,3.387590154E0
1.049025025E1,-4.446357268E-1,-2.814400549E0,2.193400519E0,3.595769350E0
1.050019325E1,-5.366320172E-1,-3.019348966E0,2.220849688E0,3.786372332E0
1.051013725E1,-6.533155444E-1,-3.123925248E0,2.272543460E0,3.917931078E0
1.052008125E1,-8.328610253E-1,-3.302958806E0,2.307327376E0,4.114237959E0
1.053002425E1,-9.678746966E-1,-3.389898131E0,2.134717863E0,4.121311821E0
1.053996825E1,-1.088905921E0,-3.429715331E0,2.007181611E0,4.120369083E0
1.054991125E1,-1.218272936E0,-3.630525089E0,1.892656583E0,4.271656624E0
1.055985525E1,-1.314632126E0,-3.964365435E0,1.812697371E0,4.553056411E0
1.056979825E1,-1.355040772E0,-4.221165791E0,1.747328131E0,4.765242042E0
1.057974225E1,-1.404234274E0,-4.325452636E0,1.712645079E0,4.859482233E0
1.058968525E1,-1.534081346E0,-4.400546672E0,1.660144684E0,4.947150388E0
1.059962925E1,-1.686330270E0,-4.472508355E0,1.606197395E0,5.042510371E0
1.060957225E1,-1.781761799E0,-4.515395343E0,1.518057051E0,5.086056176E0
1.061951625E1,-1.814557955E0,-4.543211718E0,1.340083594E0,5.072397591E0
1.062945925E1,-2.037904928E0,-4.611142330E0,1.210896381E0,5.184781590E0
1.063940325E1,-2.313062910E0,-4.747918060E0,9.599300846E-1,5.367909434E0
1.064934725E1,-2.653836007E0,-4.777999061E0,6.854407319E-1,5.508352710E0
1.065929025E1,-2.991571768E0,-4.813382317E0,4.135434499E-1,5.682355951E0
1.066923425E1,-3.246264203E0,-4.949842882E0,2.243486014E-1,5.923639770E0
1.067917725E1,-3.314478113E0,-4.988535077E0,8.111286789E-2,5.989810237E0
1.068912125E1,-3.415113372E0,-4.861630032E0,8.908817768E-2,5.941917419E0
1.069906425E1,-3.571853250E0,-4.689403219E0,4.374915987E-2,5.894959896E0
1.070900825E1,-3.797590857E0,-4.512789239E0,-1.051221201E-1,5.898984124E0
1.071895125E1,-4.120162157E0,-4.303342559E0,-2.389686871E-1,5.962516198E0
1.072889525E1,-4.360865420E0,-4.113124448E0,-3.177982172E-1,6.002993890E0
1.073883825E1,-4.482707361E0,-3.956232542E0,-2.830471914E-1,5.985528960E0
1.074878225E1,-4.360948743E0,-3.516812532E0,-3.694548592E-1,5.614476041E0
1.075872525E1,-4.022150543E0,-2.664132954E0,-3.117476647E-1,4.834509902E0
1.076866925E1,-3.572922706E0,-1.944293929E0,-3.816609219E-2,4.067863345E0
1.077861325E1,-3.239251345E0,-1.653666846E0,2.197721319E-1,3.643578337E0
1.078855625E1,-3.261718394E0,-1.306118873E0,3.553516674E-1,3.531434297E0
1.079850025E1,-3.622215026E0,-8.441455668E-1,2.209862331E-1,3.725836597E0
1.080844325E1,-4.105008513E0,-4.020691663E-1,-2.432043370E-1,4.131815927E0
1.081838725E1,-4.388039478E0,4.927039325E-2,-6.724625444E-1,4.439540957E0
1.082833025E1,-4.446157586E0,4.363145542E-1,-6.391147041E-1,4.512998479E0
1.083827425E1,-4.262788318E0,8.653762221E-1,-5.569660020E-1,4.385253856E0
1.084821725E1,-4.009796546E0,1.422726971E0,-2.501555800E-1,4.262065015E0
1.085816125E1,-3.800593110E0,2.019230091E0,8.079096953E-2,4.304454127E0
1.086810425E1,-3.608857939E0,2.486392801E0,4.744781613E-2,4.382722451E0
1.087804825E1,-3.569957290E0,2.906839766E0,-2.152395530E-1,4.608756941E0
1.088799125E1,-3.464784592E0,3.605042338E0,-5.403739429E-1,5.029221264E0
1.089793525E1,-2.991025053E0,4.547491879E0,-6.858468211E-1,5.486009399E0
1.090787925E1,-2.251580315E0,5.250756971E0,-4.404369874E-1,5.730100123E0
1.091782225E1,-1.625402575E0,5.451890080E0,7.992083989E-2,5.689589292E0
1.092776625E1,-1.446112910E0,5.230051396E0,5.253664792E-1,5.451668560E0
1.093770925E1,-1.694680386E0,4.935325999E0,2.720415621E-1,5.225264677E0
1.094765325E1,-2.152289330E0,5.005331204E0,-3.808193614E-1,5.461750013E0
1.095759625E1,-2.247810030E0,5.383284114E0,-1.072606369E0,5.931516012E0
1.096754025E1,-1.825225615E0,5.518167100E0,-9.284081836E-1,5.885877882E0
1.097748325E1,-1.397881275E0,5.207129141E0,-2.939893784E-1,5.399508839E0
1.098742725E1,-1.396487591E0,4.675506141E0,-1.402092147E-1,4.881617958E0
1.099737025E1,-1.777596243E0,4.466472275E0,-4.071571210E-1,4.824417053E0
1.100731425E1,-1.636377507E0,5.139620113E0,-9.131470969E-1,5.470581675E0
1.101725725E1,-4.606667456E-1,6.044542809E0,-7.654800510E-1,6.110210416E0
1.102720125E1,8.339655644E-1,6.431790453E0,-7.929146022E-2,6.486117030E0
1.103714525E1,1.645335733E0,6.390165879E0,1.645371401E-1,6.600638007E0
1.104708825E1,1.718261330E0,6.065063612E0,1.106228882E-1,6.304732828E0
1.105703225E1,1.163125068E0,5.465911703E0,-1.071211369E-1,5.589322464E0
1.106697525E1,3.603814423E-1,4.881918701E0,-4.448573363E-1,4.915374150E0
1.107691925E1,-3.096857902E-1,4.352374971E0,-6.073470739E-1,4.405444773E0
1.108686225E1,-4.675955500E-1,3.896626611E0,-6.090122147E-1,3.971553905E0
1.109680625E1,3.160522386E-2,3.847069119E0,-4.219422443E-1,3.870268073E0
1.110674925E1,8.861876321E-1,4.080222750E0,1.987936378E-2,4.175397155E0
1.111669246E1,1.410601307E0,4.001250840E0,4.607170317E-1,4.267559551E0
1.112663546E1,1.580445088E0,3.525473428E0,7.276275158E-1,3.931438842E0
1.113657946E1,1.442997513E0,2.974715999E0,5.626258144E-1,3.353762798E0
1.114652246E1,1.204635329E0,2.548934619E0,1.880556647E-1,2.825522766E0
1.115646646E1,1.199729515E0,2.345112376E0,3.101114675E-2,2.634362287E0
1.116640946E1,1.519860333E0,2.322803494E0,1.279072577E-1,2.778804018E0
1.117635346E1,1.963452185E0,2.413230684E0,5.687576433E-1,3.162643210E0
1.118629746E1,2.275118574E0,2.405874887E0,8.660252631E-1,3.422630312E0
1.119624046E1,2.383245139E0,2.235857736E0,1.037226913E0,3.428521092E0
1.120618446E1,2.499542604E0,2.064234356E0,1.134107529E0,3.434381544E0
1.121612746E1,2.680959194E0,2.044036903E0,1.252582643E0,3.596469427E0
1.122607146E1,2.981903982E0,2.215722265E0,1.469414210E0,3.995041255E0
1.123601446E1,3.204554552E0,2.345288962E0,1.630626478E0,4.292842054E0
1.124595846E1,3.294550509E0,2.268101622E0,1.825312446E0,4.396602501E0
1.125590146E1,3.350601919E0,2.220980666E0,1.981002164E0,4.481479433E0
1.126584546E1,3.484051752E0,2.340866713E0,2.196612979E0,4.737444687E0
1.127578846E1,3.649197003E0,2.438283665E0,2.445979770E0,5.024408724E0
1.128573246E1,3.666532243E0,2.508543223E0,2.829551854E0,5.267125543E0
1.129567546E1,3.551910444E0,2.548537009E0,3.048080429E0,5.329343580E0
1.130561946E1,3.344773999E0,2.417891500E0,3.090404915E0,5.155997959E0
1.131556346E1,3.141922978E0,2.196481417E0,3.032884101E0,4.888209957E0
1.132550646E1,2.988499641E0,1.850588790E0,2.865302900E0,4.534949799E0
1.133545046E1,2.833520359E0,1.648275129E0,2.882061020E0,4.364851000E0
1.134539346E1,2.532900969E0,1.860415621E0,3.112040198E0,4.422841597E0
1.135533746E1,2.401892495E0,1.933329815E0,3.248179750E0,4.478562651E0
1.136528046E1,2.347945206E0,1.482422365E0,3.534363534E0,4.494680006E0
1.137522446E1,2.355929725E0,1.206940155E0,3.636654725E0,4.498040351E0
1.138516746E1,2.487357591E0,1.007627285E0,3.638229965E0,4.520948773E0
1.139511146E1,2.450331706E0,6.752586830E-1,3.659765260E0,4.455780686E0
1.140505446E1,2.327172534E0,3.916652155E-1,3.697484479E0,4.386402297E0
1.141499846E1,2.273779123E0,3.060795200E-1,3.908393548E0,4.532030041E0
1.142494146E1,2.378389319E0,1.538285494E-1,4.024404645E0,4.677203408E0
1.143488546E1,2.391663668E0,-2.917912638E-1,4.200022259E0,4.842043393E0
1.144482846E1,2.264705121E0,-6.256076360E-1,4.269426370E0,4.873220262E0
1.145477246E1,2.112745049E0,-8.283399582E-1,4.029813319E0,4.624849632E0
1.146471646E1,1.888721115E0,-1.171969128E0,3.809411881E0,4.410487271E0
1.147465946E1,1.675024386E0,-1.607137043E0,3.684066288E0,4.354416216E0
1.148460346E1,1.638981418E0,-1.801557548E0,3.585476385E0,4.334456205E0
1.149454646E1,1.754217321E0,-1.953805010E0,3.420410657E0,4.312057686E0
1.150449046E1,1.754598267E0,-2.288990800E0,3.406021829E0,4.463079504E0
1.151443346E1,1.643977133E0,-2.515569237E0,3.555011515E0,4.654981877E0
1.152437746E1,1.350148114E0,-2.532858869E0,3.599287801E0,4.603601488E0
1.153432046E1,9.590532947E-1,-2.594521852E0,3.480250185E0,4.445612242E0
1.154426446E1,6.611475974E-1,-2.865787634E0,3.322084756E0,4.436902302E0
1.155420746E1,5.105269767E-1,-3.307937125E0,3.104165753E0,4.564967780E0
1.156415146E1,3.810963732E-1,-3.633993657E0,2.938847132E0,4.689132842E0
1.157409546E1,2.938496299E-1,-3.683233645E0,2.858257298E0,4.671422960E0
1.158403846E1,1.559200984E-1,-3.790453454E0,2.831154284E0,4.733633175E0
1.159398246E1,-5.626994893E-2,-3.990625280E0,2.833268929E0,4.894452907E0
1.160392546E1,-2.246590886E-1,-4.076602154E0,2.733373635E0,4.913297087E0
1.161386946E1,-3.044845457E-1,-4.017015519E0,2.654937915E0,4.824709302E0
1.162381246E1,-3.688850480E-1,-4.059363978E0,2.550768014E0,4.808422771E0
1.163375646E1,-4.282658619E-1,-4.189835240E0,2.460480572E0,4.877714181E0
1.164369946E1,-5.881547579E-1,-4.307730895E0,2.450235666E0,4.990603801E0
1.165364346E1,-7.798794043E-1,-4.316487100E0,2.316923827E0,4.960686322E0
1.166358646E1,-1.017712270E0,-4.437084169E0,2.019698453E0,4.980224496E0
1.167353046E1,-1.467683873E0,-4.792293164E0,1.864583516E0,5.347601463E0
1.168347346E1,-1.819331622E0,-5.046223122E0,1.598248690E0,5.597207717E0
1.169341746E1,-2.115881350E0,-5.111488574E0,1.218053081E0,5.664620255E0
1.170336146E1,-2.503460531E0,-5.146055558E0,1.019031986E0,5.812712674E0
1.171330446E1,-2.853873348E0,-5.152169992E0,7.819154048E-1,5.941451036E0
1.172324846E1,-3.182575745E0,-5.142891630E0,5.628719822E-1,6.074121135E0
1.173319146E1,-3.408544610E0,-5.104771877E0,3.970873386E-1,6.150979648E0
1.174313546E1,-3.472934733E0,-4.942369555E0,3.071179855E-1,6.048356301E0
1.175307846E1,-3.349146254E0,-4.623906217E0,1.101355228E-1,5.710465758E0
1.176302246E1,-3.275661372E0,-4.308898584E0,7.577260584E-2,5.413160437E0
1.177296546E1,-3.245289472E0,-4.105562829E0,3.474172881E-1,5.244830662E0
1.178290946E1,-3.193684578E0,-3.868580441E0,4.662499595E-1,5.038146964E0
1.179285246E1,-3.324735591E0,-3.636313248E0,4.288418126E-1,4.945760415E0
1.180279646E1,-3.796647994E0,-3.557051901E0,1.678280993E-1,5.205316559E0
1.181273946E1,-4.131220411E0,-3.707337622E0,-1.174927819E-1,5.552039164E0
1.182268346E1,-4.531807601E0,-3.788239113E0,-8.234399915E-2,5.907183444E0
1.183262646E1,-4.887908589E0,-3.517669734E0,-2.087970543E-1,6.025715471E0
1.184257046E1,-5.253013412E0,-3.120513983E0,-4.315876651E-1,6.125195942E0
1.185251446E1,-5.516938600E0,-2.481172407E0,-4.702285512E-1,6.067449457E0
1.186245746E1,-5.195568026E0,-1.625462217E0,-3.906805444E-1,5.457901229E0
1.187240146E1,-4.410367071E0,-1.161340059E0,-2.106656782E-1,4.565569895E0
1.188234446E1,-3.757257349E0,-1.146573501E0,4.691462316E-2,3.928589385E0
1.189228846E1,-3.802427090E0,-1.379083353E0,3.540993400E-1,4.060259722E0
1.190223146E1,-4.208731979E0,-1.042818167E0,-2.885237666E-1,4.345588633E0
1.191217546E1,-4.055054580E0,3.189317000E-1,-1.061653218E0,4.203842603E0
1.192211846E1,-3.546990012E0,1.609060192E0,-9.452632213E-1,4.007959007E0
1.193206246E1,-2.607377832E0,2.344871471E0,-2.775100426E-1,3.517648817E0
1.194200546E1,-1.864916515E0,2.735028105E0,3.129090679E-1,3.325087131E0
1.195194946E1,-1.773633293E0,3.139136780E0,4.122462451E-1,3.629035925E0
1.196189246E1,-1.997428747E0,3.067706024E0,5.042412199E-2,3.661022322E0
1.197183646E1,-2.738749565E0,2.827682499E0,-7.644005819E-1,4.010092985E0
1.198178046E1,-3.152832128E0,3.373629423E0,-1.761791219E0,4.942229681E0
1.199172346E1,-3.016758649E0,4.248178757E0,-1.895199537E0,5.544333755E0
1.200166746E1,-2.715184117E0,4.493325613E0,-1.117575404E0,5.367604180E0
1.201161046E1,-2.421834716E0,4.058531334E0,-3.533099659E-1,4.739386871E0
1.202155446E1,-2.468602647E0,3.879002518E0,-3.276776728E-1,4.609558788E0
1.203149746E1,-2.333829589E0,5.018803189E0,-1.029860737E0,5.629898679E0
1.204144146E1,-1.439411855E0,6.548901411E0,-1.309407493E0,6.831878524E0
1.205138446E1,-3.995813222E-1,7.239324848E0,-7.149567457E-1,7.285509772E0
1.206132846E1,2.079274271E-1,7.163771220E0,-1.906778486E-1,7.169324233E0
1.207127146E1,6.310461313E-3,6.647074993E0,-1.680954632E-1,6.649203100E0
1.208121546E1,-8.723507810E-1,5.996065882E0,-7.274158466E-1,6.102699056E0
1.209115846E1,-1.686630963E0,5.431808987E0,-1.249007509E0,5.823168608E0
1.210110246E1,-1.881704310E0,5.366604931E0,-1.515163557E0,5.885319040E0
1.211104646E1,-1.419119824E0,5.507715787E0,-1.159997538E0,5.804690220E0
1.212099350E1,-7.458041704E-1,5.240067676E0,-5.428356206E-1,5.320639400E0
1.213093750E1,-4.898874018E-1,4.577789227E0,-2.670787378E-1,4.611667261E0
1.214088050E1,-7.410647828E-1,3.885136832E0,-3.380311914E-1,3.969600774E0
1.215082450E1,-1.037266236E0,3.551718655E0,-6.718497562E-1,3.760586224E0
1.216076750E1,-7.959800050E-1,3.756809160E0,-6.412425059E-1,3.893377863E0
1.217071150E1,-2.995594360E-2,4.082375695E0,-7.387737706E-2,4.083153994E0
1.218065450E1,7.874663859E-1,4.108205186E0,4.295357309E-1,4.204991569E0
1.219059850E1,1.176141628E0,3.788044401E0,4.674284658E-1,3.993880179E0
1.220054150E1,1.084989017E0,3.319487130E0,2.208689234E-1,3.499282649E0
1.221048550E1,7.843463847E-1,2.926419168E0,-3.493185103E-2,3.029909013E0
1.222042850E1,6.579675892E-1,2.815686936E0,-4.699114859E-2,2.891923657E0
1.223037250E1,8.764680248E-1,2.865554330E0,1.636667821E-1,3.001063917E0
1.224031650E1,1.227694847E0,2.961607711E0,5.987542981E-1,3.261420179E0
1.225025950E1,1.566373471E0,3.036284257E0,8.505441749E-1,3.520791577E0
1.226020350E1,1.796589754E0,2.997406704E0,9.948914641E-1,3.633454378E0
1.227014650E1,1.896220169E0,2.760413207E0,1.088771289E0,3.521498959E0
1.228009050E1,1.922953346E0,2.758987071E0,9.931634657E-1,3.506584221E0
1.229003350E1,1.944791820E0,2.897574268E0,9.524979812E-1,3.617375328E0
1.229997750E1,2.042457863E0,2.915698882E0,1.307793954E0,3.792526746E0
1.230992050E1,2.206972784E0,2.952053946E0,1.565709374E0,4.004597009E0
1.231986450E1,2.434786153E0,3.092935590E0,1.783666238E0,4.321562150E0
1.232980750E1,2.609013883E0,3.068143981E0,2.071042269E0,4.528761090E0
1.233975150E1,2.643408667E0,2.884560120E0,2.318400541E0,4.547887151E0
1.234969450E1,2.680087082E0,2.741471152E0,2.560025033E0,4.610017247E0
1.235963850E1,2.890482180E0,2.708253704E0,2.588583419E0,4.731837854E0
1.236958150E1,3.032807502E0,2.535532216E0,2.662163612E0,4.765916497E0
1.237952550E1,3.142802984E0,2.229669043E0,2.757924632E0,4.738647794E0
1.238946950E1,3.240953469E0,1.810145938E0,2.837825664E0,4.672650448E0
1.239941250E1,3.124109728E0,1.656302771E0,2.858669819E0,4.547020298E0
1.240935650E1,2.967854584E0,1.826692389E0,2.890571058E0,4.527733093E0
1.241929950E1,3.039591734E0,1.806771510E0,3.187394435E0,4.760569765E0
1.242924350E1,3.312740028E0,1.502864231E0,3.426970063E0,4.997696590E0
1.243918650E1,3.462151591E0,1.091207385E0,3.622138427E0,5.128071176E0
1.244913050E1,3.402568463E0,7.063682091E-1,3.591238232E0,4.997341316E0
1.245907350E1,3.204398723E0,5.021191192E-1,3.263258550E0,4.600994583E0
1.246901750E1,2.905401351E0,5.427104902E-1,3.183201982E0,4.343807839E0
1.247896050E1,2.797508235E0,5.795362544E-1,3.160989579E0,4.260724083E0
1.248890450E1,2.770814526E0,4.758271140E-1,3.397714105E0,4.410021057E0
1.249884750E1,2.837364904E0,3.684973776E-1,3.543226744E0,4.554216252E0
1.250879150E1,2.852354826E0,2.472109222E-1,3.543276738E0,4.555419995E0
1.251873550E1,2.705697594E0,1.435479748E-1,3.653114637E0,4.548258133E0
1.252867850E1,2.518264219E0,1.917945206E-1,3.692843836E0,4.473872530E0
1.253862250E1,2.316100100E0,1.734944898E-1,3.615772856E0,4.297468250E0
1.254856550E1,2.193005101E0,-5.464807749E-3,3.695372172E0,4.297100968E0
1.255850950E1,2.200007873E0,-3.167524427E-1,3.759819306E0,4.367677640E0
1.256845250E1,2.367194971E0,-6.567300260E-1,3.847111219E0,4.564555958E0
1.257839650E1,2.373508356E0,-8.902970552E-1,3.870376998E0,4.626660660E0
1.258833950E1,2.055302003E0,-7.952967578E-1,3.893785156E0,4.474184406E0
1.259828350E1,1.805636858E0,-6.771625364E-1,3.889123464E0,4.340985473E0
1.260822650E1,1.623672530E0,-9.615132183E-1,4.002034660E0,4.424601855E0
1.261817050E1,1.435340000E0,-1.439607298E0,4.012471647E0,4.498066119E0
1.262811350E1,1.260630897E0,-1.860765869E0,3.615385186E0,4.257070580E0
1.263805750E1,9.822401360E-1,-2.226781104E0,3.228821958E0,4.043345274E0
1.264800150E1,7.935278289E-1,-2.496285120E0,3.045732188E0,4.017164470E0
1.265794450E1,6.485545953E-1,-2.532975229E0,3.094610233E0,4.051320657E0
1.266788850E1,5.126373830E-1,-2.362016092E0,3.218875260E0,4.025304342E0
1.267783150E1,4.023789226E-1,-2.288315447E0,3.178895507E0,3.937470385E0
1.268777550E1,2.073988388E-1,-2.405070895E0,3.120765998E0,3.945448099E0
1.269771850E1,5.805700421E-2,-2.668899019E0,2.853373411E0,3.907445766E0
1.270766250E1,-2.813840970E-2,-2.978516690E0,2.533697360E0,3.910495589E0
1.271760550E1,-1.480722579E-1,-3.094074043E0,2.400062170E0,3.918611744E0
1.272754950E1,-2.571418333E-1,-3.139178295E0,2.286550173E0,3.892155442E0
1.273749250E1,-4.516838144E-1,-3.339989807E0,2.172760140E0,4.010041995E0
1.274743650E1,-7.872521585E-1,-3.638560917E0,2.156552535E0,4.302279669E0
1.275737950E1,-9.910871194E-1,-3.739433573E0,1.973803073E0,4.342984653E0
1.276732350E1,-1.164634380E0,-3.728018054E0,1.776123037E0,4.290583282E0
1.277726750E1,-1.358316090E0,-3.785672185E0,1.816215348E0,4.413045965E0
1.278721050E1,-1.272619151E0,-3.834937901E0,1.736331273E0,4.397857944E0
1.279715450E1,-1.085527838E0,-3.780734797E0,1.743896400E0,4.302731800E0
1.280709750E1,-9.900910462E-1,-3.778933269E0,1.690544943E0,4.256590083E0
1.281704150E1,-1.098592711E0,-3.884811727E0,1.723513591E0,4.389665955E0
1.282698450E1,-1.335157023E0,-4.033056185E0,1.648512526E0,4.556948542E0
1.283692850E1,-1.637151970E0,-4.099409804E0,1.437319282E0,4.642339284E0
1.284687150E1,-1.886616702E0,-4.134822296E0,1.189191517E0,4.697898941E0
1.285681550E1,-2.114811455E0,-4.132048377E0,9.893576592E-1,4.746059403E0
1.286675850E1,-2.262541067E0,-4.215071822E0,8.915992302E-1,4.866299593E0
1.287670250E1,-2.307396373E0,-4.167443912E0,7.231064487E-1,4.818147955E0
1.288664550E1,-2.307530275E0,-3.953525866E0,6.423949921E-1,4.622524642E0
1.289658950E1,-2.429271351E0,-3.769562522E0,6.605213606E-1,4.532907386E0
1.290653350E1,-2.476663034E0,-3.621689946E0,5.874545538E-1,4.426691846E0
1.291647650E1,-2.617846979E0,-3.507834132E0,4.710239187E-1,4.402259265E0
1.292642050E1,-2.756377459E0,-3.277455005E0,3.233419624E-1,4.294633632E0
1.293636350E1,-2.975242833E0,-3.093613282E0,4.883310923E-1,4.319835682E0
1.294630750E1,-3.182543001E0,-3.156093121E0,6.811740187E-1,4.533597002E0
1.295625050E1,-3.407578942E0,-3.268093028E0,7.210587537E-1,4.776185927E0
1.296619450E1,-3.732489420E0,-3.162399927E0,6.191385689E-1,4.931083364E0
1.297613750E1,-4.190766701E0,-2.886122496E0,2.548073325E-1,5.094816521E0
1.298608150E1,-4.660052535E0,-2.629256651E0,-1.628978732E-1,5.353094048E0
1.299602450E1,-5.107795472E0,-2.342951245E0,-2.681793299E-1,5.625914617E0
1.300596850E1,-5.072102898E0,-2.059606869E0,-4.153312361E-1,5.490055401E0
1.301591150E1,-4.917531168E0,-1.959888453E0,-3.175925414E-1,5.303219829E0
1.302585550E1,-4.943270026E0,-1.858479023E0,2.325803116E-2,5.281136598E0
1.303579950E1,-4.871510657E0,-1.462860505E0,1.023216692E-1,5.087440089E0
1.304574250E1,-4.556196045E0,-5.432589591E-1,-7.540335417E-2,4.589089056E0
1.305568650E1,-4.064634658E0,6.281979525E-1,-3.177539977E-1,4.125149109E0
1.306562950E1,-3.564260933E0,1.468131770E0,-1.651043200E-1,3.858319106E0
1.307557350E1,-3.330937440E0,1.765819951E0,1.559896437E-1,3.773274055E0
1.308551650E1,-3.400245949E0,1.714497185E0,1.466692185E-1,3.810864071E0
1.309546050E1,-3.681155545E0,1.780013482E0,-1.832967621E-1,4.093036995E0
1.310540350E1,-3.946015702E0,2.243351528E0,-6.888131136E-1,4.591092409E0
1.311534396E1,-3.726945675E0,3.008177276E0,-1.090631434E0,4.912100519E0
1.312528696E1,-3.118702223E0,3.677940161E0,-9.533347178E-1,4.915525858E0
1.313523096E1,-2.767217904E0,3.825320985E0,-5.437758529E-1,4.752501210E0
1.314517396E1,-2.875843676E0,3.548226113E0,-4.109235319E-1,4.585765318E0
1.315511796E1,-3.163755897E0,3.340294447E0,-7.244295274E-1,4.657436688E0
1.316506196E1,-3.393515804E0,3.366222171E0,-1.074738117E0,4.899230882E0
1.317500496E1,-3.325274119E0,3.566986320E0,-1.207622087E0,5.023862108E0
1.318494896E1,-2.779790002E0,4.027377954E0,-1.243038672E0,5.048975221E0
1.319489196E1,-2.080577616E0,4.360233044E0,-9.268713892E-1,4.919301372E0
1.320483596E1,-1.680454988E0,4.192664123E0,-6.185301661E-1,4.559050447E0
1.321477896E1,-1.716949507E0,3.584110476E0,-4.697237903E-1,4.001800089E0
1.322472296E1,-2.020673476E0,2.983703170E0,-5.170061302E-1,3.640453439E0
1.323466596E1,-2.168318303E0,2.918636523E0,-7.458684897E-1,3.711652357E0
1.324460996E1,-1.885307218E0,3.401972047E0,-7.183971012E-1,3.955235961E0
1.325455296E1,-1.425734486E0,3.903422245E0,-4.705511713E-1,4.182205453E0
1.326449696E1,-8.018769220E-1,4.187520327E0,-3.218284106E-1,4.275734628E0
1.327443996E1,-3.669736298E-1,4.176099545E0,-6.181632534E-2,4.192648127E0
1.328438396E1,-2.839323136E-1,3.958131133E0,1.197942460E-1,3.970109607E0
1.329432796E1,-3.958167386E-1,3.776877388E0,9.625627935E-2,3.798781248E0
1.330427096E1,-3.382942064E-1,3.748856946E0,2.413116664E-2,3.764167064E0
1.331421496E1,1.088783349E-1,4.099630828E0,2.568971273E-1,4.109114692E0
1.332415796E1,8.922362843E-1,4.767315613E0,6.793616742E-1,4.897439742E0
1.333410196E1,1.697556924E0,5.271499969E0,1.118883426E0,5.649983323E0
1.334404496E1,2.310945341E0,5.328507398E0,1.436410625E0,5.983037267E0
1.335398896E1,2.583625565E0,5.004015580E0,1.521415984E0,5.833523771E0
1.336393196E1,2.547728046E0,4.602808294E0,1.500419802E0,5.470650964E0
1.337387596E1,2.331225531E0,4.224566531E0,1.341559432E0,5.008129048E0
1.338381896E1,2.156313677E0,3.994068705E0,1.159309613E0,4.684684864E0
1.339376296E1,2.282938055E0,3.898942693E0,1.138188593E0,4.659295393E0
1.340370596E1,2.491639800E0,3.764845573E0,1.294054897E0,4.696478378E0
1.341364996E1,2.656631269E0,3.551441497E0,1.541218896E0,4.695293611E0
1.342359396E1,2.667567608E0,3.217067885E0,1.560480209E0,4.461002265E0
1.343353696E1,2.515368386E0,2.788658182E0,1.564447691E0,4.068315272E0
1.344348096E1,2.419428733E0,2.530645114E0,1.518483606E0,3.816227528E0
1.345342396E1,2.382543035E0,2.342736068E0,1.565228294E0,3.689832409E0
1.346336796E1,2.423089090E0,2.132642686E0,1.777437783E0,3.684943777E0
1.347331096E1,2.509094616E0,1.942176653E0,1.888277019E0,3.692315810E0
1.348325496E1,2.590842783E0,1.784351531E0,2.016728067E0,3.736785893E0
1.349319796E1,2.695924850E0,1.714042856E0,2.134541569E0,3.842163638E0
1.350314196E1,2.651434263E0,1.722683871E0,2.360434859E0,3.945807407E0
1.351308496E1,2.692601000E0,1.903755183E0,2.463193973E0,4.116030672E0
1.352302896E1,2.832699995E0,1.904723482E0,2.612786799E0,4.298699299E0
1.353297196E1,3.062235369E0,1.794932653E0,2.753559685E0,4.492344558E0
1.354291596E1,3.317177480E0,1.695772646E0,2.795311729E0,4.657582953E0
1.355285896E1,3.366874720E0,1.574459878E0,2.993660978E0,4.772502000E0
1.356280296E1,3.281695406E0,1.594136344E0,3.265193979E0,4.896150236E0
1.357274696E1,3.221055979E0,1.674559532E0,3.427323235E0,4.992584081E0
1.358268996E1,3.189939436E0,1.512590489E0,3.501524402E0,4.972355250E0
1.359263396E1,2.990620718E0,1.298881189E0,3.514554337E0,4.794058491E0
1.360257696E1,2.965471844E0,1.211898594E0,3.463739694E0,4.718073137E0
1.361252096E1,3.004389449E0,1.171339967E0,3.564490728E0,4.806660736E0
1.362246396E1,2.958340580E0,1.075980066E0,3.806661351E0,4.939654110E0
1.363240796E1,2.775342318E0,9.249991107E-1,3.838491254E0,4.826195545E0
1.364235096E1,2.633896417E0,7.262300313E-1,3.807048436E0,4.685983162E0
1.365229496E1,2.429302926E0,5.471993977E-1,3.815848496E0,4.556494226E0
1.366223796E1,2.333938493E0,3.354588550E-1,3.640960615E0,4.337786962E0
1.367218196E1,2.286006966E0,7.184941649E-2,3.679920613E0,4.332759618E0
1.368212496E1,2.207982013E0,-1.256262589E-1,3.702656926E0,4.312845330E0
1.369206896E1,2.145971121E0,-1.991339457E-1,3.596752156E0,4.193026646E0
1.370201296E1,2.104605433E0,-2.602525520E-1,3.575253991E0,4.156866189E0
1.371195596E1,1.970892621E0,-3.152087778E-1,3.676091856E0,4.182992425E0
1.372189996E1,1.823590734E0,-4.054558736E-1,3.658373623E0,4.107745756E0
1.373184296E1,1.739530284E0,-6.111942494E-1,3.634357939E0,4.075301418E0
1.374178696E1,1.597548048E0,-9.508286011E-1,3.663811241E0,4.108497001E0
1.375172996E1,1.353929655E0,-1.271067154E0,3.578347752E0,4.031539390E0
1.376167396E1,1.090181345E0,-1.462826591E0,3.504221430E0,3.950686628E0
1.377161696E1,9.856152950E-1,-1.612545133E0,3.393862836E0,3.884590617E0
1.378156096E1,8.945776556E-1,-1.856522545E0,3.351824864E0,3.934675979E0
1.379150396E1,7.798821817E-1,-2.120287519E0,3.191423459E0,3.910117527E0
1.380144796E1,6.694252083E-1,-2.335268589E0,3.158488725E0,3.984678220E0
1.381139196E1,5.170881374E-1,-2.275590736E0,3.131333963E0,3.905245924E0
1.382133496E1,2.768438803E-1,-2.295818009E0,2.998980483E0,3.786991788E0
1.383127896E1,3.878721267E-2,-2.535614077E0,2.749502302E0,3.740401865E0
1.384122196E1,-3.275693531E-1,-2.972144394E0,2.644934498E0,3.992069949E0
1.385116596E1,-6.757369852E-1,-3.439614667E0,2.604595435E0,4.367091356E0
1.386110896E1,-7.575081034E-1,-3.650575776E0,2.175990434E0,4.316880401E0
1.387105296E1,-8.115651736E-1,-3.811255508E0,1.859464864E0,4.317628534E0
1.388099596E1,-8.837471505E-1,-3.932206918E0,1.848801296E0,4.434109438E0
1.389093996E1,-9.323734729E-1,-4.005098893E0,1.881944484E0,4.522372439E0
1.390088296E1,-9.663034035E-1,-4.101238813E0,1.762599304E0,4.567346973E0
1.391082696E1,-1.133570462E0,-4.286003811E0,1.649457436E0,4.730276999E0
1.392076996E1,-1.375956555E0,-4.448341228E0,1.433295228E0,4.871891967E0
1.393071396E1,-1.669846092E0,-4.444558665E0,1.151324363E0,4.885492348E0
1.394065696E1,-1.910567920E0,-4.428867077E0,9.816402116E-1,4.922270905E0
1.395060096E1,-1.976473496E0,-4.459870183E0,9.777409959E-1,4.975225320E0
1.396054496E1,-1.874219289E0,-4.433992161E0,1.057062277E0,4.928525650E0
1.397048796E1,-1.861451894E0,-4.326454849E0,1.202017092E0,4.860870272E0
1.398043196E1,-1.958588764E0,-4.174448876E0,1.226879453E0,4.771511978E0
1.399037496E1,-2.213868113E0,-4.098842039E0,1.156497103E0,4.799917044E0
1.400031896E1,-2.520602521E0,-4.035346540E0,9.954697537E-1,4.860907199E0
1.401026196E1,-2.667527555E0,-3.930118877E0,6.958142772E-1,4.800593209E0
1.402020596E1,-2.786718953E0,-3.913196450E0,5.122234002E-1,4.831281589E0
1.403014896E1,-2.829567934E0,-3.871333895E0,4.055850971E-1,4.812294680E0
1.404009296E1,-2.813437220E0,-3.729327831E0,3.593239734E-1,4.685341906E0
1.405003596E1,-2.776650048E0,-3.478303354E0,3.944417658E-1,4.468105193E0
1.405997996E1,-2.800324547E0,-3.166750841E0,5.960198477E-1,4.269117955E0
1.406992296E1,-2.786448227E0,-2.965313677E0,6.034294394E-1,4.113575818E0
1.407986696E1,-2.764517075E0,-2.850353909E0,4.824128330E-1,3.999974275E0
1.408981096E1,-2.748451850E0,-2.813456224E0,4.841519411E-1,3.962818012E0
1.409975396E1,-2.895513124E0,-2.572815818E0,2.027650666E-1,3.878722877E0
1.410969796E1,-3.148164004E0,-2.160076652E0,-2.436230707E-1,3.825731295E0
1.411964196E1,-3.423854375E0,-1.923123500E0,-4.071568286E-1,3.948032353E0
1.412958596E1,-3.454579446E0,-1.690249366E0,-2.883073466E-1,3.856706263E0
1.413952896E1,-3.259169300E0,-1.329474406E0,-1.788078547E-2,3.519944097E0
1.414947296E1,-3.193122368E0,-1.081892771E0,7.311263435E-2,3.372220023E0
1.415941596E1,-3.300902047E0,-9.666710472E-1,2.495474696E-2,3.439626430E0
1.416935996E1,-3.475293792E0,-7.003654575E-1,-1.663709000E-1,3.549064383E0
1.417930296E1,-3.518573129E0,-2.489808744E-1,-5.128194873E-1,3.564453978E0
1.418924696E1,-3.637092097E0,1.314378065E-1,-6.650529528E-1,3.699731105E0
1.419918996E1,-3.821106020E0,3.658503431E-1,-8.405091834E-1,3.929523301E0
1.420913396E1,-3.723853960E0,6.001441813E-1,-7.498118520E-1,3.845709189E0
1.421907796E1,-3.568112494E0,9.933384436E-1,-6.927734327E-1,3.768034376E0
1.422902096E1,-3.386804370E0,1.522115604E0,-7.059051096E-1,3.779627200E0
1.423896496E1,-3.304498085E0,1.969673184E0,-6.520581007E-1,3.901858508E0
1.424890796E1,-3.241194082E0,2.247555091E0,-6.851626968E-1,4.003285012E0
1.425885196E1,-3.136925071E0,2.433635713E0,-7.943997949E-1,4.048944642E0
1.426879496E1,-2.975328788E0,2.461631012E0,-9.477851254E-1,3.976242608E0
1.427873896E1,-2.741163296E0,2.705893183E0,-1.171038251E0,4.025812305E0
1.428868196E1,-2.406321907E0,3.506296899E0,-1.235740031E0,4.428493704E0
1.429862596E1,-1.911538704E0,4.100575739E0,-9.401457381E-1,4.620884722E0
1.430856896E1,-1.521156660E0,4.008159910E0,-5.101286352E-1,4.317348107E0
1.431851296E1,-1.593272710E0,3.690472498E0,-2.407596892E-1,4.026918228E0
1.432845596E1,-1.841546510E0,3.401502516E0,-3.949538358E-1,3.888123126E0
1.433839996E1,-2.090352991E0,3.536831059E0,-7.791540572E-1,4.181606224E0
1.434834396E1,-1.946085078E0,4.294234352E0,-1.191589898E0,4.862877983E0
1.435828696E1,-1.322119340E0,4.767612067E0,-9.524086650E-1,5.038373412E0
1.436823096E1,-7.832175066E-1,4.705654970E0,-3.409596232E-1,4.782559129E0
1.437817396E1,-5.261153613E-1,4.355275775E0,-8.582572371E-2,4.387777399E0
1.438811796E1,-7.870461904E-1,3.694952635E0,7.959843904E-2,3.778683976E0
1.439806096E1,-1.380251042E0,3.064176060E0,-2.498807609E-2,3.360787448E0
1.440800496E1,-1.868186863E0,2.728071088E0,-3.086195505E-1,3.320804126E0
1.441794796E1,-1.973206072E0,2.666877637E0,-4.864976978E-1,3.352977564E0
1.442789196E1,-1.603800914E0,2.916889375E0,-4.602906235E-1,3.360400044E0
1.443783496E1,-8.807260403E-1,3.200236090E0,-2.785286093E-1,3.330880901E0
1.444777896E1,-1.301473625E-1,3.320676454E0,-1.898854047E-2,3.323280158E0
1.445772196E1,4.141439590E-1,3.175891793E0,1.256981796E-1,3.205246314E0
1.446766596E1,7.022570318E-1,3.108061752E0,1.980304299E-1,3.192558354E0
1.447760996E1,7.708925262E-1,3.285821786E0,-1.468820572E-2,3.375072716E0
1.448755296E1,7.686264378E-1,3.412140355E0,-2.064891583E-1,3.503730323E0
1.449749696E1,9.859510714E-1,3.397103655E0,-1.041967982E-1,3.538823213E0
1.450743996E1,1.212261121E0,3.287653134E0,1.912787962E-1,3.509248884E0
1.451738396E1,1.335253794E0,3.245296488E0,4.426824644E-1,3.537063720E0
1.452732696E1,1.358598510E0,2.964383385E0,5.488926052E-1,3.306757000E0
1.453727096E1,1.248014214E0,2.430344900E0,5.994258508E-1,2.797038999E0
1.454721396E1,1.220931373E0,2.109377199E0,4.704235558E-1,2.482225596E0
1.455715796E1,1.337077248E0,1.992735772E0,2.576248133E-1,2.413533089E0
1.456710096E1,1.552025574E0,1.906377659E0,1.617895335E-1,2.463581745E0
1.457704496E1,1.770249217E0,1.723555107E0,4.998941074E-1,2.520777383E0
1.458698796E1,1.792171013E0,1.676242946E0,7.901463841E-1,2.577983448E0
1.459693196E1,1.784408542E0,1.774252805E0,9.686887752E-1,2.696376235E0
1.460687596E1,1.735194282E0,1.832747181E0,1.096494437E0,2.751756071E0
1.461681896E1,1.787754318E0,1.861644121E0,9.479136179E-1,2.749604437E0
1.462676296E1,1.876241987E0,1.770450945E0,8.485245466E-1,2.715653595E0
1.463670596E1,2.050515618E0,1.677594822E0,8.551482725E-1,2.783921201E0
1.464664996E1,2.150919328E0,1.753723816E0,1.079940824E0,2.977964634E0
1.465659296E1,2.288641137E0,1.908815948E0,1.423781662E0,3.302818615E0
1.466653696E1,2.302739651E0,2.028799644E0,1.686668385E0,3.501926347E0
1.467647996E1,2.239055286E0,2.093116093E0,1.748882321E0,3.528894009E0
1.468642396E1,2.231440457E0,2.130455242E0,1.750307872E0,3.547075373E0
1.469636696E1,2.234619589E0,2.201284904E0,1.867083201E0,3.650367052E0
1.470631096E1,2.268662955E0,2.330243492E0,1.954173970E0,3.794161599E0
1.471625496E1,2.475557910E0,2.438756704E0,2.044302952E0,4.031760879E0
1.472619796E1,2.763920074E0,2.518523836E0,2.259810855E0,4.369091621E0
1.473614196E1,2.937762181E0,2.545711049E0,2.483359265E0,4.612826099E0
1.474608496E1,2.995613071E0,2.516814694E0,2.518718548E0,4.653170640E0
1.475602896E1,2.923140049E0,2.443335659E0,2.459229560E0,4.534583434E0
1.476597196E1,2.756471599E0,2.293214829E0,2.498167339E0,4.370104115E0
1.477591596E1,2.608688193E0,2.071631668E0,2.536544369E0,4.187000023E0
1.478585896E1,2.522326280E0,1.930356506E0,2.706416509E0,4.172900241E0
1.479580296E1,2.393169765E0,1.738429254E0,2.960872132E0,4.185231364E0
1.480574596E1,2.365571784E0,1.527489195E0,2.903429085E0,4.044632685E0
1.481568996E1,2.393965278E0,1.312154953E0,2.877842839E0,3.966711457E0
1.482563296E1,2.246731511E0,1.130179662E0,2.834921937E0,3.789708556E0
1.483557696E1,2.206364381E0,1.005790089E0,2.857781042E0,3.747875394E0
1.484552096E1,2.107171630E0,9.437657493E-1,3.046455488E0,3.822532813E0
1.485546396E1,1.972426053E0,8.267541933E-1,3.208267826E0,3.855770931E0
1.486540796E1,1.978147261E0,5.807056975E-1,3.208404651E0,3.813678814E0
1.487535096E1,1.901806599E0,4.396731949E-1,3.261880946E0,3.801321897E0
1.488529496E1,1.888221470E0,2.949405742E-1,3.283792802E0,3.799429619E0
1.489523796E1,1.861243587E0,7.295687914E-2,3.271126564E0,3.764282055E0
1.490518196E1,1.872392619E0,-1.195042241E-1,3.293988884E0,3.790843989E0
1.491512496E1,1.796163492E0,-1.797352231E-1,3.316391029E0,3.775838648E0
1.492506896E1,1.712699604E0,-3.071729493E-1,3.317853126E0,3.746444250E0
1.493501196E1,1.546211687E0,-5.256594247E-1,3.351916373E0,3.728596490E0
1.494495596E1,1.389277974E0,-7.981057602E-1,3.359932905E0,3.722393749E0
1.495489896E1,1.251663607E0,-1.061718707E0,3.397349531E0,3.773048135E0
1.496484296E1,1.107568333E0,-1.239972246E0,3.286230799E0,3.682872743E0
1.497478696E1,9.930818971E-1,-1.347900152E0,3.200368530E0,3.611842356E0
1.498472996E1,8.056431136E-1,-1.532027804E0,3.299470357E0,3.725946142E0
1.499467396E1,7.824401924E-1,-1.683125119E0,3.238445306E0,3.732646624E0
1.500461696E1,6.907011795E-1,-1.942363179E0,3.229414866E0,3.831313510E0
1.501456096E1,4.907334208E-1,-2.370337849E0,3.167408652E0,3.986451854E0
1.502450396E1,1.367096561E-1,-2.851808696E0,3.052403276E0,4.179553580E0
1.503444796E1,-2.891667411E-1,-3.243617753E0,2.886551097E0,4.351649201E0
1.504439096E1,-6.254170167E-1,-3.457267996E0,2.661665429E0,4.407755812E0
1.505433496E1,-8.677801587E-1,-3.582473255E0,2.458693078E0,4.430838373E0
1.506427796E1,-1.017043056E0,-3.665103768E0,2.351425615E0,4.471751853E0
1.507422196E1,-9.468808535E-1,-3.669635945E0,2.215388973E0,4.389847335E0
1.508416496E1,-9.660464184E-1,-3.708186638E0,2.112184155E0,4.375524623E0
1.509410896E1,-1.047351952E0,-3.759181375E0,2.004832784E0,4.387225229E0
1.510405296E1,-1.146616624E0,-3.719979302E0,1.792868878E0,4.285715168E0
1.511399596E1,-1.221673969E0,-3.608743041E0,1.606001514E0,4.134580328E0
1.512393950E1,-1.258389075E0,-3.495774250E0,1.536363222E0,4.020496564E0
1.513388250E1,-1.203953690E0,-3.388937434E0,1.461527340E0,3.882069497E0
1.514382650E1,-1.169641643E0,-3.316997386E0,1.389560979E0,3.781720897E0
1.515376950E1,-1.239052479E0,-3.267625836E0,1.309119079E0,3.731812215E0
1.516371350E1,-1.315436119E0,-3.190846632E0,1.173360180E0,3.645359862E0
1.517365650E1,-1.358458177E0,-3.092689422E0,1.007371761E0,3.524902034E0
1.518360050E1,-1.426336603E0,-2.960668064E0,9.038067546E-1,3.408351235E0
1.519354350E1,-1.483096841E0,-2.872395573E0,7.039509702E-1,3.308440650E0
1.520348750E1,-1.545388691E0,-2.832766653E0,4.611766228E-1,3.259674370E0
1.521343150E1,-1.612931634E0,-2.798416600E0,2.789399609E-1,3.241988807E0
1.522337450E1,-1.674723839E0,-2.716167326E0,1.070481929E-1,3.192761218E0
1.523331850E1,-1.760031792E0,-2.662850075E0,1.072882211E-1,3.193742819E0
1.524326150E1,-1.869812096E0,-2.700786225E0,1.364409766E-1,3.287713438E0
1.525320550E1,-1.936009594E0,-2.710014886E0,2.262805215E-1,3.338190633E0
1.526314850E1,-1.938901919E0,-2.694802185E0,2.321020094E-1,3.327937922E0
1.527309250E1,-1.920974064E0,-2.770803709E0,2.501810154E-1,3.380840885E0
1.528303550E1,-1.923713484E0,-2.944732062E0,3.386438334E-1,3.533666670E0
1.529297950E1,-2.270369465E0,-3.083290608E0,4.087016630E-1,3.850752593E0
1.530292250E1,-2.751888551E0,-3.298972759E0,2.751071110E-1,4.304857231E0
1.531286650E1,-3.304068315E0,-3.511498582E0,1.102793643E-1,4.822826066E0
1.532280950E1,-3.775965807E0,-3.625973032E0,-8.698318005E-2,5.235758233E0
1.533275350E1,-4.171694838E0,-3.720218453E0,-1.305195013E-1,5.591073108E0
1.534269750E1,-4.425975044E0,-3.622871084E0,-2.114258163E-1,5.723561029E0
1.535264050E1,-4.480794737E0,-3.322065752E0,-3.485060397E-1,5.588836981E0
1.536258450E1,-4.385957577E0,-2.849741705E0,-3.884410608E-1,5.244858255E0
1.537252750E1,-3.969995719E0,-1.938745506E0,-3.951631661E-1,4.435736024E0
1.538247150E1,-3.314719603E0,-1.030646603E0,-2.857838345E-1,3.482997397E0
1.539241450E1,-2.791937885E0,-4.017434764E-1,-1.203403759E-1,2.823259957E0
1.540235850E1,-2.512428990E0,2.115405679E-2,1.359663288E-1,2.516194303E0
1.541230150E1,-2.487603174E0,2.791788197E-1,2.782317169E-1,2.518635197E0
1.542224550E1,-2.744883879E0,5.239245558E-1,-6.822772421E-2,2.795270912E0
1.543218850E1,-3.230403045E0,5.526203513E-1,-3.559832398E-1,3.296606916E0
1.544213250E1,-3.703032902E0,5.850221121E-1,-7.203793073E-1,3.817545008E0
1.545207650E1,-3.994871528E0,1.109931924E0,-1.339770184E0,4.357284882E0
1.546201950E1,-3.735373267E0,1.826076677E0,-1.387707996E0,4.383298183E0
1.547196350E1,-3.282970684E0,2.371368713E0,-9.943184370E-1,4.170126525E0
1.548190650E1,-2.866630803E0,2.365197562E0,-4.399433362E-1,3.742363131E0
1.549185050E1,-2.828982335E0,1.929876450E0,-1.263437488E-1,3.426882973E0
1.550179350E1,-3.142983663E0,1.854713416E0,-5.024044998E-1,3.683845605E0
1.551173750E1,-3.434856788E0,2.465634016E0,-1.202647129E0,4.395901770E0
1.552168050E1,-3.351647986E0,3.087045690E0,-1.510117117E0,4.800400923E0
1.553162450E1,-2.951203761E0,3.613958758E0,-1.489121520E0,4.897732581E0
1.554156750E1,-2.580627113E0,3.860526486E0,-1.122415291E0,4.777354616E0
1.555151150E1,-2.258467896E0,3.918470639E0,-8.930728747E-1,4.610061664E0
1.556145450E1,-2.157907043E0,4.090162432E0,-9.046578169E-1,4.712154209E0
1.557139850E1,-2.063224688E0,4.662405455E0,-1.240445432E0,5.247249337E0
1.558134250E1,-1.777518475E0,5.640963306E0,-1.612780775E0,6.130342632E0
1.559128550E1,-1.084068666E0,6.572064571E0,-1.518522636E0,6.831774923E0
1.560122950E1,-2.887264457E-1,6.999194319E0,-9.893523967E-1,7.074666228E0
1.561117250E1,2.345130356E-1,6.964139677E0,-6.726077016E-1,7.000474193E0
1.562111650E1,3.211226517E-1,6.652157393E0,-7.558099258E-1,6.702653682E0
1.563105950E1,-6.104332343E-2,6.211023563E0,-1.040189698E0,6.297819829E0
1.564100350E1,-5.544290413E-1,5.746492685E0,-1.398796802E0,5.940219039E0
1.565094650E1,-7.550963462E-1,5.410340935E0,-1.666684064E0,5.711374204E0
1.566089050E1,-5.584102643E-1,5.316281455E0,-1.858941538E0,5.659534801E0
1.567083350E1,5.573967956E-2,5.141374862E0,-1.696915338E0,5.414458796E0
1.568077750E1,6.342895818E-1,4.996988981E0,-1.201690525E0,5.178444001E0
1.569072050E1,1.037035709E0,5.090126356E0,-8.833738057E-1,5.269267374E0
1.570066450E1,1.181377005E0,5.057788914E0,-4.464536262E-1,5.213079816E0
1.571060850E1,1.176487271E0,4.720594606E0,-2.469817114E-1,4.871256070E0
1.572055150E1,1.245608669E0,4.236881352E0,-2.929759828E-1,4.425894201E0
1.573049550E1,1.446140684E0,3.900040800E0,-1.227367111E-1,4.161334572E0
1.574043850E1,1.750019020E0,3.528309327E0,1.652387329E-1,3.941933170E0
1.575038250E1,1.937028764E0,3.253712386E0,5.755735233E-1,3.830144854E0
1.576032550E1,2.117143764E0,3.148701655E0,1.039553667E0,3.934118917E0
1.577026950E1,2.225932380E0,2.923651096E0,1.363240907E0,3.919303058E0
1.578021250E1,2.308683638E0,2.546711508E0,1.538360338E0,3.765941074E0
1.579015650E1,2.491900586E0,2.311279802E0,1.613238028E0,3.762196138E0
1.580009950E1,2.844140365E0,2.312163901E0,1.720037422E0,4.048921468E0
1.581004350E1,3.131091596E0,2.508441482E0,2.114856040E0,4.535265077E0
1.581998750E1,3.488276658E0,2.683821114E0,2.660321739E0,5.142789279E0
1.582993050E1,3.858649822E0,2.789046437E0,3.123373271E0,5.694156572E0
1.583987450E1,4.175883783E0,2.775727065E0,3.304075624E0,6.004963100E0
1.584981750E1,4.224973205E0,2.589365192E0,3.420332304E0,6.021119809E0
1.585976150E1,4.056893237E0,2.198575889E0,3.481859046E0,5.780610789E0
1.586970450E1,3.880611379E0,2.016362032E0,3.443504820E0,5.566200317E0
1.587964850E1,3.776070180E0,2.152369437E0,3.671913435E0,5.689846086E0
1.588959150E1,3.772981681E0,2.091841400E0,3.982496481E0,5.871240876E0
1.589953550E1,3.663974378E0,1.861344159E0,4.355000371E0,5.987932744E0
1.590947850E1,3.578340443E0,1.612454501E0,4.558643689E0,6.015460259E0
1.591942250E1,3.538282923E0,1.462257657E0,4.542093145E0,5.940391708E0
1.592936550E1,3.383007773E0,1.239633107E0,4.569789652E0,5.819313472E0
1.593930950E1,3.175823965E0,9.486832577E-1,4.558415355E0,5.636045452E0
1.594925350E1,3.140923689E0,8.139248174E-1,4.619583371E0,5.645212640E0
1.595919650E1,3.183258992E0,6.607330298E-1,4.828412000E0,5.820933636E0
1.596914050E1,3.152533920E0,4.468787187E-1,5.115836563E0,6.025774178E0
1.597908350E1,3.109361296E0,2.197278392E-1,5.269511915E0,6.122431202E0
1.598902750E1,2.934264084E0,-9.556864679E-2,5.348816532E0,6.101547130E0
1.599897050E1,2.582825374E0,-2.640795547E-1,5.513912666E0,6.094584302E0
1.600891450E1,2.385809582E0,-2.996411508E-1,5.455613587E0,5.962012394E0
1.601885750E1,2.288146316E0,-6.354221874E-1,5.191256289E0,5.708635282E0
1.602880150E1,2.124412291E0,-1.194996048E0,4.990241879E0,5.553706614E0
1.603874450E1,1.977850661E0,-1.679677016E0,4.923360257E0,5.565310803E0
1.604868850E1,1.845000752E0,-2.050333770E0,4.861097058E0,5.589110927E0
1.605863150E1,1.593316272E0,-2.430310401E0,4.654587727E0,5.487280957E0
1.606857550E1,1.173610733E0,-2.578761851E0,4.756905815E0,5.536743427E0
1.607851950E1,9.348776892E-1,-2.770841131E0,4.551851563E0,5.410259654E0
1.608846250E1,7.007737394E-1,-3.188584929E0,4.173455142E0,5.298668276E0
1.609840650E1,4.452758507E-1,-3.588680660E0,3.883505751E0,5.306459873E0
1.610834950E1,2.149426241E-1,-3.989929461E0,3.716015182E0,5.456602081E0
1.611829258E1,1.166928828E-2,-4.505721125E0,3.387694316E0,5.637209576E0
1.612823558E1,-2.821250854E-1,-4.867959643E0,3.114084677E0,5.785684836E0
1.613817958E1,-6.622267011E-1,-4.931214237E0,2.836885432E0,5.727419752E0
1.614812258E1,-1.074235403E0,-4.963899588E0,2.532880796E0,5.675364830E0
1.615806658E1,-1.345392428E0,-5.143971026E0,2.202872716E0,5.755272965E0
1.616800958E1,-1.407094586E0,-5.434429125E0,1.892713009E0,5.924128427E0
1.617795358E1,-1.404627500E0,-5.650882523E0,1.698862315E0,6.065606719E0
1.618789758E1,-1.541547363E0,-5.758407556E0,1.624434861E0,6.178544689E0
1.619784058E1,-1.685822732E0,-5.680402191E0,1.363205239E0,6.080073672E0
1.620778458E1,-1.850036082E0,-5.391687148E0,1.131002658E0,5.811375983E0
1.621772758E1,-2.013003683E0,-5.166171734E0,8.754384032E-1,5.613190413E0
1.622767158E1,-2.163635268E0,-5.103663830E0,8.248295823E-1,5.604377387E0
1.623761458E1,-2.255255436E0,-5.058742011E0,9.200970975E-1,5.614590500E0
1.624755858E1,-2.266810265E0,-4.977234163E0,9.211700615E-1,5.546155693E0
1.625750158E1,-2.335535806E0,-4.719327514E0,7.340053663E-1,5.316534921E0
1.626744558E1,-2.572483988E0,-4.404750820E0,4.266701567E-1,5.118745069E0
1.627738858E1,-2.913914312E0,-4.199521737E0,3.275677451E-1,5.121931283E0
