"Time (s)","Linear Acceleration x (m/s^2)","Linear Acceleration y (m/s^2)","Linear Acceleration z (m/s^2)","Absolute acceleration (m/s^2)"
-5.297500174E-4,-7.754381882E-2,-3.911208032E-2,-2.362742901E-2,9.000585573E-2
9.414249915E-3,-6.660355956E-2,-3.126671119E-2,-2.362859845E-2,7.727840604E-2
1.935724996E-2,-4.907614692E-2,-2.432527364E-2,-2.677264631E-2,6.096689040E-2
2.930025000E-2,-4.121769008E-2,-2.937301046E-2,-4.144272566E-2,6.541537456E-2
3.924324992E-2,-3.928132067E-3,-8.258360708E-3,-1.689494491E-2,1.921119222E-2
4.918724997E-2,3.920910755E-2,1.427222657E-2,-3.545634627E-2,5.475584953E-2
5.913025001E-2,6.917024055E-2,1.485385094E-2,-2.078626692E-2,7.373756138E-2
6.907324994E-2,7.564082421E-2,1.093585329E-2,-3.650299788E-2,8.469708394E-2
7.901624998E-2,4.658935351E-2,9.788462841E-3,-1.973786116E-2,5.153605562E-2
8.896024991E-2,1.617075811E-2,2.448156103E-4,-2.707319319E-2,3.153587072E-2
9.890324995E-2,-1.608601917E-2,-1.114858230E-2,-3.006696761E-2,3.587580579E-2
1.088462500E-1,-5.447159207E-2,-4.377956539E-2,-3.231112897E-2,7.699229666E-2
1.187892499E-1,-1.061877843E-1,-5.957886999E-2,-3.021373272E-2,1.254526083E-1
1.287332500E-1,-1.097787878E-1,-3.728052224E-2,-2.602361798E-2,1.188210768E-1
1.386762500E-1,-5.816598170E-2,-1.256486930E-2,-3.350980818E-2,6.829395736E-2
1.486192499E-1,-1.037043896E-2,-8.887185354E-3,-2.452906966E-2,2.807495906E-2
1.585622500E-1,5.554862179E-2,4.299386863E-3,-2.677381575E-2,6.181400586E-2
1.685062500E-1,8.336073859E-2,2.182095001E-2,-3.410914779E-2,9.267470291E-2
1.784492499E-1,8.523944898E-2,3.701478685E-2,-1.794335067E-2,9.464577085E-2
1.883922500E-1,6.851882419E-2,1.915437299E-2,-3.261167586E-2,7.826391681E-2
1.983352499E-1,4.462640667E-3,-9.780299580E-3,-3.485700667E-2,3.647712071E-2
2.082792500E-1,-4.259075336E-2,-3.128668994E-2,-2.527692854E-2,5.858116042E-2
2.182222500E-1,-8.343475155E-2,-3.508079514E-2,-3.111595809E-2,9.570905287E-2
2.281652499E-1,-8.566535468E-2,-3.520824617E-2,-2.467934310E-2,9.585010990E-2
2.381082500E-1,-7.391293544E-2,-4.437641080E-2,-4.084689438E-2,9.539841006E-2
2.480522500E-1,-3.711680934E-2,-2.680675659E-2,-2.228549302E-2,5.092055512E-2
2.579952499E-1,4.336359082E-3,-7.154022669E-4,-1.435257554E-2,1.501040423E-2
2.679382500E-1,3.880412391E-2,1.885399969E-2,-3.081950426E-2,5.301957356E-2
2.778812500E-1,7.235393984E-2,2.377616299E-2,-1.585063219E-2,7.779229446E-2
2.878252500E-1,6.225053592E-2,1.492647976E-2,-3.635740221E-2,7.361922110E-2
2.977682500E-1,3.229362387E-2,1.025129508E-2,-2.228666246E-2,4.055443893E-2
3.077112499E-1,-1.163894671E-2,-1.273727308E-2,-2.153704941E-2,2.759615378E-2
3.176542500E-1,-4.649175983E-2,-2.780481691E-2,-3.351156235E-2,6.369942218E-2
3.275982500E-1,-9.069679239E-2,-5.957716151E-2,-3.875125229E-2,1.152258907E-1
3.375412499E-1,-9.058320109E-2,-3.653787103E-2,-2.962082505E-2,1.020672603E-1
3.474842500E-1,-6.830895483E-2,-8.853842521E-3,-1.255806506E-2,7.001577561E-2
3.574272500E-1,-1.577953370E-2,-1.055852515E-2,-1.929405749E-2,2.706911139E-2
3.673712499E-1,4.156091250E-2,-1.230409947E-2,-2.872561634E-2,5.199866677E-2
3.773142500E-1,7.485880480E-2,1.763586479E-2,-5.282666981E-2,9.330338379E-2
3.872572499E-1,8.390101218E-2,3.770587749E-2,-1.185230613E-3,9.199194428E-2
3.972002500E-1,5.900027887E-2,1.971145276E-2,-1.750188589E-2,6.462112879E-2
4.071442500E-1,1.283829287E-2,-1.498633834E-2,-4.369741201E-2,4.794659443E-2
4.170872499E-1,-4.148524588E-2,-2.674803775E-2,-2.708313346E-2,5.630256892E-2
4.270302500E-1,-8.278833272E-2,-2.820642470E-2,-1.854912221E-2,8.940682504E-2
4.369732500E-1,-8.601730225E-2,-3.766236826E-2,-1.301063955E-2,9.479824371E-2
4.469172499E-1,-7.386405637E-2,-4.249441135E-2,-4.669118643E-2,9.716861999E-2
4.568602500E-1,-3.842232814E-2,-3.136570958E-2,-1.720250845E-2,5.249770789E-2
4.668032500E-1,-6.617951766E-4,9.126201714E-4,-1.869939566E-2,1.873334584E-2
4.767462499E-1,5.073771548E-2,3.625377173E-2,-4.205025136E-2,7.521220231E-2
4.866902500E-1,4.990055865E-2,1.906178827E-2,-1.933674216E-3,5.345237713E-2
4.966332499E-1,8.027974930E-2,7.170593587E-3,-5.657181144E-2,9.847144464E-2
5.065762500E-1,7.674457753E-2,1.658640607E-2,3.323966682E-2,8.526262075E-2
5.165192500E-1,5.619987370E-3,8.156605451E-3,-9.145045280E-2,9.198532377E-2
5.264632499E-1,-9.917077831E-2,-3.553519232E-2,4.281974494E-2,1.137150989E-1
5.364062500E-1,-9.967736646E-2,-7.343648787E-2,-1.185452807E-1,1.714102643E-1
5.463492500E-1,-5.893882829E-2,-3.160744169E-2,5.554094732E-2,8.693453100E-2
5.562922499E-1,-7.550992881E-2,-2.179482940E-2,-1.191457897E-1,1.427322078E-1
5.662362500E-1,-6.259205899E-2,-1.851914838E-2,5.943168461E-2,8.827711958E-2
5.761792499E-1,2.552726246E-2,-1.545633799E-3,-8.876073360E-2,9.237152128E-2
5.861222500E-1,1.166629889E-1,2.980563818E-2,1.302584231E-2,1.211127640E-1
5.960652500E-1,1.205337726E-1,3.878860138E-2,-5.912470579E-2,1.397450420E-1
6.060092499E-1,5.687938412E-2,2.039062969E-2,-3.139954805E-3,6.050538350E-2
6.159522500E-1,7.142547509E-3,5.457268038E-3,-3.262804806E-2,3.384357073E-2
6.258952500E-1,-1.901736542E-2,-1.791364179E-2,-3.337532222E-2,4.238479542E-2
6.358382499E-1,-5.264834801E-2,-3.552472444E-2,-2.543948114E-2,6.841799321E-2
6.457822500E-1,-1.002535913E-1,-4.995263541E-2,-3.172523797E-2,1.164153730E-1
6.557252499E-1,-1.035452722E-1,-4.668121418E-2,-3.367177606E-2,1.184674962E-1
6.656682499E-1,-5.804848007E-2,-2.630258727E-2,-1.241656244E-2,6.492783038E-2
6.756122500E-1,1.355779275E-2,6.761144595E-3,-2.663757563E-2,3.064453060E-2
6.855552499E-1,5.711355597E-2,1.323137194E-2,-2.454368770E-2,6.355643228E-2
6.954982500E-1,5.478240813E-2,2.491060505E-2,-1.900520504E-2,6.310981146E-2
7.054412500E-1,5.602950046E-2,2.517879354E-2,-1.391637325E-2,6.298366463E-2
7.153852499E-1,5.318898705E-2,2.051730414E-2,-3.083119869E-2,6.481196591E-2
7.253282500E-1,1.982231688E-2,1.374865409E-3,-3.023244381E-2,3.617755050E-2
7.352712500E-1,-4.966236684E-2,-2.916333525E-2,-2.813680172E-2,6.409781910E-2
7.452142499E-1,-8.655559327E-2,-4.087097303E-2,-2.918579221E-2,1.000705632E-1
7.551582500E-1,-9.921795803E-2,-4.639028323E-2,-3.427579343E-2,1.147653763E-1
7.651012499E-1,-8.004343956E-2,-4.184333302E-2,-3.068501830E-2,9.539070753E-2
7.750442500E-1,-4.440797662E-2,-2.566398910E-2,-3.098381102E-2,5.992249385E-2
7.849872500E-1,-4.143812098E-3,-7.380963159E-3,-2.275093138E-2,2.427456847E-2
7.949312499E-1,3.593388107E-2,2.180663346E-2,-2.424840331E-2,4.852585017E-2
8.048742500E-1,7.889358460E-2,2.800843478E-2,-3.712163329E-2,9.157885000E-2
8.148172500E-1,7.676249376E-2,1.643378917E-2,-2.918813109E-2,8.375259323E-2
8.247602499E-1,3.640225218E-2,1.691389126E-2,-2.305030882E-2,4.628736780E-2
8.347042500E-1,-1.591317913E-2,-6.002758441E-3,-1.421808958E-2,2.216791488E-2
8.446472499E-1,-4.476119413E-2,-2.414497612E-2,-3.023478270E-2,5.916659916E-2
8.545902499E-1,-7.933786335E-2,-4.344372508E-2,-3.592236936E-2,9.732558981E-2
8.645332500E-1,-9.033769112E-2,-4.147535586E-2,-3.592295408E-2,1.056956111E-1
8.744772499E-1,-7.266004158E-2,-3.289087812E-2,-2.364789426E-2,8.318962922E-2
8.844202500E-1,-3.622562972E-2,-2.218121615E-2,-2.454719603E-2,4.905983521E-2
8.943632500E-1,3.058775352E-2,2.219429472E-5,-2.918754637E-2,4.227912040E-2
9.043062499E-1,6.611030124E-2,1.711203878E-2,-3.861735106E-2,7.845185532E-2
9.142502500E-1,7.784864148E-2,3.005156156E-2,-2.080380857E-2,8.600177780E-2
9.241932500E-1,6.153224202E-2,2.446201398E-2,-2.095291257E-2,6.945236843E-2
9.341362499E-1,3.778754893E-2,1.450081388E-2,-2.604174435E-2,4.812842098E-2
9.440792500E-1,-1.028147905E-2,-7.254325259E-3,-2.514244258E-2,2.811541331E-2
9.540232499E-1,-7.390985652E-2,-2.384249691E-2,-1.181897700E-2,7.855456554E-2
9.639662500E-1,-8.910672432E-2,-4.426987270E-2,-6.061633050E-2,1.165082378E-1
9.739092500E-1,-7.709890053E-2,-6.895893223E-2,-3.876177728E-2,1.104628905E-1
9.838522499E-1,-6.599940514E-2,-3.685043897E-2,-3.861384273E-2,8.488171288E-2
9.937961666E-1,-4.083052218E-2,9.611559443E-3,-3.737540245E-3,4.211273944E-2
1.003739167E0,1.097290317E-2,1.538256486E-2,-3.038330197E-2,3.577950453E-2
1.013682167E0,6.900351268E-2,-4.545403894E-3,-5.268750608E-2,8.693744162E-2
1.023625167E0,7.592751137E-2,-1.141993194E-3,-3.936520994E-2,8.553309818E-2
1.033569167E0,3.742773503E-2,3.016584950E-2,-2.439633787E-2,5.390728269E-2
1.043512167E0,7.270756848E-3,2.193778697E-2,-1.092318356E-2,2.556259653E-2
1.053455167E0,-2.500435693E-2,-2.340192520E-2,-3.771687984E-2,5.094537264E-2
1.063398167E0,-3.881635739E-2,-4.158761784E-2,-4.385470212E-2,7.182948180E-2
1.073342167E0,-6.558531264E-2,-2.877639118E-2,-3.038330197E-2,7.779883651E-2
1.083285167E0,-7.454755934E-2,-1.209459099E-2,-8.979569077E-3,7.605425955E-2
1.093228167E0,-4.468785726E-2,-2.689032609E-2,-3.068501830E-2,6.051168954E-2
1.103171167E0,1.621416455E-2,-2.526089210E-2,-5.358739257E-2,6.142166103E-2
1.113115167E0,3.070400348E-2,3.047694422E-3,-2.784151733E-2,4.155928727E-2
1.123058167E0,2.951389410E-2,2.907001962E-2,-1.646575928E-2,4.457866322E-2
1.133001167E0,4.353440261E-2,1.390968093E-2,-2.874081910E-2,5.398849985E-2
1.142944167E0,3.982472800E-2,-4.543142666E-3,-4.236249268E-2,5.832006423E-2
1.152888167E0,4.693733593E-3,-1.109816149E-2,-3.038739502E-2,3.268935759E-2
1.162831167E0,-3.682964710E-2,-6.327694610E-3,-2.095642090E-2,4.284430185E-2
1.172774167E0,-6.912920041E-2,-1.182813155E-2,-1.526766479E-2,7.177640722E-2
1.182717167E0,-6.640141949E-2,-4.126716301E-2,-3.547505736E-2,8.585223904E-2
1.192661167E0,-4.726729249E-2,-2.970064183E-2,-3.278066039E-2,6.473713586E-2
1.202604167E0,-2.357279409E-2,-2.295347345E-3,-1.826085448E-2,2.990658869E-2
1.212547167E0,-4.148654323E-3,-2.208429398E-3,-2.484715819E-2,2.528773939E-2
1.222490167E0,2.079485502E-2,-7.070318407E-3,-3.622350097E-2,4.236221689E-2
1.232434167E0,4.477974990E-2,7.946777204E-3,-3.966575682E-2,6.034690989E-2
1.242377167E0,4.395002087E-2,1.500761444E-2,-1.990626097E-2,5.052813128E-2
1.252320167E0,1.545118514E-2,1.083119955E-2,-1.885843992E-2,2.667760788E-2
1.262263167E0,-9.455952700E-4,-9.834212735E-3,-3.307769895E-2,3.452158829E-2
1.272207167E0,-1.692931557E-2,-2.526644239E-2,-3.113174558E-2,4.352218307E-2
1.282150167E0,-4.531720039E-2,-2.735632862E-2,-2.364672482E-2,5.797572734E-2
1.292093167E0,-5.160120305E-2,-2.059178990E-2,-2.020271480E-2,5.911730417E-2
1.302036167E0,-5.581302557E-2,-2.430005981E-2,-3.322446406E-2,6.935021083E-2
1.311980167E0,-2.647791009E-2,-1.889379502E-2,-3.023068964E-2,4.440664150E-2
1.321923167E0,4.716601688E-4,-3.502968682E-3,-3.501955926E-2,3.519748264E-2
1.331866167E0,2.600930144E-2,8.069365451E-3,-3.202461541E-2,4.203777363E-2
1.341809167E0,3.621610058E-2,8.562619204E-3,-2.918169916E-2,4.729160554E-2
1.351753167E0,3.292790973E-2,2.779830275E-3,-3.501955926E-2,4.814918718E-2
1.361696167E0,3.368328776E-2,-2.241331406E-3,-4.339978874E-2,5.498298922E-2
1.371639167E0,8.137761885E-3,-3.722910786E-3,-1.690254629E-2,1.912535762E-2
1.381582167E0,-4.945090776E-2,-2.043213122E-2,-3.486343861E-2,6.386175394E-2
1.391526167E0,-6.445597775E-2,-3.201752794E-2,-2.767779529E-2,7.710872529E-2
1.401469167E0,-5.087768320E-2,-2.153834448E-2,-2.213989735E-2,5.951986211E-2
1.411412167E0,-4.955211941E-2,-2.383065630E-2,-2.318830311E-2,5.967419978E-2
1.421355167E0,-2.694861095E-2,-1.377566777E-2,-2.154289663E-2,3.714960363E-2
1.431299167E0,8.274632413E-3,-1.801312440E-3,-4.250224113E-2,4.333768302E-2
1.441242167E0,3.775848644E-2,9.170569747E-3,-2.903142571E-2,4.850387950E-2
1.451185167E0,4.414645077E-2,1.242051159E-2,-3.711344719E-2,5.899649300E-2
1.461128167E0,2.877710838E-2,3.772609835E-3,-3.127617180E-2,4.266794434E-2
1.471072167E0,2.196113700E-3,-6.931330548E-3,-3.352150261E-2,3.430098244E-2
1.481015167E0,-9.439470861E-3,-8.221890985E-3,-3.037803948E-2,3.285617726E-2
1.490958167E0,-3.786327037E-2,-2.179553061E-2,-3.681348503E-2,5.713059668E-2
1.500901167E0,-4.492050335E-2,-3.199409568E-2,-3.576566398E-2,6.573170087E-2
1.510845167E0,-4.803809255E-2,-1.765544382E-2,-3.307126701E-2,6.093506162E-2
1.520788167E0,-3.097764404E-2,-1.781591106E-2,-2.888056755E-2,4.594679857E-2
1.530731167E0,-5.809354931E-3,-7.994194468E-3,-2.813212395E-2,2.981731289E-2
1.540674167E0,1.123421889E-2,-4.161755741E-4,-3.741223991E-2,3.906477404E-2
1.550618167E0,3.025652703E-2,-2.567350224E-3,-2.992780387E-2,4.263475296E-2
1.560561167E0,2.943961618E-2,5.834767479E-3,-2.648379385E-2,4.002657679E-2
1.570504167E0,1.826049817E-2,1.223276344E-3,-3.890737295E-2,4.299681230E-2
1.580447167E0,1.581282629E-2,-6.416186281E-3,-4.534340322E-2,4.844829344E-2
1.590391167E0,-7.287348323E-3,-1.372146911E-2,-2.468694448E-2,2.916897989E-2
1.600334167E0,-6.204665082E-2,-1.817674822E-2,-3.172231436E-2,7.201726378E-2
1.610277167E0,-5.755004148E-2,-1.612946672E-2,-1.331060171E-2,6.123184702E-2
1.620220167E0,-3.865311957E-2,-2.409791517E-2,-2.438873649E-2,5.166801366E-2
1.630164167E0,-2.640667456E-2,-1.995493675E-2,-2.588620842E-2,4.201913550E-2
1.640107167E0,-3.104208218E-2,-2.438007987E-3,-2.947990716E-2,4.287912866E-2
1.650050167E0,2.380474582E-3,4.201514523E-3,-2.424138665E-2,2.471769023E-2
1.659994167E0,2.237406920E-2,4.532048944E-5,-2.484072626E-2,3.343146284E-2
1.669937167E0,3.121124944E-2,-6.064981038E-3,-3.172640741E-2,4.491648933E-2
1.679880167E0,1.143386476E-2,-3.221484635E-3,-2.019979119E-2,2.343379591E-2
1.689823167E0,-1.933138831E-2,-1.467732213E-2,-3.322329462E-2,4.114503207E-2
1.699767167E0,-1.489163401E-2,-1.650622384E-2,-2.499099970E-2,3.344796339E-2
1.709710167E0,-2.856987940E-2,-1.762186116E-2,-3.247485101E-2,4.670528822E-2
1.719653167E0,-2.971180407E-2,-1.903487052E-2,-3.696609735E-2,5.110391326E-2
1.729596167E0,-2.188979183E-2,-1.140660897E-2,-2.274742305E-2,3.356663478E-2
1.739540167E0,-9.549700012E-3,-7.976084088E-3,-3.157964230E-2,3.394242913E-2
1.749483167E0,-1.262344424E-2,-1.996275969E-4,-3.981310666E-2,4.176690864E-2
1.759426167E0,1.090135700E-2,2.257936585E-3,-3.397524655E-2,3.575269556E-2
1.769369167E0,1.116108301E-2,5.644100283E-3,-2.289828122E-2,2.609131895E-2
1.779313167E0,8.099901164E-3,-3.705079062E-3,-3.607147336E-2,3.715490816E-2
1.789256167E0,6.327674054E-3,-1.024496136E-2,-2.275034666E-2,2.574057042E-2
1.799199167E0,6.176030170E-3,-1.260208820E-2,-3.562299192E-2,3.828777258E-2
1.809142167E0,-2.147027238E-2,-1.666888150E-2,-2.709015012E-2,3.837577934E-2
1.819086167E0,-4.143123223E-2,-1.279849069E-2,-2.619143307E-2,5.065905185E-2
1.829029167E0,-4.224657163E-2,-1.703403098E-2,-2.469337642E-2,5.181403155E-2
1.838972167E0,-2.343981561E-2,-9.138060599E-3,-2.723691523E-2,3.707800775E-2
1.848915167E0,-5.773358010E-3,-5.879564916E-3,-4.115679681E-2,4.197359730E-2
1.858859167E0,4.307196094E-3,-7.739121106E-3,-2.199605584E-2,2.371228387E-2
1.868802167E0,9.027196476E-3,-4.051700179E-3,-2.573768914E-2,2.757417619E-2
1.878745167E0,1.679566101E-2,4.010207788E-4,-2.858235955E-2,3.315428063E-2
1.888688167E0,1.712004444E-2,1.780059182E-3,-2.723457634E-2,3.221780068E-2
1.898632167E0,-9.047999773E-3,-1.012938977E-2,-2.319239616E-2,2.687671998E-2
1.908575167E0,-2.508031592E-2,-1.462254560E-2,-2.678492546E-2,3.950029517E-2
1.918518167E0,-1.964363876E-2,-1.645422930E-2,-3.082652092E-2,4.008601499E-2
1.928461167E0,-1.353144374E-2,-1.880348980E-2,-3.426819205E-2,4.136399624E-2
1.938405167E0,-1.883144223E-2,-1.444661978E-2,-2.992663443E-2,3.819596167E-2
1.948348167E0,-4.519888563E-3,-1.913392829E-2,-2.872970939E-2,3.481282531E-2
1.958291167E0,-5.279496694E-3,-1.311401649E-2,-2.813153923E-2,3.148386909E-2
1.968234167E0,2.220909549E-3,-2.149374804E-3,-2.663348258E-2,2.681221075E-2
1.978178167E0,9.771300349E-3,-4.703502555E-3,-2.902967155E-2,3.098907997E-2
1.988121167E0,-2.752631586E-3,-1.294626079E-2,-2.962784171E-2,3.244983287E-2
1.998064167E0,-4.551426983E-3,-1.314769965E-2,-2.678375602E-2,3.018189988E-2
2.008007167E0,-5.038180277E-3,-1.426790512E-2,-2.753336906E-2,3.141723713E-2
2.017951167E0,-7.172706351E-3,-1.717149765E-2,-3.636558831E-2,4.085050870E-2
2.027894167E0,-1.582489531E-2,-1.521215735E-2,-1.765391350E-2,2.816909130E-2
2.037837167E0,-4.096673490E-2,-7.812131359E-3,-2.005010247E-2,4.627428415E-2
2.047780167E0,-2.405417525E-2,-3.258306105E-3,-2.723633051E-2,3.648338807E-2
2.057724167E0,-6.144464342E-3,-1.244977051E-2,-3.157847285E-2,3.449566894E-2
2.067667167E0,-3.956646379E-3,-1.731157729E-2,-2.529154658E-2,3.090320513E-2
2.077610167E0,-1.294975542E-4,-8.978296851E-3,-2.110084713E-2,2.293190645E-2
2.087553167E0,-1.149480371E-3,-5.916790667E-3,-2.828590572E-2,2.892096436E-2
2.097497167E0,-3.021110147E-3,1.605455840E-3,-3.382438838E-2,3.399696817E-2
2.107440167E0,-1.762676049E-2,-5.560290953E-3,-2.813738644E-2,3.366499720E-2
2.117383167E0,-1.556747164E-2,-5.094647021E-3,-2.110201657E-2,2.671323089E-2
2.127326167E0,-9.408078622E-3,-1.649803317E-2,-3.397524655E-2,3.892318615E-2
2.137270167E0,-1.474251173E-2,-1.899733870E-2,-2.738777339E-2,3.644627089E-2
2.147213167E0,-8.445151839E-3,-1.792890622E-2,-3.307536006E-2,3.855834165E-2
2.157156167E0,-1.186893415E-2,-1.513803248E-2,-2.678960323E-2,3.298051647E-2
2.167099167E0,-1.002432947E-2,-1.186582781E-3,-2.514478147E-2,2.709529840E-2
2.177043167E0,7.783511980E-3,-4.323659660E-3,-2.454485714E-2,2.610990432E-2
2.186986167E0,-4.490935709E-4,-1.008094240E-2,-2.768832028E-2,2.946981786E-2
2.196929167E0,-3.811215162E-3,-3.644103566E-3,-3.756894529E-2,3.793719154E-2
2.206872167E0,-7.593450062E-3,-4.824245274E-3,-3.262980223E-2,3.384727197E-2
2.216816167E0,-6.497882847E-3,-6.625078060E-3,-3.292801023E-2,3.421064159E-2
2.226759167E0,-8.685618583E-3,-1.385473309E-2,-3.008333981E-2,3.424034073E-2
2.236702167E0,-3.531754799E-3,-1.431976718E-2,-2.140197873E-2,2.599180097E-2
2.246645167E0,-1.124408606E-2,-9.051932939E-3,-2.140256345E-2,2.581543499E-2
2.256589167E0,-1.957963916E-2,-1.733859326E-3,-1.571556151E-2,2.516639448E-2
2.266532167E0,-9.301019758E-3,-1.134317124E-2,-2.260182738E-2,2.694474167E-2
2.276475167E0,-1.013718987E-2,-1.126481627E-2,-3.053299069E-2,3.408698028E-2
2.286418167E0,-5.407760851E-4,-7.963740982E-3,-2.739069700E-2,2.853005243E-2
2.296362167E0,-8.518561805E-3,-3.047644172E-3,-3.292917967E-2,3.414944954E-2
2.306305167E0,-6.773332385E-3,-6.983544356E-3,-3.352734983E-2,3.491032956E-2
2.316248167E0,-3.406724883E-3,-1.709790953E-2,-3.592178464E-2,3.992892305E-2
2.326191167E0,-1.140442768E-2,-1.777274217E-2,-2.948575437E-2,3.626763083E-2
2.336135167E0,-2.027156577E-2,-8.192549839E-3,-2.469746947E-2,3.298513680E-2
2.346078167E0,-1.952806489E-2,-1.288967984E-2,-2.799237549E-2,3.648372583E-2
2.356021167E0,-9.746869951E-3,-1.728944239E-2,-3.472778320E-2,3.999931522E-2
2.365964167E0,-5.106035387E-3,-1.076637083E-2,-3.622291625E-2,3.813247959E-2
2.375908167E0,-1.026884358E-2,-5.012368017E-3,-2.469805419E-2,2.721335817E-2
2.385851167E0,-7.351384470E-3,-1.160077536E-2,-3.143346190E-2,3.430281869E-2
2.395794167E0,-8.419899177E-4,-3.559154486E-3,-2.260065794E-2,2.289467770E-2
2.405737167E0,7.543657366E-3,-1.235648230E-2,-2.888875365E-2,3.231330235E-2
2.415681167E0,-3.491564328E-3,-4.968511616E-3,-2.185455322E-2,2.268256215E-2
2.425624167E0,-1.284358277E-2,-6.804416275E-3,-3.248186767E-2,3.558552271E-2
2.435567167E0,-1.983886267E-2,-3.557034871E-3,-2.888816893E-2,3.522441303E-2
2.445510167E0,-1.357860519E-2,-1.090546832E-2,-4.251042724E-2,4.593957098E-2
2.455454167E0,-1.537023774E-2,-8.050005685E-3,-3.038564086E-2,3.499048400E-2
2.465397167E0,-1.955786741E-2,-1.054024804E-2,-3.128318846E-2,3.836984346E-2
2.475340167E0,-1.641496159E-2,-1.749501313E-2,-2.858937621E-2,3.732129259E-2
2.485283167E0,-8.747836612E-3,-8.916231855E-3,-2.185221434E-2,2.517028222E-2
2.495227167E0,3.565284926E-3,-2.929825061E-3,-2.454661131E-2,2.497661423E-2
2.505170167E0,-1.000248464E-3,-4.288089860E-3,-2.649197996E-2,2.685541312E-2
2.515113167E0,-4.576761872E-3,-5.474809685E-3,-3.711929440E-2,3.779897231E-2
2.525056167E0,-6.926794387E-3,-8.606112439E-3,-2.304855466E-2,2.555937252E-2
2.535000167E0,-7.370515829E-3,-7.590307184E-3,-2.499450803E-2,2.714153088E-2
2.544943167E0,-1.070301762E-2,-1.491705797E-2,-2.664166868E-2,3.235508793E-2
2.554886167E0,-8.404531963E-3,-1.015090342E-3,-2.753921628E-2,2.881102218E-2
2.564829167E0,-2.272623603E-2,-6.916157480E-3,-3.367645383E-2,4.121187427E-2
2.574773167E0,-9.338350575E-3,-1.245548297E-3,-3.083295286E-2,3.224014832E-2
2.584716167E0,-1.470757462E-3,-5.074266277E-3,-2.769182861E-2,2.819128726E-2
2.594659167E0,-6.175052589E-3,-7.199870779E-3,-3.338000000E-2,3.470149584E-2
2.604602167E0,-4.075883897E-3,-6.543952511E-3,-3.068560302E-2,3.163925373E-2
2.614546167E0,-4.317702809E-3,-3.163229465E-3,-3.038564086E-2,3.085345602E-2
2.624489167E0,-2.466245927E-3,-6.042731926E-3,-3.457750976E-2,3.518808263E-2
2.634432167E0,-1.181202429E-2,-1.719276690E-2,-2.320058227E-2,3.119907321E-2
2.644375167E0,-1.268642058E-2,-6.127863731E-3,-3.083587646E-2,3.390202440E-2
2.654319167E0,-2.216387093E-2,-1.106374057E-2,-3.278299928E-2,4.108976237E-2
2.664262167E0,-2.007895483E-2,-8.583808509E-3,-2.919222414E-2,3.645589316E-2
2.674205167E0,-1.887536030E-2,-1.146865797E-2,-3.098965824E-2,3.805480600E-2
2.684148167E0,-1.330907595E-2,-6.952426205E-3,-2.664868534E-2,3.058790877E-2
2.694092167E0,-5.090896580E-3,-5.596840619E-3,-2.694981694E-2,2.799168602E-2
2.704035167E0,-8.835033216E-3,-8.369565157E-3,-2.964421391E-2,3.204507531E-2
2.713978167E0,-8.783257948E-3,-7.652548053E-3,-2.186040044E-2,2.477063219E-2
2.723921167E0,-1.359434699E-2,-1.023177087E-2,-3.548207402E-2,3.935064144E-2
2.733865167E0,-7.814127635E-3,-4.715891343E-3,-2.664985478E-2,2.816939796E-2
2.743808167E0,-3.971639005E-3,-1.005994724E-2,-2.769709110E-2,2.973390843E-2
2.753751167E0,-1.136224550E-2,-1.125371341E-2,-2.425366580E-2,2.905145424E-2
2.763694167E0,-2.109106218E-2,-9.613048655E-3,-2.634930789E-2,3.509315652E-2
2.773638167E0,-1.669628575E-2,-1.475986380E-2,-2.874432743E-2,3.637108600E-2
2.783581167E0,-9.819594696E-3,-1.020376133E-2,-3.368347049E-2,3.653925792E-2
2.793524167E0,-8.431822015E-3,-4.996824930E-3,-2.904312015E-2,3.065235243E-2
2.803467167E0,-1.296905123E-2,-1.342012737E-2,-2.230595827E-2,2.908353284E-2
2.813411167E0,-5.834680684E-3,-1.099764877E-2,-3.547798097E-2,3.759892167E-2
2.823354167E0,8.841191065E-3,-2.727027177E-3,-3.158548951E-2,3.291271007E-2
2.833297167E0,8.541868441E-4,-2.696169410E-3,-2.634696901E-2,2.649833468E-2
2.843240167E0,-6.884091441E-3,-9.794058809E-3,-2.934015870E-2,3.168847133E-2
2.853184167E0,1.578638591E-3,-8.213117877E-3,-3.622467041E-2,3.717760282E-2
2.863127167E0,-9.050740656E-3,-1.033427758E-2,-3.667373657E-2,3.916217759E-2
2.873070167E0,-2.013223758E-2,-1.695769969E-2,-3.173283935E-2,4.122916033E-2
2.883013167E0,-6.445203088E-3,-1.089457560E-2,-2.664342284E-2,2.949753212E-2
2.892957167E0,-1.215518276E-2,-1.055988417E-2,-3.622233152E-2,3.963984010E-2
2.902900167E0,-1.496550079E-2,-1.736520494E-2,-2.843676388E-2,3.652623847E-2
2.912843167E0,-7.645910550E-3,-9.957289773E-3,-3.068092525E-2,3.315006398E-2
2.922786167E0,-1.336022995E-2,-1.400044753E-2,-2.963310421E-2,3.539250119E-2
2.932730167E0,-1.317511076E-2,-9.914098035E-3,-2.574236691E-2,3.057028521E-2
2.942673167E0,-1.259175964E-2,-5.933825250E-3,-3.367586911E-2,3.643935857E-2
2.952616167E0,-5.447266102E-3,-7.808771494E-3,-2.619201779E-2,2.786882517E-2
2.962559167E0,-6.275533335E-3,-5.030635998E-3,-2.050501585E-2,2.202601399E-2
2.972503167E0,1.937611951E-3,-5.344900999E-3,-2.619494140E-2,2.680479923E-2
2.982446167E0,-5.329773612E-3,-1.318378794E-2,-3.951782227E-2,4.199853602E-2
2.992389167E0,-9.976948751E-3,-1.188223428E-2,-2.574645996E-2,3.006005985E-2
3.002332167E0,-1.790061118E-3,-6.148431769E-3,-1.915898681E-2,2.020084918E-2
3.012276167E0,-4.160266528E-3,-1.514769865E-2,-3.592353880E-2,3.920792308E-2
3.022219167E0,2.729918808E-5,-1.753792849E-2,-2.544649780E-2,3.090475580E-2
3.032162167E0,-1.099658439E-2,-3.631299078E-3,-4.011540771E-2,4.175352843E-2
3.042105167E0,-1.759763405E-2,-8.571022293E-3,-2.499684691E-2,3.174872443E-2
3.052049167E0,-3.108049108E-2,-1.880468437E-2,-3.532536864E-2,5.067045243E-2
3.061992167E0,-3.584071848E-2,-2.508206323E-2,-2.918930054E-2,5.258975435E-2
3.071935167E0,-2.556167881E-2,-1.246392945E-2,-2.679486573E-2,3.907318506E-2
3.081878167E0,-6.359294700E-3,2.045611851E-5,-3.008743286E-2,3.075214893E-2
3.091822167E0,1.315300098E-2,-6.946042234E-3,-1.691365600E-2,2.252378069E-2
3.101765167E0,2.392801244E-2,-1.918190515E-3,-4.116322875E-2,4.765123960E-2
3.111708167E0,3.200624236E-2,5.146481674E-3,-2.529680908E-2,4.111951329E-2
3.121651167E0,1.359388104E-2,3.833708670E-3,-1.796206176E-2,2.285008942E-2
3.131595167E0,-6.420717873E-3,-3.533604895E-3,-3.158315063E-2,3.242232849E-2
3.141538167E0,-2.363346809E-2,-1.436377433E-2,-2.858996093E-2,3.977743950E-2
3.151481167E0,-4.620116235E-2,-2.560016308E-2,-3.218365967E-2,6.185227322E-2
3.161424167E0,-4.789378510E-2,-3.715625520E-2,-1.706568360E-2,6.297332379E-2
3.171368167E0,-3.593599155E-2,-2.277952564E-2,-2.844261110E-2,5.117894492E-2
3.181311167E0,-9.227956971E-3,-8.194194369E-3,-2.290529788E-2,2.601831436E-2
3.191254167E0,1.247688926E-2,-3.166584761E-3,-2.574938357E-2,2.878768450E-2
3.201197167E0,2.347171948E-2,7.041625937E-3,-2.859288454E-2,3.765712625E-2
3.211141167E0,3.575241638E-2,1.416289049E-2,-2.844319582E-2,4.783135094E-2
3.221084167E0,2.826248031E-2,2.154774342E-3,-3.083821535E-2,4.188563443E-2
3.231027167E0,-6.208811123E-3,-7.819625388E-3,-2.215685427E-2,2.430271730E-2
3.240970167E0,-1.910126382E-2,-7.253724549E-3,-2.350463748E-2,3.114390442E-2
3.250914167E0,-3.879506073E-2,-1.483690087E-2,-2.709833622E-2,4.959344907E-2
3.260857167E0,-4.990535519E-2,-2.230439140E-2,-2.365549564E-2,5.956184036E-2
3.270800167E0,-3.789646246E-2,-2.757745387E-2,-2.889401615E-2,5.505925897E-2
3.280743167E0,-2.430536798E-2,-2.021698109E-2,-2.934483647E-2,4.313463417E-2
3.290687167E0,-8.973822361E-3,-8.126291293E-3,-2.710125983E-2,2.968239179E-2
3.300630167E0,1.604944666E-2,6.676090448E-3,-1.841872931E-2,2.532596515E-2
3.310573167E0,2.939810095E-2,5.499553001E-3,-3.698130012E-2,4.756164401E-2
3.320516167E0,2.780186590E-2,1.555391341E-3,-4.102289557E-2,4.958065097E-2
3.330460167E0,9.939225074E-3,-2.262022784E-3,-3.473596931E-2,3.620072521E-2
3.340403167E0,-3.673632005E-3,-1.064363869E-2,-3.548558235E-2,3.722914411E-2
3.350346167E0,-2.781472977E-2,-1.624086988E-2,-3.144398689E-2,4.501276884E-2
3.360290167E0,-3.665127961E-2,-1.998026479E-2,-2.455830574E-2,4.843178356E-2
3.370233167E0,-3.704667930E-2,-2.304858664E-2,-3.009737313E-2,5.300514750E-2
3.380176167E0,-4.019044393E-2,-2.212664290E-2,-3.009737313E-2,5.486995515E-2
3.390119167E0,-1.864947505E-2,-1.529411202E-2,-2.051787972E-2,3.166537811E-2
3.400063167E0,-2.087958483E-3,-5.104774581E-3,-2.905072153E-2,2.956962488E-2
3.410006167E0,1.886421405E-2,-4.248977469E-3,-2.695566416E-2,3.317408946E-2
3.419949167E0,1.837877638E-2,5.740805464E-3,-2.695566416E-2,3.312618449E-2
3.429892167E0,1.417416237E-2,4.446928559E-3,-2.710535288E-2,3.090925763E-2
3.439835167E0,-3.415870294E-3,3.342487738E-3,-2.875134408E-2,2.914584329E-2
3.449779167E0,-2.235576010E-2,-9.906460110E-3,-3.848052621E-2,4.559242107E-2
3.459722167E0,-3.553465328E-2,-1.546845269E-2,-3.623402596E-2,5.305552987E-2
3.469665167E0,-3.582868600E-2,-1.791463308E-2,-3.024647713E-2,5.019440405E-2
3.479608167E0,-3.392243888E-2,-1.115420568E-2,-2.381044686E-2,4.291952404E-2
3.489552167E0,-3.539696049E-2,-1.596222493E-2,-2.770176888E-2,4.769827497E-2
3.499495167E0,-1.279909825E-2,-7.140071578E-3,-1.842106819E-2,2.354003593E-2
3.509438167E0,6.221455727E-3,-3.779859468E-4,-3.443893075E-2,3.499841905E-2
3.519382167E0,2.216692245E-2,3.031941201E-3,-2.126573861E-2,3.086740606E-2
3.529325167E0,2.379959296E-2,-2.326438087E-4,-2.605636239E-2,3.529034952E-2
3.539268167E0,1.490426034E-2,-3.121355635E-3,-3.039675057E-2,3.399768054E-2
3.549211167E0,-4.364544488E-3,-8.147795799E-3,-2.560671151E-2,2.722387737E-2
3.559155167E0,-2.352050719E-2,-1.156231164E-2,-3.623461068E-2,4.471966368E-2
3.569098167E0,-2.721774733E-2,-1.699207721E-2,-8.691886067E-3,3.324282390E-2
3.579041167E0,-3.130601088E-2,-2.558312850E-2,-3.832966805E-2,5.571109614E-2
3.588984167E0,-3.248873815E-2,-1.922739238E-2,-1.902099252E-2,4.227302781E-2
3.598928167E0,-2.489194421E-2,-1.156672903E-2,-3.144515634E-2,4.173962103E-2
3.608871167E0,-8.483944461E-5,-5.739311683E-3,-2.845196664E-2,2.902518393E-2
3.618814167E0,1.345936767E-2,-1.722363608E-3,-1.602838755E-2,2.100072193E-2
3.628757167E0,2.532627356E-2,3.818261514E-3,-3.458861947E-2,4.303918970E-2
3.638701167E0,1.877293353E-2,-1.345419197E-3,-2.216445565E-2,2.907741874E-2
3.648644167E0,7.865948584E-3,3.826655466E-3,-1.932036996E-2,2.120832701E-2
3.658587167E0,-1.089132537E-2,-7.578512253E-3,-3.279293954E-2,3.537558056E-2
3.668530167E0,-2.025341199E-2,-1.676847374E-2,-2.590784311E-2,3.691339518E-2
3.678474167E0,-4.084812778E-2,-2.285550518E-2,-2.500912607E-2,5.306976584E-2
3.688417167E0,-4.479061293E-2,-2.664383626E-2,-2.231531382E-2,5.669273541E-2
3.698360167E0,-2.927104278E-2,-1.955475880E-2,-3.219535410E-2,4.770454237E-2
3.708303167E0,-1.896473134E-2,-1.458190288E-2,-2.875251353E-2,3.740320789E-2
3.718247167E0,-8.928616075E-3,-9.961869330E-3,-2.680772960E-2,2.996019679E-2
3.728190167E0,1.631193182E-2,4.940230278E-3,-2.800757825E-2,3.278581148E-2
3.738133167E0,1.964609642E-2,3.969377778E-3,-1.842691541E-2,2.722638933E-2
3.748076167E0,1.505428710E-2,-8.663648127E-3,-2.306668103E-2,2.887493953E-2
3.758020167E0,1.431265002E-2,-8.865292557E-3,-2.366543591E-2,2.904304081E-2
3.767963167E0,-1.033693624E-2,-1.298827395E-2,-3.878399670E-2,4.218703487E-2
3.777906167E0,-2.598980463E-2,-2.598788145E-2,-3.953127086E-2,5.397741475E-2
3.787849167E0,-5.984069735E-2,-3.377685006E-2,-8.546290398E-3,6.924466578E-2
3.797793167E0,-5.608926997E-2,-2.041516287E-2,-5.809208751E-2,8.329151044E-2
3.807736167E0,-2.767069641E-2,-1.413225885E-2,-4.203563333E-3,3.135375774E-2
3.817679167E0,6.091702357E-4,-1.668410938E-2,-6.348088145E-2,6.563956813E-2
3.827622167E0,1.777074818E-2,-9.599940386E-5,-3.099842906E-2,3.573109725E-2
3.837566167E0,3.359367918E-2,1.189616253E-2,-1.631373167E-4,3.563818988E-2
3.847509167E0,4.230919166E-2,1.464467822E-2,-2.052080333E-2,4.925076312E-2
3.857452167E0,2.760322502E-2,1.513727645E-3,-4.836290538E-2,5.570637324E-2
3.867395167E0,3.354136487E-3,-1.076526534E-2,-1.258730114E-2,1.689915144E-2
3.877339167E0,-2.468085973E-2,-2.423756312E-2,-4.686484873E-2,5.824876264E-2
3.887282167E0,-5.160861257E-2,-1.344017007E-2,9.569553137E-3,5.418176270E-2
3.897225167E0,-5.571108302E-2,-1.487178088E-2,-3.758122444E-2,6.882763303E-2
3.907168167E0,-3.589946472E-2,-2.877942214E-2,-2.994651496E-2,5.489827378E-2
3.917112167E0,-2.730492566E-2,-2.977929602E-2,-3.623461068E-2,5.427073288E-2
3.927055167E0,-1.412168361E-2,-7.205411929E-3,-4.536679208E-2,4.805710908E-2
3.936998167E0,5.692675570E-3,-5.292004254E-4,-5.851308703E-3,8.180734795E-3
3.946941167E0,3.213529224E-3,-1.001106817E-2,-2.516173840E-2,2.727015466E-2
3.956885167E0,5.918259323E-3,-1.533064798E-2,-3.910033107E-3,1.689209637E-2
3.966828167E0,-2.390204715E-3,-5.850705709E-3,-1.439175189E-2,1.571834464E-2
3.976771167E0,-3.480412591E-2,-7.462310262E-3,-5.061817646E-2,6.188063545E-2
3.986714167E0,-4.469295530E-2,-2.790250196E-2,-3.699767232E-2,6.438041337E-2
3.996661875E0,-4.972671362E-2,-4.758007284E-2,-3.490319967E-2,7.716762745E-2
4.006604875E0,-2.503422341E-2,-1.889675061E-2,-2.262872458E-2,3.867633257E-2
4.016547875E0,2.134502320E-2,1.588136433E-2,1.119917214E-2,2.886605628E-2
4.026490875E0,3.426685816E-2,7.073908963E-3,-2.952025294E-2,4.577884981E-2
4.036434875E0,6.353633864E-2,7.514747910E-3,-3.341683745E-2,7.218048759E-2
4.046377875E0,7.052204372E-2,1.972934615E-2,-4.165264070E-2,8.424694788E-2
4.056320875E0,5.214856639E-2,2.915360283E-2,-2.444019198E-2,6.455020153E-2
4.066263875E0,-1.569175238E-2,-1.361941007E-2,-1.755568027E-2,2.720149506E-2
4.076207875E0,-6.514846168E-2,-5.079618763E-2,-1.800708532E-2,8.455075315E-2
4.086150875E0,-5.877639446E-2,-1.013182688E-2,-2.474600136E-2,6.457308298E-2
4.096093875E0,-4.453488861E-2,-2.199122047E-2,-3.552768230E-2,6.106706388E-2
4.106036875E0,-3.391237984E-2,-4.399658846E-2,-2.520442307E-2,6.100010037E-2
4.115980875E0,-7.783152010E-2,-5.315791458E-2,-3.793673515E-2,1.016007149E-1
4.125923875E0,-8.982106221E-2,-5.612290059E-3,1.163636845E-1,1.471048201E-1
4.135866875E0,-1.076843517E-1,1.002230122E-2,2.980243957E-1,3.170408594E-1
4.145809875E0,6.726331735E-2,-1.132375438E-2,-2.200897819E-1,2.304172159E-1
4.155753875E0,2.305610122E-1,7.670790453E-2,4.410086989E-2,2.469562101E-1
4.165696875E0,1.057081134E0,3.935619426E-1,3.316289288E-1,1.175707988E0
4.175639875E0,4.535602955E-1,-3.219338067E-1,2.058752006E-1,5.930791817E-1
4.185582875E0,-3.173601877E-1,-2.171941676E-1,-6.031128126E-1,7.152872569E-1
4.195526875E0,-3.887935383E-1,1.721858464E-1,-1.104731995E-1,4.393321168E-1
4.205469875E0,-1.700638370E-1,3.363117445E-3,2.893260777E-2,1.725401837E-1
4.215412875E0,-1.447286282E-1,-1.911693254E-1,1.158280796E-1,2.662859943E-1
4.225355875E0,-2.305709708E-1,-9.837428704E-2,-9.842618108E-3,2.508731752E-1
4.235299875E0,-2.068723154E-1,6.036787866E-2,-1.470644903E-1,2.608992142E-1
4.245242875E0,-2.012639402E-1,-5.669545264E-2,-1.694464624E-2,2.097824325E-1
4.255185875E0,-9.651669058E-2,-6.183983297E-2,1.167987174E-1,1.636507772E-1
4.265128875E0,-1.038682030E-2,5.764652967E-2,6.300433338E-2,8.602647525E-2
4.275072875E0,2.875330838E-2,1.661153767E-1,-2.068569481E-2,1.698498428E-1
4.285015875E0,-3.333362427E-1,3.277095401E-1,5.411481142E-2,4.705688113E-1
4.294958875E0,-8.755026495E-1,-2.654835442E-1,4.497450238E-1,1.019439546E0
4.304901875E0,-1.216038057E0,-1.013607817E0,6.359770882E-1,1.706052818E0
4.314845875E0,-1.195561473E0,-1.416541201E0,8.297543997E-1,2.030873845E0
4.324788875E0,-1.003265042E0,-1.450001162E0,1.359292867E0,2.226369514E0
4.334731875E0,-6.830329216E-1,-1.144498105E0,1.650359076E0,2.121342727E0
4.344674875E0,-6.627726848E-1,-7.577512014E-1,1.542147580E0,1.841649715E0
4.354618875E0,-9.603195092E-1,-4.842066126E-1,1.595494652E0,1.924129098E0
4.364561875E0,-1.134902824E0,-2.660284317E-1,1.744740738E0,2.098307840E0
4.374504875E0,-1.297353896E0,-1.147106949E-1,1.812805837E0,2.232162780E0
4.384447875E0,-1.298311232E0,-6.529731899E-2,1.614642529E0,2.072907690E0
4.394391875E0,-1.061231122E0,-1.558009066E-1,1.272177540E0,1.664007545E0
4.404334875E0,-1.055663988E0,-5.273194857E-1,1.367959610E0,1.806600618E0
4.414277875E0,-1.146094979E0,-7.010229769E-1,8.980381840E-1,1.615994893E0
4.424220875E0,-9.186575130E-1,-7.802913406E-1,9.086052722E-1,1.509420333E0
4.434164875E0,-8.148033616E-1,-6.584220640E-1,1.102298384E0,1.520685983E0
4.444107875E0,-3.914329349E-1,-4.521326613E-1,1.464867269E0,1.582238858E0
4.454050875E0,-2.541559709E-1,-5.644676142E-1,1.965906993E0,2.061069928E0
4.463993875E0,-5.270610753E-2,-3.133391306E-2,1.522129637E0,1.523364165E0
4.473937875E0,-1.158381660E-1,-6.854230441E-2,2.082564792E0,2.086909831E0
4.483880875E0,-6.151610005E-1,-3.114376161E-1,2.069832480E0,2.181656009E0
4.493823875E0,-6.411435418E-1,-3.055018151E-1,1.590247945E0,1.741632834E0
4.503766875E0,-5.611538144E-1,-3.086702751E-1,1.110414319E0,1.281870080E0
4.513710875E0,-4.960191576E-1,-2.227369626E-1,9.298482066E-1,1.077155721E0
4.523653875E0,-3.953989550E-1,-4.929816753E-1,1.234532581E0,1.386882100E0
4.533596875E0,-1.644549868E-1,-7.124832273E-3,5.069103277E-1,5.329674345E-1
4.543539875E0,9.567974389E-2,1.988136645E-1,9.321666276E-1,9.579228091E-1
4.553483875E0,-3.044952169E-2,-7.258733511E-3,1.068287469E0,1.068745984E0
4.563426875E0,-3.702054955E-2,7.826001137E-2,8.546898508E-1,8.590633804E-1
4.573369875E0,-9.907873034E-2,-1.036959842E-1,1.047818706E0,1.057588527E0
4.583312875E0,-1.385977221E-1,1.397654110E-1,3.812016231E-1,4.290202514E-1
4.593256875E0,1.273183700E-1,7.051847327E-1,4.424172932E-1,8.421570731E-1
4.603199875E0,-1.507572994E-2,6.394871718E-1,8.812601835E-1,1.088940141E0
4.613142875E0,-1.693542226E-1,3.835574663E-1,1.031367565E0,1.113335635E0
4.623085875E0,-1.733263823E-1,4.703298542E-1,4.505811757E-1,6.739997051E-1
4.633029875E0,-1.472540863E-1,3.683161139E-1,4.892967600E-1,6.298824057E-1
4.642972875E0,-3.528046203E-1,8.401016325E-2,8.752299500E-1,9.473944653E-1
4.652915875E0,-2.204414919E-2,1.400384760E-1,9.750126851E-1,9.852646626E-1
4.662858875E0,1.536594187E-1,9.660798937E-2,1.052574247E0,1.068109014E0
4.672802875E0,2.003913894E-1,4.306737453E-2,1.176020079E0,1.193748187E0
4.682745875E0,3.077478768E-1,-1.060293156E-1,1.633568212E0,1.665681865E0
4.692688875E0,6.639061676E-1,2.004431373E-1,1.221519603E0,1.404656182E0
4.702631875E0,8.882268485E-1,3.087619302E-1,1.402624243E0,1.688678665E0
4.712575875E0,8.557084358E-1,1.606709611E-1,1.600013965E0,1.821564375E0
4.722518875E0,9.201878755E-1,4.982120097E-2,1.581979398E0,1.830815854E0
4.732461875E0,8.672458693E-1,-1.395362002E-1,1.488539137E0,1.728390729E0
4.742404875E0,1.011038404E0,-2.795091873E-1,1.521313366E0,1.847895667E0
4.752348875E0,1.080522768E0,-5.168213582E-1,1.678619839E0,2.062134412E0
4.762291875E0,1.100332915E0,-5.277310932E-1,1.502423936E0,1.935590430E0
4.772234875E0,1.167412319E0,-6.013773590E-1,1.960152163E0,2.359386097E0
4.782177875E0,1.261741137E0,-7.363702726E-1,2.160767793E0,2.608284749E0
4.792121875E0,1.637232077E0,-8.189060605E-1,1.969192543E0,2.688653061E0
4.802064875E0,1.791414091E0,-8.232201362E-1,1.942842650E0,2.767940281E0
4.812007875E0,1.801794360E0,-8.704375720E-1,2.004403306E0,2.832270661E0
4.821950875E0,1.818589172E0,-8.878090650E-1,1.620202062E0,2.592397776E0
4.831894875E0,1.664288606E0,-1.053522665E0,1.716898636E0,2.612949960E0
4.841837875E0,1.884747055E0,-1.230780423E0,1.565118951E0,2.741658119E0
4.851780875E0,1.952725030E0,-1.427969584E0,1.388823645E0,2.789455734E0
4.861723875E0,1.898720438E0,-1.554793353E0,1.271027393E0,2.763699026E0
4.871667875E0,1.898711814E0,-1.759112025E0,1.208690227E0,2.856661291E0
4.881610875E0,1.741815084E0,-1.957586989E0,1.152925916E0,2.862744273E0
4.891553875E0,1.745093618E0,-1.893652364E0,1.093806472E0,2.797799780E0
4.901496875E0,1.874375702E0,-1.970104124E0,8.799948460E-1,2.858143709E0
4.911440875E0,1.732123470E0,-2.397505183E0,6.380256602E-1,3.025782471E0
4.921383875E0,1.700442379E0,-2.769864646E0,3.936962458E-1,3.273935121E0
4.931326875E0,1.708581557E0,-3.057789731E0,1.930680442E-1,3.508077001E0
4.941269875E0,1.641835151E0,-3.113966855E0,1.836815089E-2,3.520333738E0
4.951213875E0,1.580936254E0,-3.239293737E0,-8.579970360E-2,3.605515905E0
4.961156875E0,1.489602746E0,-3.432050124E0,-1.171761551E-1,3.743209138E0
4.971099875E0,1.452132326E0,-3.562913734E0,-1.418780100E-1,3.850087264E0
4.981042875E0,1.342445723E0,-3.682026195E0,-2.305998597E-1,3.925895276E0
4.990986875E0,1.100126874E0,-3.839415699E0,-4.146824875E-1,4.015389596E0
5.000926375E0,9.099830224E-1,-4.012924222E0,-6.646030095E-1,4.168132324E0
5.010869375E0,7.875076818E-1,-4.062808573E0,-7.864896816E-1,4.212499005E0
5.020812375E0,6.480053955E-1,-4.164591056E0,-8.314693880E-1,4.295936568E0
5.030756375E0,5.235172972E-1,-4.384170960E0,-1.039802173E0,4.536101181E0
5.040699375E0,2.285094801E-1,-4.580328673E0,-1.327421449E0,4.774272200E0
5.050642375E0,-4.958497345E-2,-4.648953935E0,-1.395475584E0,4.854130557E0
5.060585375E0,-6.666425183E-2,-4.561795923E0,-1.285967760E0,4.740056882E0
5.070529375E0,-8.373914480E-2,-4.591671102E0,-1.136859083E0,4.731057422E0
5.080472375E0,-2.445131631E-1,-4.777199162E0,-1.080065223E0,4.903871879E0
5.090415375E0,-4.826932070E-1,-4.932745038E0,-1.073590894E0,5.071248737E0
5.100358375E0,-6.773043314E-1,-4.886784754E0,-1.079088592E0,5.050132531E0
5.110302375E0,-8.024128193E-1,-4.679438978E0,-1.170217887E0,4.889828769E0
5.120245375E0,-9.445498610E-1,-4.581809188E0,-1.222076111E0,4.835144248E0
5.130188375E0,-1.028145749E0,-4.585406395E0,-1.194941742E0,4.848806168E0
5.140131375E0,-1.106521828E0,-4.704916466E0,-1.146824931E0,4.967477925E0
5.150075375E0,-1.357825216E0,-4.773055825E0,-1.278035281E0,5.124365854E0
5.160018375E0,-1.734463087E0,-4.599445560E0,-1.347196147E0,5.096881313E0
5.169961375E0,-2.171326257E0,-4.309672755E0,-1.213649908E0,4.976030855E0
5.179905375E0,-2.298254252E0,-4.060189605E0,-1.183324420E0,4.813249310E0
5.189848375E0,-2.224140647E0,-3.923152505E0,-1.176864490E0,4.660787189E0
5.199791375E0,-2.165863788E0,-3.957393799E0,-1.244262933E0,4.679756604E0
5.209734375E0,-2.193458114E0,-3.966166377E0,-1.456257244E0,4.760506212E0
5.219678375E0,-2.457180988E0,-3.711326593E0,-1.391803386E0,4.663560888E0
5.229621375E0,-2.648812957E0,-3.322631178E0,-1.357315339E0,4.460761477E0
5.239564375E0,-2.830145639E0,-3.086089085E0,-1.328040669E0,4.392876301E0
5.249507375E0,-3.007489643E0,-2.829244291E0,-1.296125396E0,4.327765966E0
5.259451375E0,-2.967031589E0,-2.428365617E0,-1.140138640E0,4.000019017E0
5.269394375E0,-2.711969902E0,-2.151976504E0,-9.433722317E-1,3.588277413E0
5.279337375E0,-2.384077637E0,-2.173274403E0,-8.345087707E-1,3.332169368E0
5.289280375E0,-2.383804425E0,-2.262235111E0,-9.021293347E-1,3.407941985E0
5.299224375E0,-2.809840013E0,-1.973262790E0,-8.669889573E-1,3.541276153E0
5.309167375E0,-3.134197052E0,-1.332392752E0,-6.901001588E-1,3.474866880E0
5.319110375E0,-3.312520757E0,-8.249906731E-1,-5.707496434E-1,3.461092101E0
5.329053375E0,-3.443199010E0,-5.441746330E-1,-4.900263463E-1,3.520208982E0
5.338997375E0,-3.543334333E0,-2.796641386E-1,-4.414310141E-1,3.581660448E0
5.348940375E0,-3.644747564E0,1.029542649E-1,-3.156221759E-1,3.659836300E0
5.358883375E0,-3.841132149E0,2.021692353E-1,-2.165432994E-1,3.852539368E0
5.368826375E0,-4.022822973E0,7.088363189E-1,-1.330839439E-1,4.086962801E0
5.378770375E0,-4.303993647E0,1.394190220E0,2.878173499E-1,4.533317384E0
5.388713375E0,-4.426807103E0,1.953468211E0,6.463921487E-1,4.881647466E0
5.398656375E0,-4.467346726E0,2.367644037E0,8.028797194E-1,5.119330122E0
5.408599375E0,-4.452060058E0,2.662905039E0,5.662852943E-1,5.218484553E0
5.418543375E0,-4.479005197E0,2.875332044E0,3.683921278E-2,5.322628960E0
5.428486375E0,-4.515605843E0,2.996074709E0,-3.243766272E-1,5.428847022E0
5.438429375E0,-4.495591701E0,3.065207509E0,-3.306135598E-1,5.451160165E0
5.448372375E0,-4.463283788E0,3.194992307E0,-3.477877092E-1,5.499984937E0
5.458316375E0,-4.459903805E0,3.469109777E0,-2.072665456E-1,5.654062612E0
5.468259375E0,-4.374604038E0,3.945613414E0,-3.071659327E-1,5.899099644E0
5.478202375E0,-4.029250233E0,4.362829792E0,9.280700684E-2,5.939507924E0
5.488145375E0,-3.699640055E0,4.462647026E0,3.959586798E-1,5.810278676E0
5.498089375E0,-3.710661472E0,4.579769679E0,7.748332572E-1,5.945053864E0
5.508032375E0,-3.698454824E0,4.891467789E0,1.009507603E0,6.214831520E0
5.517975375E0,-3.456511074E0,5.310448272E0,9.538077575E-1,6.407657832E0
5.527918375E0,-2.928798400E0,5.820644735E0,9.451939318E-1,6.584159534E0
5.537862375E0,-2.252540427E0,6.220348703E0,1.207416118E0,6.724918590E0
5.547805375E0,-1.749673449E0,6.279598539E0,1.686853888E0,6.733512533E0
5.557748375E0,-1.194548370E0,6.198853168E0,2.060122886E0,6.640544610E0
5.567691375E0,-7.091427860E-1,5.987335989E0,2.231174994E0,6.428780413E0
5.577635375E0,-4.211421990E-1,5.713089881E0,2.286592273E0,6.168084059E0
5.587578375E0,-9.203378566E-2,5.509420250E0,2.133449894E0,5.908789230E0
5.597521375E0,2.218795415E-1,5.319779844E0,2.067805543E0,5.711839273E0
5.607464375E0,7.829473653E-1,5.107690807E0,2.200261934E0,5.616285653E0
5.617408375E0,1.310684379E0,4.754700830E0,2.497080342E0,5.528153738E0
5.627351375E0,1.672719121E0,4.357598289E0,2.633238605E0,5.359160163E0
5.637294375E0,1.855530857E0,3.956185765E0,2.499209313E0,5.033929653E0
5.647237375E0,2.138996855E0,3.795965039E0,2.272293491E0,4.914058998E0
5.657181375E0,2.638596994E0,3.542567178E0,2.246015519E0,4.955457801E0
5.667124375E0,3.063572920E0,3.036646784E0,2.405756189E0,4.939065252E0
5.677067375E0,3.318118882E0,2.703259597E0,2.327452323E0,4.871812771E0
5.687010375E0,3.347392967E0,2.474718250E0,2.198602202E0,4.707772481E0
5.696954375E0,3.244601547E0,2.254964683E0,2.434336209E0,4.640937157E0
5.706897375E0,3.583442724E0,2.147557179E0,2.493088740E0,4.865033921E0
5.716840375E0,3.989038931E0,1.815328910E0,2.534385577E0,5.062702924E0
5.726783375E0,4.209970127E0,1.399135210E0,2.569341694E0,5.126689433E0
5.736727375E0,4.390862514E0,1.178019826E0,2.566714833E0,5.220673267E0
5.746670375E0,4.435593714E0,9.336600065E-1,2.726563675E0,5.289646687E0
5.756613375E0,4.239133700E0,6.535111338E-1,2.981246170E0,5.223519891E0
5.766556375E0,4.011779337E0,2.968081748E-1,2.886985545E0,4.951479989E0
5.776500375E0,3.791760891E0,-1.812525755E-1,2.665723397E0,4.638575684E0
5.786443375E0,3.575796027E0,-5.210383701E-1,2.481823786E0,4.383748113E0
5.796386375E0,3.384473085E0,-6.186669910E-1,2.438042175E0,4.216806440E0
5.806329375E0,3.304671455E0,-7.228164268E-1,2.464285648E0,4.185214542E0
5.816273375E0,3.105510027E0,-1.015851393E0,2.573887028E0,4.159452009E0
5.826216375E0,2.842456367E0,-1.320143420E0,2.610575967E0,4.078902269E0
5.836159375E0,2.657407486E0,-1.513971017E0,2.513275959E0,3.958595564E0
5.846102375E0,2.497245818E0,-1.532630067E0,2.507315308E0,3.856400089E0
5.856046375E0,2.468947633E0,-1.478831590E0,2.430633752E0,3.767044694E0
5.865989375E0,2.462185036E0,-1.674803946E0,2.373018798E0,3.807695054E0
5.875932375E0,2.347562944E0,-1.958226675E0,2.374555446E0,3.870945240E0
5.885875375E0,2.158834704E0,-2.218751707E0,2.173730485E0,3.782661846E0
5.895819375E0,1.884882418E0,-2.457950774E0,1.957371812E0,3.664097180E0
5.905762375E0,1.863003306E0,-2.409554540E0,1.923565550E0,3.602337966E0
5.915705375E0,1.986964863E0,-2.526016458E0,1.927417696E0,3.747496162E0
5.925648375E0,1.889145330E0,-2.981915091E0,1.901680591E0,4.009623020E0
5.935592375E0,1.727142081E0,-3.369090815E0,1.667610701E0,4.136993853E0
5.945535375E0,1.474623641E0,-3.551585339E0,1.393861606E0,4.090369602E0
5.955478375E0,1.199072142E0,-3.490756170E0,1.237004345E0,3.892728142E0
5.965421375E0,9.849374565E-1,-3.176275955E0,1.366056926E0,3.595127572E0
5.975365375E0,1.098223751E0,-3.050040416E0,1.399846670E0,3.531063954E0
5.985308375E0,1.138795827E0,-3.402937422E0,1.362576663E0,3.838418190E0
5.995251125E0,1.037490769E0,-3.820174266E0,1.200590079E0,4.136609125E0
6.005195125E0,8.741435373E-1,-3.946243159E0,9.874308555E-1,4.160766959E0
6.015138125E0,5.863415363E-1,-3.978927925E0,8.543426724E-1,4.111637780E0
6.025081125E0,4.353944948E-1,-4.068943471E0,8.340971267E-1,4.176312651E0
6.035024125E0,5.102052337E-1,-4.114260562E0,8.693173917E-1,4.235936978E0
6.044968125E0,5.275507066E-1,-4.058835390E0,9.070668697E-1,4.192281571E0
6.054911125E0,3.940631586E-1,-3.973569537E0,8.706387162E-1,4.086875629E0
6.064854125E0,1.927259821E-1,-4.010498212E0,8.760181546E-1,4.109579908E0
6.074797125E0,6.775402665E-2,-4.051181969E0,9.136463030E-1,4.153482337E0
6.084741125E0,-1.742908806E-2,-4.073729417E0,1.042923563E0,4.205147405E0
6.094684125E0,5.165459543E-2,-4.168957171E0,1.273805405E0,4.359524321E0
6.104627125E0,7.635425761E-2,-4.272142986E0,1.407350109E0,4.498629791E0
6.114570125E0,-2.492273346E-2,-4.284685848E0,1.273514360E0,4.470010379E0
6.124514125E0,-2.698677135E-1,-4.271670531E0,1.087320156E0,4.416136641E0
6.134457125E0,-6.730580834E-1,-4.218868420E0,9.135581562E-1,4.368803776E0
6.144400125E0,-1.044111571E0,-4.154211078E0,8.248431771E-1,4.362110146E0
6.154343125E0,-1.138260807E0,-4.145220984E0,8.313865037E-1,4.378321390E0
6.164287125E0,-1.271817644E0,-4.243029699E0,9.063115557E-1,4.521307530E0
6.174230125E0,-1.406319684E0,-4.210816219E0,8.260876107E-1,4.515653776E0
6.184173125E0,-1.505344474E0,-4.055904765E0,6.092446415E-1,4.368936310E0
6.194116125E0,-1.655326578E0,-4.001608105E0,5.603339982E-1,4.366571618E0
6.204060125E0,-1.753244198E0,-3.978848403E0,5.306814520E-1,4.380265133E0
6.214003125E0,-1.897556842E0,-3.902908859E0,5.576351427E-1,4.375428720E0
6.223946125E0,-1.974946203E0,-3.691674101E0,4.491225147E-1,4.210769669E0
6.233889125E0,-2.045739759E0,-3.543819067E0,2.649011616E-1,4.100472822E0
6.243833125E0,-2.240962648E0,-3.586790255E0,9.344449952E-2,4.230332114E0
6.253776125E0,-2.574579338E0,-3.608171768E0,6.782843247E-3,4.432539710E0
6.263719125E0,-2.771489587E0,-3.383690143E0,-9.343974866E-2,4.374842226E0
6.273662125E0,-2.834226118E0,-2.993679689E0,-1.362132275E-1,4.124743606E0
6.283606125E0,-2.806115044E0,-2.722945418E0,-1.631852639E-1,3.913482186E0
6.293549125E0,-2.919390814E0,-2.706517081E0,-2.320373976E-1,3.987721002E0
6.303492125E0,-3.124596801E0,-2.538265205E0,-5.554433139E-1,4.063792895E0
6.313435125E0,-3.237929581E0,-2.135343515E0,-7.865639412E-1,3.957595575E0
6.323379125E0,-3.381807339E0,-1.736019031E0,-7.204295933E-1,3.869031113E0
6.333322125E0,-3.553417271E0,-1.444834709E0,-5.832773030E-1,3.880017275E0
6.343265125E0,-3.692222570E0,-1.108998708E0,-3.183387923E-1,3.868297458E0
6.353209125E0,-3.814413589E0,-6.883786654E-1,-1.600149035E-2,3.876064017E0
6.363152125E0,-3.850942023E0,-1.857982010E-1,1.853251247E-1,3.859873163E0
6.373095125E0,-3.789618179E0,1.951151544E-1,9.010906499E-2,3.795707511E0
6.383038125E0,-3.802163380E0,6.784337211E-1,-1.051727716E-1,3.863648534E0
6.392982125E0,-3.945918931E0,1.126748516E0,-3.268314345E-1,4.116631780E0
6.402925125E0,-3.964409581E0,1.360948799E0,-5.080015643E-1,4.222178413E0
6.412868125E0,-3.772323284E0,1.743806938E0,-4.739590748E-1,4.182812786E0
6.422811125E0,-3.534961705E0,2.028964536E0,-2.940496047E-1,4.086455250E0
6.432755125E0,-3.419096788E0,2.201238711E0,-1.814334007E-1,4.070453634E0
6.442698125E0,-3.561209856E0,2.256863274E0,-1.745721316E-1,4.219730193E0
6.452641125E0,-3.691795430E0,2.386541653E0,-1.983993892E-1,4.400488255E0
6.462584125E0,-3.595986463E0,2.752456316E0,-2.122270310E-1,4.533450642E0
6.472528125E0,-3.563694338E0,2.929407679E0,-1.344799666E-1,4.615130718E0
6.482471125E0,-3.583064409E0,3.073956113E0,-1.795106900E-1,4.724381529E0
6.492414125E0,-3.434948589E0,3.386236020E0,-3.922268406E-1,4.839349966E0
6.502357125E0,-3.148437653E0,3.877777526E0,-4.469484468E-1,5.014935804E0
6.512301125E0,-2.924626704E0,4.458928782E0,-1.013111973E-1,5.333455840E0
6.522244125E0,-2.755824312E0,4.888513775E0,3.780153291E-1,5.624502659E0
6.532187125E0,-2.487386827E0,5.141896434E0,7.183292735E-1,5.756925317E0
6.542130125E0,-2.329374595E0,5.243406436E0,1.021516468E0,5.827760544E0
6.552074125E0,-2.313536242E0,5.399382668E0,9.701662204E-1,5.953738795E0
6.562017125E0,-2.286056083E0,5.587041453E0,7.787649250E-1,6.086670635E0
6.571960125E0,-2.112835535E0,5.691513070E0,7.227766657E-1,6.113902284E0
6.581904125E0,-1.820264253E0,5.808539829E0,9.068283033E-1,6.154253364E0
6.591847125E0,-1.339907593E0,5.889648312E0,1.277340339E0,6.173727232E0
6.601790125E0,-1.071282413E0,5.655430487E0,1.487155101E0,5.945012220E0
6.611733125E0,-1.068190698E0,5.194698545E0,1.405305484E0,5.486420313E0
6.621677125E0,-1.064398194E0,4.879817212E0,1.129653705E0,5.120710598E0
6.631620125E0,-1.021314155E0,4.540482822E0,8.334939864E-1,4.727978330E0
6.641563125E0,-9.598289278E-1,4.159610982E0,4.486825848E-1,4.292429516E0
6.651506125E0,-6.586028892E-1,3.839736711E0,2.131555688E-1,3.901636973E0
6.661450125E0,6.086458135E-2,3.679887868E0,2.614287195E-1,3.689664510E0
6.671393125E0,7.340547752E-1,3.664716098E0,7.392340927E-1,3.809914374E0
6.681336125E0,1.077856657E0,3.554798968E0,1.122969022E0,3.880648155E0
6.691279125E0,1.070607571E0,3.363273420E0,1.112055779E0,3.700604913E0
6.701223125E0,1.112448200E0,3.126238992E0,7.480490626E-1,3.401542096E0
6.711166125E0,1.416193585E0,2.970791348E0,5.613712943E-1,3.338613969E0
6.721109125E0,1.835317617E0,2.844755784E0,6.472730318E-1,3.446735935E0
6.731052125E0,2.087607723E0,2.797441285E0,8.695385626E-1,3.597204617E0
6.740996125E0,2.537614118E0,2.788980364E0,1.197384343E0,3.956213612E0
6.750939125E0,2.886720666E0,2.487818352E0,1.616910664E0,4.139661393E0
6.760882125E0,2.896106617E0,2.207907461E0,1.671120200E0,4.006860569E0
6.770826125E0,2.746359716E0,2.095712841E0,1.474426736E0,3.756120100E0
6.780769125E0,2.605825104E0,1.961798154E0,1.317053751E0,3.517613829E0
6.790712125E0,2.824441972E0,1.907528391E0,1.354074958E0,3.667377266E0
6.800655125E0,3.187072839E0,1.824537106E0,1.697134316E0,4.045569653E0
6.810599125E0,3.499510621E0,1.822489995E0,2.136864375E0,4.487118644E0
6.820542125E0,3.581462857E0,1.744899198E0,2.637167349E0,4.777677368E0
6.830485125E0,3.537180431E0,1.648670985E0,3.033843044E0,4.943072428E0
6.840428125E0,3.489132105E0,1.389810655E0,3.099576273E0,4.869598503E0
6.850372125E0,3.519059617E0,1.092435885E0,2.755496868E0,4.601082453E0
6.860315125E0,3.647665617E0,7.217165655E-1,2.405873718E0,4.428833661E0
6.870258125E0,3.600522441E0,1.594833916E-1,2.303597145E0,4.277353926E0
6.880201125E0,3.347414017E0,-2.253411663E-1,2.227131498E0,4.026918667E0
6.890145125E0,3.070522628E0,-1.371967292E-1,2.487942313E0,3.954338011E0
6.900088125E0,2.893220431E0,-7.158629179E-2,2.895569842E0,4.093919121E0
6.910031125E0,2.794092000E0,-4.559226072E-1,2.996286378E0,4.122201788E0
6.919974125E0,2.741364732E0,-8.536800367E-1,2.631311363E0,3.894566688E0
6.929918125E0,2.749422196E0,-1.068098019E0,2.232768652E0,3.699379900E0
6.939861125E0,2.624259036E0,-1.277739412E0,2.044422820E0,3.563568178E0
6.949804125E0,2.394089678E0,-1.468190827E0,2.003639660E0,3.449901676E0
6.959748125E0,2.105098646E0,-1.151955278E0,2.417035468E0,3.405950928E0
6.969691125E0,2.040308865E0,-8.384603190E-1,2.853299736E0,3.606548953E0
6.979634125E0,2.115942746E0,-1.137934824E0,2.917773474E0,3.779617893E0
6.989577125E0,2.109358781E0,-1.672902431E0,2.721529223E0,3.828148158E0
6.999521292E0,1.940919940E0,-2.039777792E0,2.444338456E0,3.728626307E0
7.009464292E0,1.698880295E0,-2.357463450E0,1.990374666E0,3.522132804E0
7.019407292E0,1.486143972E0,-2.646590722E0,1.682436901E0,3.470397712E0
7.029350292E0,1.331863725E0,-2.731077726E0,1.819189242E0,3.541482179E0
7.039294292E0,1.138916426E0,-2.560523216E0,2.046331351E0,3.469997372E0
7.049237292E0,1.043537959E0,-2.499547867E0,2.159105430E0,3.463877490E0
7.059180292E0,9.129434676E-1,-2.568918648E0,2.319859421E0,3.579742523E0
7.069123292E0,8.345906317E-1,-2.683863798E0,2.245768036E0,3.597657638E0
7.079067292E0,7.371352346E-1,-2.961249862E0,2.006730498E0,3.652305627E0
7.089010292E0,5.803124723E-1,-3.311613854E0,1.770010504E0,3.799537613E0
7.098953292E0,4.140214598E-1,-3.498549339E0,1.578768107E0,3.860540115E0
7.108897292E0,3.240544456E-1,-3.487238485E0,1.654471862E0,3.873386202E0
7.118840292E0,4.656813177E-1,-3.360041664E0,1.892467718E0,3.884349770E0
7.128783292E0,7.299547076E-1,-3.336206074E0,2.151488993E0,4.036336176E0
7.138726292E0,7.802264366E-1,-3.636524917E0,2.234913411E0,4.339113356E0
7.148670292E0,4.942443815E-1,-3.945616338E0,1.904276609E0,4.408904081E0
7.158613292E0,8.758339673E-2,-4.031723020E0,1.342142837E0,4.250153969E0
7.168556292E0,-1.684249538E-1,-4.116080800E0,9.339278090E-1,4.224063124E0
7.178499292E0,-2.217965841E-1,-4.145130937E0,7.972023654E-1,4.226918005E0
7.188443292E0,-3.139694604E-1,-4.204715234E0,8.635343492E-1,4.303939892E0
7.198386292E0,-4.018732846E-1,-4.132915519E0,9.434903455E-1,4.258246923E0
7.208329292E0,-4.625320074E-1,-4.048270640E0,9.275157523E-1,4.178841527E0
7.218272292E0,-4.830466712E-1,-4.044487492E0,9.360316372E-1,4.179398089E0
7.228216292E0,-4.914423957E-1,-4.016734267E0,9.853306818E-1,4.164918529E0
7.238159292E0,-3.919830117E-1,-4.095631918E0,1.082820139E0,4.254450721E0
7.248102292E0,-3.616692916E-1,-4.155930160E0,1.079918751E0,4.309151271E0
7.258045292E0,-5.025716937E-1,-4.109269964E0,8.938778901E-1,4.235291681E0
7.267989292E0,-7.417978044E-1,-3.978190007E0,6.431260403E-1,4.097544486E0
7.277932292E0,-1.003189248E0,-3.822701433E0,2.223859835E-1,3.958394932E0
7.287875292E0,-1.333353011E0,-3.811718608E0,5.616352960E-2,4.038586799E0
7.297819292E0,-1.549219349E0,-3.827518954E0,1.384937878E-1,4.131484293E0
7.307762292E0,-1.765663976E0,-3.764245064E0,1.385744063E-1,4.160085701E0
7.317705292E0,-1.986222705E0,-3.485549809E0,4.909212627E-2,4.012050366E0
7.327648292E0,-2.109892631E0,-3.143661940E0,-2.624113441E-2,3.786151860E0
7.337592292E0,-2.094453497E0,-2.921460729E0,-8.128908835E-2,3.595591211E0
7.347535292E0,-2.109595008E0,-2.852636077E0,-1.413155079E-2,3.547974547E0
7.357478292E0,-2.192369947E0,-2.701045257E0,5.603971481E-2,3.479263128E0
7.367421292E0,-2.311689107E0,-2.501516039E0,1.400454926E-1,3.408973711E0
7.377365292E0,-2.357389483E0,-2.332680026E0,1.705749750E-1,3.320809705E0
7.387308292E0,-2.366700004E0,-2.339198502E0,1.405764198E-1,3.330597585E0
7.397251292E0,-2.269834006E0,-2.351254292E0,-1.097439786E-1,3.269952125E0
7.407195292E0,-2.232668080E0,-2.071950341E0,-6.167280543E-1,3.107754570E0
7.417138292E0,-2.545649361E0,-1.841844864E0,-8.827178943E-1,3.263727019E0
7.427081292E0,-2.888971260E0,-1.783698982E0,-8.933048630E-1,3.510801985E0
7.437024292E0,-3.102163666E0,-1.677942731E0,-7.416620028E-1,3.604021885E0
7.446968292E0,-3.310105857E0,-1.366735788E0,-3.252361679E-1,3.595906849E0
7.456911292E0,-3.457959137E0,-9.579037321E-1,2.640017410E-2,3.588280636E0
7.466854292E0,-3.408144953E0,-4.802879548E-1,2.228397091E-1,3.449026830E0
7.476797292E0,-3.168035474E0,1.200480151E-1,2.925601727E-1,3.183779475E0
7.486741292E0,-2.939120197E0,5.141012335E-1,2.911270932E-1,2.997913040E0
7.496684292E0,-3.009141189E0,6.289516586E-1,1.744527753E-1,3.079114265E0
7.506627292E0,-3.181204573E0,6.021006596E-1,5.739151798E-2,3.238191088E0
7.516570292E0,-3.360305958E0,6.871758932E-1,-1.498765625E-2,3.429882136E0
7.526514292E0,-3.317535037E0,6.317589068E-1,8.773279309E-2,3.378291740E0
7.536457292E0,-3.246649242E0,5.765149981E-1,-3.671532489E-2,3.297642924E0
7.546400292E0,-3.241350203E0,8.034296501E-1,-3.366296138E-1,3.356362590E0
7.556344292E0,-3.311239048E0,9.740671903E-1,-5.585296936E-1,3.496436234E0
7.566287292E0,-3.507630064E0,1.219220477E0,-5.266343017E-1,3.750641402E0
7.576230292E0,-3.547182970E0,1.447361290E0,-3.712455690E-1,3.849049883E0
7.586173292E0,-3.518995590E0,1.554806802E0,-2.092907055E-1,3.852863448E0
7.596117292E0,-3.440862463E0,1.694493860E0,-1.153655648E-1,3.837206425E0
7.606060292E0,-3.239046984E0,2.005641162E0,-4.175365135E-2,3.809956063E0
7.616003292E0,-3.099158489E0,2.318073682E0,-4.865248874E-2,3.870480074E0
7.625946292E0,-3.108519297E0,2.767902321E0,-1.602730581E-1,4.165316666E0
7.635890292E0,-3.031044859E0,3.206786141E0,-2.463674614E-1,4.419435170E0
7.645833292E0,-2.866395452E0,3.240638012E0,-8.702703416E-2,4.327300696E0
7.655776292E0,-2.755890678E0,3.168532487E0,-3.326773345E-3,4.199350261E0
7.665720292E0,-2.588725507E0,3.334565345E0,-1.267923398E-1,4.223375674E0
7.675663292E0,-2.346309009E0,3.470817749E0,5.765471578E-2,4.189876595E0
7.685606292E0,-2.132443003E0,3.679988440E0,1.755138257E-1,4.256810213E0
7.695549292E0,-1.836334740E0,4.033498819E0,2.235422704E-1,4.437477792E0
7.705493292E0,-1.419426218E0,4.317487559E0,3.647306013E-1,4.559440538E0
7.715436292E0,-1.078584416E0,4.429434841E0,4.817430344E-1,4.584246253E0
7.725379292E0,-9.267892358E-1,4.465315695E0,5.974123621E-1,4.599443888E0
7.735322292E0,-7.268141681E-1,4.567760083E0,7.435988930E-1,4.684616348E0
7.745266292E0,-1.957039507E-1,4.749164101E0,1.077242188E0,4.873736803E0
7.755209292E0,3.529116243E-1,4.773444080E0,1.405034173E0,4.988430217E0
7.765152292E0,5.824218553E-1,4.484136128E0,1.411688305E0,4.737040839E0
7.775095292E0,5.520496631E-1,3.928458853E0,1.124862497E0,4.123452852E0
7.785039292E0,2.519211285E-1,3.494729353E0,9.252198431E-1,3.623896972E0
7.794982292E0,2.257900497E-2,3.229003222E0,7.443233630E-1,3.313757518E0
7.804925292E0,9.536192944E-2,2.877379155E0,5.415653130E-1,2.929453479E0
7.814869292E0,5.517152023E-1,2.458304531E0,4.911260614E-1,2.566876631E0
7.824812292E0,8.254768690E-1,2.052113662E0,4.294133779E-1,2.253215124E0
7.834755292E0,7.764690158E-1,1.686203678E0,4.247484693E-1,1.904362948E0
7.844698292E0,5.180352402E-1,1.476692094E0,4.688554788E-1,1.633647915E0
7.854642292E0,2.892351535E-1,1.440734056E0,3.612824982E-1,1.513240443E0
7.864585292E0,3.806932077E-1,1.408220029E0,2.277215677E-1,1.476437632E0
7.874528292E0,6.402818084E-1,1.285260100E0,2.902993467E-1,1.464966904E0
7.884471292E0,7.905947194E-1,1.128269377E0,3.507183337E-1,1.421631157E0
7.894415292E0,7.005046213E-1,9.901312459E-1,3.661432886E-1,1.266936272E0
7.904358292E0,4.215649527E-1,9.691081667E-1,3.106070191E-1,1.101528197E0
7.914301292E0,2.956717685E-1,1.054476346E0,1.976101613E-1,1.112830596E0
7.924244292E0,6.635163045E-1,1.197917901E0,2.058230142E-1,1.384783123E0
7.934188292E0,1.173131846E0,1.321511668E0,6.051499826E-1,1.867843120E0
7.944131292E0,1.483295354E0,1.362410603E0,8.778781539E-1,2.197042970E0
7.954074292E0,1.494524055E0,1.271528499E0,9.212218094E-1,2.167726112E0
7.964018292E0,1.163174988E0,1.146503334E0,8.422092614E-1,1.837596906E0
7.973961292E0,9.051951760E-1,1.326291182E0,7.066898060E-1,1.754376553E0
7.983904292E0,1.022761048E0,1.478837437E0,7.716878937E-1,1.956655956E0
7.993847292E0,1.372560199E0,1.466196342E0,1.000079114E0,2.243615708E0
8.003791125E0,1.883658595E0,1.568330242E0,1.368350204E0,2.807171483E0
8.013734125E0,2.299562274E0,1.718389091E0,1.803409946E0,3.390152674E0
8.023677125E0,2.546427626E0,1.802496611E0,2.140096132E0,3.783292103E0
8.033620125E0,2.448267785E0,1.866133613E0,2.243777644E0,3.809331690E0
8.043564125E0,2.372677613E0,1.737920546E0,2.063918606E0,3.593010839E0
8.053507125E0,2.277920852E0,1.519066281E0,1.988748702E0,3.384022336E0
8.063450125E0,2.264299763E0,1.390708787E0,2.073195798E0,3.370350897E0
8.073394125E0,2.305965267E0,1.280892230E0,2.185203892E0,3.425387098E0
8.083337125E0,2.309522129E0,1.270674806E0,2.304911599E0,3.501588840E0
8.093280125E0,2.369811892E0,1.388742954E0,2.374851900E0,3.631051768E0
8.103223125E0,2.506856594E0,1.278667949E0,2.469697831E0,3.744159329E0
8.113167125E0,2.575395317E0,1.031054739E0,2.664143479E0,3.846218323E0
8.123110125E0,2.653223804E0,8.813993472E-1,2.700294474E0,3.886907718E0
8.133053125E0,2.653025583E0,7.115698922E-1,2.539066858E0,3.740553030E0
8.142996125E0,2.699325883E0,5.364422750E-1,2.420768330E0,3.665276230E0
8.152940125E0,2.770728865E0,4.172649103E-1,2.512547396E0,3.763501410E0
8.162883125E0,2.854172725E0,1.680343598E-1,2.721352637E0,3.947188577E0
8.172826125E0,2.803282068E0,-1.141984606E-1,3.004038616E0,4.110435458E0
8.182770125E0,2.695775454E0,-2.853914863E-1,2.959607964E0,4.013468935E0
8.192713125E0,2.596230993E0,-5.082750678E-1,2.837246790E0,3.879269037E0
8.202656125E0,2.475169363E0,-8.379761696E-1,2.813650936E0,3.839960810E0
8.212599125E0,2.252666435E0,-1.231614236E0,2.583623811E0,3.642319548E0
8.222543125E0,1.927390945E0,-1.378228490E0,2.480987635E0,3.430692243E0
8.232486125E0,1.776321111E0,-1.420127299E0,2.592152560E0,3.448381233E0
8.242429125E0,1.841301365E0,-1.595527396E0,2.651522849E0,3.600926521E0
8.252372125E0,1.803968794E0,-1.886274932E0,2.709364675E0,3.762046447E0
8.262316125E0,1.821363822E0,-2.058196521E0,2.575582720E0,3.766585382E0
8.272259125E0,1.830823009E0,-2.124161299E0,2.398282278E0,3.689950135E0
8.282202125E0,1.661375377E0,-2.328519732E0,2.470483696E0,3.779611353E0
8.292145125E0,1.505734337E0,-2.444641342E0,2.537987462E0,3.832086578E0
8.302089125E0,1.304548164E0,-2.468074059E0,2.511117167E0,3.754856176E0
8.312032125E0,1.159322477E0,-2.715860347E0,2.371527758E0,3.787356590E0
8.321975125E0,9.784585954E-1,-3.057096836E0,2.150007162E0,3.863386220E0
8.331919125E0,8.171621284E-1,-3.281034670E0,1.877585385E0,3.867592188E0
8.341862125E0,7.349602166E-1,-3.281222951E0,1.633556517E0,3.738328165E0
8.351805125E0,5.591853127E-1,-3.343122160E0,1.472675056E0,3.695663109E0
8.361748125E0,3.720174015E-1,-3.506305085E0,1.321455535E0,3.765476999E0
8.371692125E0,3.365783045E-1,-3.558285663E0,1.293469591E0,3.801018995E0
8.381635125E0,4.019913983E-1,-3.616256129E0,1.260603561E0,3.850717701E0
8.391578125E0,2.919451918E-1,-3.796480764E0,1.150605887E0,3.977737056E0
8.401521125E0,-4.451675311E-2,-4.044115609E0,1.053249454E0,4.179256777E0
8.411465125E0,-3.157572466E-1,-3.989841169E0,8.948625612E-1,4.101135720E0
8.421408125E0,-4.875532664E-1,-3.758468015E0,6.766060276E-1,3.849881261E0
8.431351125E0,-6.441338079E-1,-3.734362868E0,6.201137383E-1,3.839910864E0
8.441295125E0,-7.251171599E-1,-3.826255955E0,5.931811707E-1,3.939275750E0
8.451238125E0,-6.654081711E-1,-3.941859502E0,6.424593115E-1,4.048923108E0
8.461181125E0,-6.292412420E-1,-4.031483869E0,6.623505159E-1,4.133704747E0
8.471124125E0,-6.384690253E-1,-3.882172294E0,5.981673838E-1,3.979536233E0
8.481068125E0,-7.203490479E-1,-3.589318006E0,6.096247105E-1,3.711300148E0
8.491011125E0,-8.945190373E-1,-3.547871187E0,7.121747866E-1,3.727565854E0
8.500954125E0,-1.096936633E0,-3.737064282E0,7.421615012E-1,3.964810603E0
8.510897125E0,-1.218596141E0,-3.974409197E0,5.440929182E-1,4.192486389E0
8.520841125E0,-1.423192994E0,-4.113557727E0,3.410049391E-1,4.366133282E0
8.530784125E0,-1.693536378E0,-4.141660030E0,1.269629323E-1,4.476330289E0
8.540727125E0,-1.880862457E0,-4.033212306E0,-8.887066126E-2,4.451105827E0
8.550671125E0,-1.964916620E0,-3.797743177E0,-2.634180884E-1,4.284056449E0
8.560614125E0,-2.031940037E0,-3.608505059E0,-3.779442854E-1,4.158477000E0
8.570557125E0,-2.167820266E0,-3.544646448E0,-3.980829732E-1,4.174018831E0
8.580500125E0,-2.201231402E0,-3.461789648E0,-5.378619790E-1,4.137475409E0
8.590444125E0,-2.210681965E0,-3.407266116E0,-5.682487893E-1,4.101156401E0
8.600387125E0,-2.221029344E0,-3.288902684E0,-4.927333148E-1,3.999079685E0
8.610330125E0,-2.300688594E0,-2.999911652E0,-3.096344809E-1,3.793219139E0
8.620273125E0,-2.257122598E0,-2.609539840E0,-3.601802981E-1,3.469010010E0
8.630217125E0,-2.386352642E0,-2.347448924E0,-3.400833448E-1,3.364647390E0
8.640160125E0,-2.670758726E0,-2.252869041E0,-5.858676195E-2,3.494539097E0
8.650103125E0,-2.833730567E0,-2.037258811E0,3.248549294E-1,3.505136675E0
8.660047125E0,-2.804383684E0,-1.701432166E0,3.598446679E-1,3.299837488E0
8.669990125E0,-2.867447659E0,-1.354035636E0,5.137925370E-1,3.212421415E0
8.679933125E0,-3.081693733E0,-1.134928186E0,5.994050932E-1,3.338290688E0
8.689876125E0,-3.375930887E0,-9.654507333E-1,3.510352528E-1,3.528771773E0
8.699820125E0,-3.596869685E0,-7.779276037E-1,-1.887072821E-2,3.680081384E0
8.709763125E0,-3.649045560E0,-3.287924445E-1,-3.827072811E-1,3.683762049E0
8.719706125E0,-3.594671717E0,8.971382976E-3,-3.837902220E-1,3.615112747E0
8.729649125E0,-3.526280928E0,1.278657424E-1,-1.833955801E-1,3.533361115E0
8.739593125E0,-3.474998508E0,2.985874826E-1,-4.989085592E-2,3.488159717E0
8.749536125E0,-3.489236478E0,7.825457346E-1,-7.585358977E-2,3.576716762E0
8.759479125E0,-3.406253086E0,1.313543082E0,-1.819757299E-1,3.655279836E0
8.769423125E0,-3.328792097E0,1.629628943E0,-1.147881523E-3,3.706285018E0
8.779366125E0,-3.256987411E0,1.845559600E0,1.137095603E-1,3.745261953E0
8.789309125E0,-3.274837791E0,2.206593592E0,1.156096861E-2,3.948892439E0
8.799252125E0,-3.182081655E0,2.543239431E0,-1.999700975E-1,4.078443147E0
8.809196125E0,-3.110074656E0,2.692335244E0,-2.078215925E-1,4.118789051E0
8.819139125E0,-3.161570792E0,2.854249324E0,1.137855010E-1,4.260893828E0
8.829082125E0,-3.244827542E0,3.118808935E0,2.847079468E-1,4.509648940E0
8.839025125E0,-3.421975372E0,3.209581695E0,3.089749150E-1,4.701786427E0
8.848969125E0,-3.459664770E0,3.301574770E0,1.139492230E-1,4.783582413E0
8.858912125E0,-3.009589963E0,3.531669137E0,-1.866092098E-1,4.643828339E0
8.868855125E0,-2.390084481E0,3.698902429E0,-1.846657415E-1,4.407775453E0
8.878799125E0,-1.842457067E0,3.723148493E0,1.754676327E-2,4.154129348E0
8.888742125E0,-1.594489223E0,3.743151233E0,9.565021545E-2,4.069732915E0
8.898685125E0,-1.750800793E0,3.910569881E0,3.434625238E-2,4.284745019E0
8.908628125E0,-1.894810697E0,4.134653311E0,-6.145277470E-3,4.548153840E0
8.918572125E0,-1.918094310E0,4.353216970E0,-4.359654754E-2,4.757255977E0
8.928515125E0,-1.640163579E0,4.535122679E0,-2.084532380E-4,4.822600370E0
8.938458125E0,-1.222436738E0,4.528755062E0,2.488680232E-1,4.697436458E0
8.948401125E0,-9.149451157E-1,4.376458483E0,4.380079079E-1,4.492478641E0
8.958345125E0,-8.728159270E-1,4.190510593E0,5.324860489E-1,4.313435761E0
8.968288125E0,-8.308083603E-1,4.052646697E0,4.849601725E-1,4.165257993E0
8.978231125E0,-5.637139812E-1,4.025641916E0,3.090347028E-1,4.076649204E0
8.988175125E0,-1.777129635E-1,3.903099478E0,2.897768980E-1,3.917874180E0
8.998118125E0,2.179587824E-1,3.616632689E0,3.371776441E-1,3.638849654E0
9.008061125E0,3.593184185E-1,3.112255960E0,3.343218639E-1,3.150717061E0
9.018004125E0,2.426804996E-1,2.605978301E0,1.092879689E-1,2.619534423E0
9.027948125E0,-3.768356899E-2,2.221732033E0,-2.232304676E-1,2.233236467E0
9.037891125E0,-3.136554649E-1,2.033970337E0,-3.668537253E-1,2.090453716E0
9.047834125E0,-2.495372370E-1,2.032671086E0,-4.210357797E-1,2.090763426E0
9.057777125E0,7.220810663E-2,1.879258858E0,-2.901473191E-1,1.902896038E0
9.067721125E0,4.470784011E-1,1.749774606E0,-6.303298473E-2,1.807087000E0
9.077664125E0,7.140432644E-1,1.691318822E0,9.620745510E-2,1.838388701E0
9.087607125E0,7.170069256E-1,1.688485846E0,2.837552892E-1,1.856232865E0
9.097551125E0,6.871621522E-1,1.750200868E0,5.261615543E-1,1.952496065E0
9.107494125E0,9.021049225E-1,1.946260348E0,7.404282403E-1,2.269351584E0
9.117437125E0,1.229386739E0,2.017051418E0,9.752822417E-1,2.555594574E0
9.127380125E0,1.437451137E0,1.739985783E0,1.183695134E0,2.548519269E0
9.137324125E0,1.636102687E0,1.589153931E0,1.128469352E0,2.544736784E0
9.147267125E0,1.774622934E0,1.470030946E0,1.107453874E0,2.556703272E0
9.157210125E0,1.707112151E0,1.374054748E0,1.167808834E0,2.483150382E0
9.167153125E0,1.700036728E0,1.307942619E0,1.235704363E0,2.475440172E0
9.177097125E0,1.831744384E0,1.339435138E0,1.477695476E0,2.707943481E0
9.187040125E0,2.006115663E0,1.345435551E0,1.729271929E0,2.970703331E0
9.196983125E0,2.086949327E0,1.159036841E0,1.866387967E0,3.030202622E0
9.206927125E0,2.152311257E0,1.026230786E0,1.786165338E0,2.979258295E0
9.216870125E0,2.211531565E0,1.016848928E0,1.773631246E0,3.011747234E0
9.226813125E0,2.327857828E0,1.129839939E0,1.935548834E0,3.231378907E0
9.236756125E0,2.389101272E0,1.079733394E0,2.090408832E0,3.353123644E0
9.246700125E0,2.398938189E0,8.789195430E-1,2.177147452E0,3.356691083E0
9.256643125E0,2.449466026E0,7.807816297E-1,2.184829524E0,3.373867783E0
9.266586125E0,2.434518350E0,7.087491953E-1,1.985491072E0,3.220462671E0
9.276529125E0,2.444196369E0,5.917803240E-1,1.758034968E0,3.068385046E0
9.286473125E0,2.584239815E0,5.773891568E-1,1.745986195E0,3.171772604E0
9.296416125E0,2.674373475E0,5.594224173E-1,1.961140927E0,3.363227715E0
9.306359125E0,2.674545676E0,5.026687574E-1,2.274680910E0,3.546835729E0
9.316303125E0,2.620808594E0,4.620680308E-1,2.433184308E0,3.605902166E0
9.326246125E0,2.613274749E0,4.263368654E-1,2.373902897E0,3.556175333E0
9.336189125E0,2.603920666E0,2.395615947E-1,2.302164577E0,3.483928003E0
9.346132125E0,2.552511361E0,6.166356683E-2,2.013743649E0,3.251811822E0
9.356076125E0,2.548152262E0,-2.801693380E-2,1.822710435E0,3.133071692E0
9.366019125E0,2.433122912E0,-8.737260461E-2,1.890155729E0,3.082273472E0
9.375962125E0,2.273301698E0,-1.101387388E-1,2.052019522E0,3.064443713E0
9.385905125E0,2.259781473E0,-1.875839406E-1,2.222406217E0,3.175041643E0
9.395849125E0,2.282537959E0,-2.634100485E-1,2.454607337E0,3.362210815E0
9.405792125E0,2.353645072E0,-3.874417716E-1,2.438927443E0,3.411469379E0
9.415735125E0,2.341737363E0,-5.833655959E-1,2.443784287E0,3.434549597E0
9.425679125E0,2.240412864E0,-7.082469195E-1,2.382527540E0,3.346266722E0
9.435622125E0,2.181237433E0,-8.757719868E-1,2.274637202E0,3.270894023E0
9.445565125E0,1.988362347E0,-1.005380200E0,2.361615558E0,3.246783364E0
9.455508125E0,1.801986295E0,-1.113176544E0,2.439217465E0,3.230495081E0
9.465452125E0,1.657130737E0,-1.380852721E0,2.608159897E0,3.384573025E0
9.475395125E0,1.591191393E0,-1.692575389E0,2.686324307E0,3.551484165E0
9.485338125E0,1.605813818E0,-1.881072664E0,2.652615108E0,3.626767059E0
9.495281125E0,1.597189175E0,-2.087196372E0,2.607407945E0,3.702158579E0
9.505225125E0,1.505177389E0,-2.275694232E0,2.522949593E0,3.716129419E0
9.515168125E0,1.341169715E0,-2.492835263E0,2.461655863E0,3.751361545E0
9.525111125E0,1.166055985E0,-2.705824771E0,2.336133684E0,3.760145588E0
9.535055125E0,9.331249863E-1,-2.888818063E0,2.193104650E0,3.745090125E0
9.544998125E0,7.160319024E-1,-3.111416885E0,2.039796649E0,3.788718396E0
9.554941125E0,6.260005689E-1,-3.366060787E0,1.889737068E0,3.910671058E0
9.564884125E0,5.446356860E-1,-3.616204673E0,1.821318652E0,4.085433380E0
9.574828125E0,4.520669532E-1,-3.672953070E0,1.863250205E0,4.143265634E0
9.584771125E0,3.783382416E-1,-3.577684386E0,1.787837641E0,4.017378352E0
9.594714125E0,2.496487726E-1,-3.708167927E0,1.657417981E0,4.069381802E0
9.604657125E0,3.215851665E-2,-4.008021916E0,1.588363388E0,4.311400248E0
9.614601125E0,-1.562954897E-1,-4.192409184E0,1.393499079E0,4.420697086E0
9.624544125E0,-4.496754420E-1,-4.303916756E0,1.247526848E0,4.503579763E0
9.634487125E0,-6.660213979E-1,-4.375475566E0,1.062507058E0,4.551625224E0
9.644431125E0,-8.044172448E-1,-4.363751314E0,8.442936476E-1,4.516884368E0
9.654374125E0,-8.647654805E-1,-4.285125559E0,6.100844479E-1,4.413878501E0
9.664317125E0,-9.783134383E-1,-4.245083241E0,4.647355306E-1,4.381073844E0
9.674260125E0,-1.273793418E0,-4.212597281E0,5.305295706E-1,4.432830602E0
9.684204125E0,-1.529376530E0,-4.022882030E0,6.646493487E-1,4.354805524E0
9.694147125E0,-1.559528574E0,-3.790451699E0,7.023606737E-1,4.158480970E0
9.704090125E0,-1.673761972E0,-3.823579684E0,8.285621524E-1,4.255320903E0
9.714034125E0,-1.809308763E0,-3.897500185E0,8.442796142E-1,4.379145346E0
9.723977125E0,-1.832985017E0,-3.793806832E0,6.694885044E-1,4.266265253E0
9.733920125E0,-1.940083496E0,-3.652599497E0,5.051644953E-1,4.166605120E0
9.743863125E0,-2.058383486E0,-3.464690452E0,3.082837741E-1,4.041789379E0
9.753807125E0,-2.223557680E0,-3.388018252E0,3.263199493E-2,4.052646207E0
9.763750125E0,-2.617549356E0,-3.427928422E0,-1.548551743E-1,4.315812557E0
9.773693125E0,-2.951592600E0,-3.337454454E0,-2.906813161E-1,4.464862455E0
9.783636125E0,-2.972870618E0,-3.127830604E0,-3.544229834E-1,4.329769006E0
9.793580125E0,-2.902727419E0,-3.011606668E0,-2.034290180E-1,4.187718299E0
9.803523125E0,-2.731025978E0,-3.029498563E0,-3.104615696E-2,4.078888120E0
9.813466125E0,-2.500491022E0,-2.958634402E0,-3.483763777E-2,3.873911013E0
9.823410125E0,-2.464442938E0,-2.698716896E0,-2.203583153E-1,3.661298904E0
9.833353125E0,-2.671979917E0,-2.383682950E0,-3.701918276E-1,3.599786531E0
9.843296125E0,-3.097048229E0,-2.092955294E0,-4.438539541E-1,3.764196585E0
9.853239125E0,-3.554722955E0,-1.872879546E0,-3.714853048E-1,4.035063123E0
9.863183125E0,-3.773778364E0,-1.762705139E0,-3.087120096E-1,4.176581814E0
9.873126125E0,-3.810538347E0,-1.545303322E0,-2.784081566E-1,4.121368214E0
9.883069125E0,-3.908009093E0,-1.283113587E0,-1.468353160E-1,4.115880970E0
9.893012125E0,-3.921299814E0,-9.959077102E-1,-3.006334051E-1,4.056945260E0
9.902956125E0,-3.899393221E0,-7.783275533E-1,-4.683561265E-1,4.003800536E0
9.912899125E0,-4.258897581E0,-4.666253507E-1,-4.095179343E-1,4.303911333E0
9.922842125E0,-4.450397694E0,-3.272686601E-2,-4.035128438E-1,4.468773131E0
9.932786125E0,-4.566284538E0,4.003576863E-1,-2.341073120E-1,4.589776356E0
9.942729125E0,-4.530519167E0,8.928628135E-1,3.026555367E-3,4.617663596E0
9.952672125E0,-4.387771091E0,1.690590259E0,-9.129959464E-2,4.703080500E0
9.962615125E0,-4.179933272E0,2.422141256E0,-4.357017660E-1,4.850612998E0
9.972559125E0,-4.255910238E0,2.742976225E0,-5.031500564E-1,5.088207003E0
9.982502125E0,-4.444731157E0,2.928733495E0,-7.047935539E-1,5.369343433E0
9.992445125E0,-4.548138289E0,3.311830201E0,-7.716490097E-1,5.678839967E0
1.000238862E1,-4.473961096E0,3.898395393E0,-5.034536000E-1,5.955441215E0
1.001233262E1,-4.321330056E0,4.493353094E0,-9.423270419E-2,6.234821192E0
1.002227562E1,-4.041444308E0,4.981618406E0,3.820219874E-2,6.414924274E0
1.003221862E1,-3.759218505E0,5.216071873E0,1.259034169E-1,6.430783873E0
1.004216263E1,-3.419521003E0,5.471728513E0,1.768442135E-1,6.454782002E0
1.005210562E1,-2.965260175E0,5.663173955E0,9.389327332E-2,6.393209139E0
1.006204862E1,-2.629909201E0,5.720633959E0,-2.715330005E-2,6.296253854E0
1.007199163E1,-2.217982798E0,6.023632581E0,-1.229093501E-1,6.420179426E0
1.008193562E1,-1.493120138E0,6.356598768E0,7.770481825E-2,6.530068428E0
1.009187862E1,-8.272217513E-1,6.345939294E0,4.561750607E-1,6.415866039E0
1.010182162E1,-3.774319232E-1,6.067103705E0,6.237447131E-1,6.110749520E0
1.011176562E1,-3.117296845E-2,5.654339397E0,6.675152153E-1,5.693689694E0
1.012170862E1,7.713201039E-2,5.138220289E0,5.602911673E-1,5.169253648E0
1.013165162E1,5.932753108E-2,4.589077862E0,2.120713489E-1,4.594358457E0
1.014159462E1,1.773339909E-1,4.042269058E0,-4.256334454E-3,4.046159241E0
1.015153863E1,4.850366979E-1,3.615160945E0,2.012187704E-2,3.647609374E0
1.016148162E1,7.413406252E-1,3.228298633E0,1.274539523E-1,3.314776387E0
1.017142462E1,7.293686704E-1,2.828060814E0,2.188514878E-1,2.928788589E0
1.018136862E1,7.206237209E-1,2.750600410E0,3.019958246E-1,2.859423480E0
1.019131162E1,9.371927480E-1,2.836618799E0,5.231821056E-1,3.032895642E0
1.020125462E1,1.396387019E0,2.874221073E0,7.383571565E-1,3.279666870E0
1.021119762E1,1.881422328E0,2.699697474E0,9.331067137E-1,3.420351526E0
1.022114162E1,2.183235134E0,2.415597637E0,1.203977809E0,3.471482416E0
1.023108463E1,2.379269471E0,2.311145900E0,1.228333948E0,3.537106568E0
1.024102762E1,2.413387828E0,2.242822355E0,1.280276957E0,3.534657269E0
1.025097062E1,2.559231274E0,2.244205222E0,1.379448804E0,3.672737507E0
1.026091463E1,2.860913395E0,2.167699082E0,1.560646416E0,3.913995657E0
1.027085762E1,3.015553831E0,1.717524873E0,1.960702386E0,3.985951636E0
1.028080062E1,3.112500081E0,1.519006639E0,2.034353914E0,4.016669488E0
1.029074462E1,3.329698123E0,1.581942560E0,1.986575146E0,4.187590317E0
1.030068762E1,3.419211393E0,1.561277331E0,2.182151645E0,4.346306392E0
1.031063062E1,3.649008722E0,1.546414878E0,2.298370904E0,4.581394159E0
1.032057362E1,3.971929393E0,1.341675206E0,2.259046624E0,4.762311110E0
1.033051762E1,4.045865973E0,1.100610877E0,2.395428252E0,4.828918335E0
1.034046063E1,4.001766565E0,1.019459125E0,2.509760613E0,4.832424949E0
1.035040362E1,3.871856343E0,9.262819898E-1,2.597240807E0,4.753412425E0
1.036034662E1,3.619966187E0,6.885757166E-1,2.582004132E0,4.499448527E0
1.037029062E1,3.436563590E0,4.003997862E-1,2.451704194E0,4.240417757E0
1.038023362E1,3.419038315E0,1.376662606E-1,2.232841158E0,4.085872568E0
1.039017662E1,3.453117058E0,4.295423090E-2,2.161626749E0,4.074124775E0
1.040012062E1,3.530855205E0,3.746311069E-3,2.321211298E0,4.225514691E0
1.041006362E1,3.525604990E0,-1.397151250E-1,2.554428663E0,4.355974823E0
1.042000663E1,3.423623117E0,-3.761367649E-1,2.594676218E0,4.312194197E0
1.042994962E1,3.250528577E0,-6.379949623E-1,2.487218428E0,4.142369987E0
1.043989362E1,2.981727688E0,-8.627414668E-1,2.346037406E0,3.890875782E0
1.044983663E1,2.824681123E0,-9.158558196E-1,2.265924850E0,3.735241727E0
1.045977962E1,2.760636863E0,-9.115867674E-1,2.325139457E0,3.722684491E0
1.046972262E1,2.641425877E0,-1.003014416E0,2.527704549E0,3.791102592E0
1.047966662E1,2.380294927E0,-1.069413643E0,2.652265445E0,3.720747434E0
1.048960962E1,2.133241148E0,-1.228236299E0,2.554121100E0,3.547226634E0
1.049955262E1,1.957273725E0,-1.415503905E0,2.414993620E0,3.415664785E0
1.050949662E1,1.803766334E0,-1.557291868E0,2.353332538E0,3.349164819E0
1.051943962E1,1.751009246E0,-1.615150652E0,2.324623733E0,3.328456174E0
1.052938263E1,1.695668712E0,-1.607887825E0,2.417213369E0,3.362070212E0
1.053932562E1,1.540763398E0,-1.701346797E0,2.694388787E0,3.539528740E0
1.054926962E1,1.401685327E0,-1.782533047E0,2.700371658E0,3.526209425E0
1.055921262E1,1.203949889E0,-2.025898256E0,2.620770003E0,3.524513368E0
1.056915562E1,8.402647698E-1,-2.188247368E0,2.509791019E0,3.434169825E0
1.057909962E1,6.764146775E-1,-2.361864649E0,2.419964046E0,3.448502199E0
1.058904262E1,5.747551323E-1,-2.496774532E0,2.385596305E0,3.500756526E0
1.059898562E1,5.513627614E-1,-2.609094282E0,2.349252351E0,3.553921845E0
1.060892863E1,5.080565281E-1,-2.692236426E0,2.230681343E0,3.533015378E0
1.061887262E1,3.022542715E-1,-2.907473019E0,2.128131559E0,3.615757311E0
1.062881562E1,2.125994986E-1,-3.168302107E0,2.039539225E0,3.773997488E0
1.063875862E1,-4.198827088E-2,-3.449105283E0,2.094275303E0,4.035353679E0
1.064870262E1,-3.085151777E-1,-3.609674503E0,2.095234831E0,4.185085498E0
1.065864562E1,-3.866883579E-1,-3.597768402E0,2.098121602E0,4.182771762E0
1.066858862E1,-4.502244955E-1,-3.558598489E0,2.175896002E0,4.195336544E0
1.067853162E1,-4.643588237E-1,-3.707905387E0,2.184574147E0,4.328574324E0
1.068847563E1,-4.867549753E-1,-3.858142576E0,2.139609351E0,4.438482029E0
1.069841862E1,-4.990303275E-1,-3.959626266E0,1.986977727E0,4.458222956E0
1.070836162E1,-5.498990571E-1,-4.035576335E0,1.702222417E0,4.414275307E0
1.071830463E1,-6.997962311E-1,-4.105790285E0,1.398698715E0,4.393584724E0
1.072824862E1,-9.491856797E-1,-4.205063728E0,1.259469494E0,4.491077579E0
1.073819162E1,-1.148344768E0,-4.162883084E0,1.113123042E0,4.459521744E0
1.074813462E1,-1.287798377E0,-4.211217923E0,9.537539631E-1,4.505821531E0
1.075807862E1,-1.444889380E0,-4.428860645E0,9.044174963E-1,4.745575090E0
1.076802163E1,-1.351896578E0,-4.540271738E0,6.726563796E-1,4.784784051E0
1.077796462E1,-1.231288984E0,-4.445795935E0,4.631889421E-1,4.636347491E0
1.078790762E1,-1.270787365E0,-4.308731353E0,4.090045488E-1,4.510803822E0
1.079785163E1,-1.357162142E0,-4.184349382E0,3.687534857E-1,4.414368354E0
1.080779462E1,-1.452214187E0,-4.136996291E0,3.170711160E-1,4.395929759E0
1.081773762E1,-1.628734026E0,-4.084436839E0,2.305603909E-1,4.403243908E0
1.082768162E1,-1.850089584E0,-3.955467142E0,5.230655998E-2,4.367068554E0
1.083762462E1,-2.060892380E0,-3.816377084E0,-9.419981360E-2,4.338304399E0
1.084756762E1,-2.193206391E0,-3.583916348E0,-2.435961735E-1,4.208794336E0
1.085751062E1,-2.227130475E0,-3.248379140E0,-4.661375467E-1,3.966025896E0
1.086745462E1,-2.270881974E0,-3.018818039E0,-5.834752312E-1,3.822382848E0
1.087739763E1,-2.435032613E0,-2.848858775E0,-5.457136202E-1,3.787239562E0
1.088734062E1,-2.620946881E0,-2.633552601E0,-3.937420003E-1,3.736307618E0
1.089728362E1,-2.712114036E0,-2.343893232E0,-2.446214828E-1,3.592942763E0
1.090722762E1,-2.789076258E0,-2.086834429E0,3.941739634E-2,3.483586950E0
1.091717062E1,-2.839652042E0,-1.666726602E0,2.993025970E-1,3.306234010E0
1.092711362E1,-2.949967074E0,-1.113453117E0,4.406368160E-1,3.183746910E0
1.093705762E1,-3.230339018E0,-7.449551547E-1,4.748441239E-1,3.348958838E0
1.094700062E1,-3.593346153E0,-5.803303063E-1,5.060474248E-1,3.674915487E0
1.095694363E1,-3.850738539E0,-3.554165715E-1,4.626761778E-1,3.894685800E0
1.096688762E1,-4.135733877E0,-9.684450924E-2,4.166212050E-1,4.157793500E0
1.097683062E1,-4.333822340E0,8.450045228E-2,2.874093604E-1,4.344163964E0
1.098677363E1,-4.310932830E0,2.431827754E-1,1.057667756E-1,4.319081654E0
1.099671662E1,-4.074734554E0,6.127197880E-1,8.344552321E-3,4.120552979E0
1.100666004E1,-3.973190053E0,1.105214390E0,9.161066651E-2,4.125061279E0
1.101660304E1,-4.115392875E0,1.496222963E0,6.479471426E-2,4.379422340E0
1.102654604E1,-4.335317473E0,1.617159755E0,2.249657019E-1,4.632579501E0
1.103648904E1,-4.487545932E0,1.775092465E0,3.591594473E-1,4.839216596E0
1.104643304E1,-4.580482747E0,2.006663840E0,3.223364606E-1,5.011129888E0
1.105637604E1,-4.689319311E0,2.138830209E0,3.182836823E-1,5.163875944E0
1.106631904E1,-4.702922274E0,2.358508347E0,-1.944330767E-2,5.261218260E0
1.107626304E1,-4.521274134E0,2.576891912E0,-3.884072200E-1,5.218539248E0
1.108620604E1,-4.359168558E0,2.780436412E0,-6.465430069E-1,5.210680860E0
1.109614904E1,-4.205501685E0,2.774395654E0,-6.834098478E-1,5.084345059E0
1.110609204E1,-4.043077728E0,2.664184994E0,-4.413538308E-1,4.862011148E0
1.111603604E1,-3.817730422E0,2.886021339E0,-2.880744812E-1,4.794493889E0
1.112597904E1,-3.534475801E0,3.123241124E0,-2.540756996E-1,4.723527153E0
1.113592204E1,-3.170535743E0,3.339019754E0,-2.930940235E-1,4.613811214E0
1.114586504E1,-2.704659128E0,3.630001763E0,-2.098881447E-1,4.531682561E0
1.115580904E1,-2.268012452E0,3.898725761E0,-1.971888694E-1,4.514734377E0
1.116575204E1,-1.941103981E0,3.987674190E0,-2.390982029E-1,4.441463505E0
1.117569504E1,-1.826980365E0,4.025393994E0,-2.084134769E-1,4.425504518E0
1.118563904E1,-1.741632066E0,4.008018993E0,-1.652582480E-1,4.373192059E0
1.119558204E1,-1.600625584E0,3.997562417E0,-1.661875167E-1,4.309306885E0
1.120552504E1,-1.360742977E0,4.022407236E0,-5.673553348E-2,4.246716419E0
1.121546904E1,-1.024059715E0,4.039860005E0,1.386032769E-1,4.169937413E0
1.122541204E1,-4.450359687E-1,4.272070481E0,4.273627594E-1,4.316396892E0
1.123535504E1,3.255615655E-1,4.456882841E0,9.116333990E-1,4.560797128E0
1.124529804E1,8.399887812E-1,4.326772937E0,1.316572233E0,4.599989962E0
1.125524204E1,1.017900842E0,3.989129562E0,1.238073070E0,4.299081497E0
1.126518504E1,8.767195281E-1,3.578985976E0,9.292976913E-1,3.800180515E0
1.127512804E1,6.390582785E-1,3.174417710E0,5.215593570E-1,3.279839545E0
1.128507104E1,6.142418182E-1,2.937201433E0,1.358542085E-1,3.003814514E0
1.129501504E1,6.472022805E-1,2.625080570E0,5.835521221E-2,2.704315832E0
1.130495804E1,6.689722683E-1,2.401229859E0,2.732855572E-1,2.507611160E0
1.131490104E1,7.760664350E-1,2.416639611E0,4.556849179E-1,2.578773907E0
1.132484504E1,1.044976082E0,2.409347548E0,6.359674403E-1,2.702107549E0
1.133478804E1,1.643393873E0,2.451390198E0,7.447408542E-1,3.043796358E0
1.134473104E1,2.205282061E0,2.378932672E0,8.996420753E-1,3.366295514E0
1.135467404E1,2.496098009E0,2.231209200E0,1.000218716E0,3.494171897E0
1.136461804E1,2.642802311E0,2.066024188E0,9.042701465E-1,3.474271794E0
1.137456104E1,2.537162420E0,1.758195766E0,7.957756448E-1,3.187742834E0
1.138450404E1,2.383931456E0,1.409807548E0,5.900168037E-1,2.831749696E0
1.139444804E1,2.260148824E0,1.017505571E0,6.097026247E-1,2.552513974E0
1.140439104E1,2.234507030E0,7.810558641E-1,7.336406462E-1,2.478164346E0
1.141433404E1,2.439481759E0,9.992663509E-1,7.484646535E-1,2.740402129E0
1.142427704E1,2.584163801E0,1.282610142E0,1.151323779E0,3.106209551E0
1.143422104E1,2.704804724E0,1.501923999E0,1.483156337E0,3.430961529E0
1.144416404E1,2.729055759E0,1.651444904E0,2.003691700E0,3.766934567E0
1.145410704E1,2.922560590E0,1.887442621E0,2.303720521E0,4.172640446E0
1.146405004E1,3.113806934E0,1.937308846E0,2.421155416E0,4.394422912E0
1.147399404E1,3.198939763E0,1.921585683E0,2.385840572E0,4.429214646E0
1.148393704E1,3.169002896E0,1.938859527E0,2.337307513E0,4.389164160E0
1.149388004E1,3.056596314E0,2.029268591E0,2.503267865E0,4.441515738E0
1.150382404E1,3.049038496E0,2.121129518E0,2.715752758E0,4.601210626E0
1.151376704E1,3.159396213E0,2.112946340E0,3.064925673E0,4.882632082E0
1.152371004E1,3.261325753E0,1.857486166E0,3.364215406E0,5.040282316E0
1.153365304E1,3.258032601E0,1.526087617E0,3.360506517E0,4.923080732E0
1.154359704E1,3.142131724E0,1.136875893E0,3.170605910E0,4.606323958E0
1.155354004E1,2.965268653E0,8.000973219E-1,3.029857582E0,4.314279879E0
1.156348304E1,2.947494872E0,7.504182082E-1,3.014321530E0,4.282170920E0
1.157342704E1,3.039444677E0,5.786299360E-1,3.214154803E0,4.461370601E0
1.158337004E1,3.151252211E0,2.794577318E-1,3.506445419E0,4.722673670E0
1.159331304E1,3.315302863E0,-3.092299998E-2,3.578299513E0,4.878157101E0
1.160325604E1,3.298864878E0,-4.455911618E-1,3.576814320E0,4.886170448E0
1.161320004E1,3.231294161E0,-7.955838561E-1,3.404900333E0,4.761046303E0
1.162314304E1,3.051750142E0,-9.533119136E-1,3.381560587E0,4.653701165E0
1.163308604E1,2.864121763E0,-1.181124698E0,3.357468889E0,4.568462144E0
1.164303004E1,2.757887210E0,-1.631113551E0,3.339799773E0,4.628254077E0
1.165297304E1,2.402750720E0,-1.961325114E0,3.298196833E0,4.527483802E0
1.166291604E1,2.059297552E0,-2.231672300E0,3.147971338E0,4.373875993E0
1.167285904E1,1.909144562E0,-2.430585220E0,3.047759417E0,4.340669872E0
1.168280304E1,1.966387049E0,-2.567050463E0,3.035369167E0,4.435075207E0
1.169274604E1,2.045714908E0,-2.719933518E0,3.221032298E0,4.685940342E0
1.170268904E1,1.961766287E0,-2.916260215E0,3.281824629E0,4.808687295E0
1.171263304E1,1.537570233E0,-3.227941952E0,3.297609773E0,4.863945074E0
1.172257604E1,1.178583790E0,-3.358828951E0,3.079096985E0,4.706551807E0
1.173251904E1,9.317599538E-1,-3.392527624E0,2.814737641E0,4.505570805E0
1.174246204E1,8.132174505E-1,-3.487402791E0,2.604826984E0,4.428140069E0
1.175240604E1,7.769562350E-1,-3.703635750E0,2.431243325E0,4.497946516E0
1.176234904E1,6.544423029E-1,-4.045041808E0,2.370508003E0,4.733916576E0
1.177229204E1,4.228396457E-1,-4.348399449E0,2.238045180E0,4.908789806E0
1.178223604E1,-6.001421347E-2,-4.488723854E0,2.071129100E0,4.943866836E0
1.179217904E1,-4.720444040E-1,-4.458517138E0,1.910348211E0,4.873461939E0
1.180212204E1,-7.121838498E-1,-4.439093857E0,1.731482177E0,4.817757843E0
1.181206504E1,-8.778328380E-1,-4.593967888E0,1.557556747E0,4.929616057E0
1.182200904E1,-9.686709411E-1,-4.808971177E0,1.351776564E0,5.088401228E0
1.183195204E1,-1.089614165E0,-4.941363834E0,1.199674697E0,5.200341811E0
1.184189504E1,-1.089943656E0,-4.933839637E0,9.004036751E-1,5.132394910E0
1.185183804E1,-1.175379516E0,-4.824234164E0,5.404160428E-1,4.994677345E0
1.186178204E1,-1.339646807E0,-4.797363870E0,4.765182549E-1,5.003641006E0
1.187172504E1,-1.428638798E0,-4.848524083E0,3.722711706E-1,5.068311398E0
1.188166804E1,-1.523578139E0,-4.805344734E0,2.199443324E-1,5.045889799E0
1.189161204E1,-1.575757229E0,-4.758034328E0,1.518016121E-1,5.014473575E0
1.190155504E1,-1.667238818E0,-4.877730340E0,8.822746754E-2,5.155552602E0
1.191149804E1,-1.802885743E0,-4.906918471E0,4.928428039E-2,5.227874791E0
1.192144104E1,-1.891012492E0,-4.718724082E0,1.003174630E-1,5.084520508E0
1.193138504E1,-1.924028942E0,-4.402264584E0,-4.690519452E-2,4.804583326E0
1.194132804E1,-1.938742875E0,-4.083693073E0,-2.646473193E-1,4.528279061E0
1.195127104E1,-1.957918673E0,-3.888846306E0,-4.151350620E-1,4.373660736E0
1.196121504E1,-2.114065351E0,-3.732857795E0,-4.578371318E-1,4.314291884E0
1.197115804E1,-2.239083499E0,-3.433697870E0,-4.747706683E-1,4.126643087E0
1.198110104E1,-2.169205325E0,-3.136700245E0,-2.632882802E-1,3.822781826E0
1.199104404E1,-2.080782853E0,-3.052644766E0,1.040010627E-1,3.695823801E0
1.200098750E1,-2.203218579E0,-2.942263368E0,3.533239992E-1,3.692685158E0
1.201093050E1,-2.472392228E0,-2.582129847E0,4.476218998E-1,3.602843771E0
1.202087350E1,-2.945439283E0,-2.123556697E0,3.905495667E-1,3.652072642E0
1.203081750E1,-3.405276893E0,-1.654824010E0,2.454180197E-1,3.794019403E0
1.204076050E1,-3.832139131E0,-1.255056893E0,1.564609659E-1,4.035460092E0
1.205070350E1,-4.042798816E0,-8.560405576E-1,1.220091712E-1,4.134236803E0
1.206064650E1,-3.994897548E0,-4.076614434E-1,1.128516275E-2,4.015659551E0
1.207059050E1,-3.875376660E0,-6.829664826E-2,3.320747059E-2,3.876120667E0
1.208053350E1,-3.623039191E0,1.677472615E-1,2.966035406E-1,3.639028137E0
1.209047650E1,-3.436277077E0,4.689338315E-1,5.353979623E-1,3.509209322E0
1.210042050E1,-3.530535362E0,6.748072779E-1,5.933017695E-1,3.643082733E0
1.211036350E1,-3.779863561E0,8.554032111E-1,4.751838837E-1,3.904469608E0
1.212030650E1,-4.087144977E0,9.992388690E-1,1.420593103E-1,4.209918434E0
1.213024950E1,-4.271477281E0,1.150928507E0,-6.288848542E-2,4.424263729E0
1.214019350E1,-4.344980290E0,1.471027896E0,-1.746143047E-1,4.590562813E0
1.215013650E1,-4.376610218E0,1.625355213E0,-1.979411137E-1,4.672866064E0
1.216007950E1,-4.346361110E0,1.623864173E0,-7.544837773E-2,4.640418322E0
1.217002350E1,-4.276780705E0,1.834410714E0,1.596636321E-1,4.656329922E0
1.217996650E1,-4.127920827E0,2.214162812E0,1.515428728E-1,4.686705939E0
1.218990950E1,-3.906710134E0,2.701816505E0,-8.259309053E-2,4.750686068E0
1.219985250E1,-3.550548335E0,2.949904509E0,-2.613432039E-1,4.623486819E0
1.220979650E1,-3.121738974E0,2.767602943E0,-2.428981622E-1,4.178980712E0
1.221973950E1,-2.988212835E0,2.601893436E0,-2.945362392E-1,3.973162090E0
1.222968250E1,-3.035923191E0,2.655415340E0,-4.107464343E-1,4.054229012E0
1.223962650E1,-3.078049456E0,2.896300160E0,-4.965935004E-1,4.255531480E0
1.224956950E1,-2.771638399E0,3.102126828E0,-4.326531740E-1,4.182386764E0
1.225951250E1,-2.346826780E0,3.379939154E0,-4.732632561E-1,4.141927417E0
1.226945550E1,-1.948946266E0,3.725256999E0,-5.567872234E-1,4.240983762E0
1.227939950E1,-1.579176242E0,3.919094537E0,-5.953326537E-1,4.267027134E0
1.228934250E1,-1.467775967E0,3.825023362E0,-5.179090865E-1,4.129576229E0
1.229928550E1,-1.431727005E0,3.769788809E0,-5.192608166E-1,4.065806399E0
1.230922950E1,-1.644028296E0,3.717322912E0,-3.860919419E-1,4.082938361E0
1.231917250E1,-1.636328682E0,3.874700722E0,-3.140714943E-1,4.217762220E0
1.232911550E1,-1.242380714E0,4.260156194E0,-3.722074360E-2,4.437772642E0
1.233905850E1,-6.124002376E-1,4.518154060E0,4.689314926E-1,4.583519052E0
1.234900250E1,-6.401911765E-2,4.623025042E0,8.096417320E-1,4.693823465E0
1.235894550E1,9.669188778E-2,4.544753628E0,8.680938618E-1,4.627928458E0
1.236888850E1,-2.879578292E-2,4.204751487E0,5.952331048E-1,4.246771328E0
1.237883250E1,-2.169968972E-1,3.816653658E0,3.035541075E-1,3.834850439E0
1.238877550E1,-2.962409949E-1,3.723889335E0,3.431426811E-1,3.751380734E0
1.239871850E1,2.672731211E-2,3.876004651E0,4.501477508E-1,3.902148049E0
1.240866150E1,5.641010669E-1,3.823090857E0,7.944649914E-1,3.945302059E0
1.241860550E1,1.014661193E0,3.657330480E0,1.009174165E0,3.927344659E0
1.242854850E1,1.160904149E0,3.417106395E0,9.297632758E-1,3.726764590E0
1.243849150E1,9.917389378E-1,3.129708145E0,7.685667962E-1,3.371841353E0
1.244843550E1,9.284945762E-1,2.926360111E0,5.602000970E-1,3.120818775E0
1.245837850E1,1.227594860E0,2.923924745E0,5.248579176E-1,3.214311884E0
1.246832150E1,1.808614845E0,3.021048751E0,8.659678142E-1,3.625978967E0
1.247826450E1,2.368061236E0,3.095265121E0,1.198231020E0,4.077270872E0
1.248820850E1,2.623767578E0,3.001198624E0,1.405258268E0,4.226830997E0
1.249815150E1,2.590069489E0,2.805060207E0,1.378204517E0,4.059097241E0
1.250809450E1,2.389429301E0,2.509165952E0,1.395001667E0,3.735146022E0
1.251803850E1,2.436546749E0,2.499503428E0,1.251204747E0,3.708071030E0
1.252798150E1,2.892483974E0,2.712329798E0,1.252129192E0,4.158247707E0
1.253792450E1,3.259350271E0,2.795883586E0,1.584064515E0,4.577072165E0
1.254786750E1,3.574192429E0,2.665423434E0,1.869801571E0,4.834820733E0
1.255781150E1,3.729146275E0,2.472733705E0,2.178916966E0,4.976808521E0
1.256775450E1,3.688849019E0,2.339024255E0,2.265923535E0,4.920675870E0
1.257769750E1,3.474461734E0,2.055357113E0,2.328684039E0,4.660380516E0
1.258764150E1,3.246183219E0,1.761983593E0,2.384411513E0,4.396329143E0
1.259758450E1,3.273313715E0,1.484970582E0,2.374826172E0,4.308076096E0
1.260752750E1,3.237514137E0,1.212338305E0,2.413027786E0,4.215918055E0
1.261747050E1,3.083413692E0,9.808651632E-1,2.414185535E0,4.037056881E0
1.262741450E1,3.084470868E0,6.790558648E-1,2.246147082E0,3.875597260E0
1.263735750E1,2.992902594E0,4.801581466E-1,2.182894242E0,3.735377498E0
1.264730050E1,2.905877607E0,3.367136675E-1,2.353801339E0,3.754714570E0
1.265724450E1,2.782588187E0,2.321981961E-1,2.631321888E0,3.836739228E0
1.266718750E1,2.656182495E0,1.369189864E-1,2.837238604E0,3.888955535E0
1.267713050E1,2.554835629E0,-1.144984227E-1,2.871430782E0,3.845180063E0
1.268707350E1,2.500527275E0,-6.087863660E-1,2.783844169E0,3.791180008E0
1.269701750E1,2.460100211E0,-8.561843991E-1,2.613701888E0,3.690065356E0
1.270696050E1,2.391106136E0,-1.113313953E0,2.604953284E0,3.707106436E0
1.271690350E1,2.289832069E0,-1.067090544E0,2.721129273E0,3.713025404E0
1.272684750E1,2.131851704E0,-1.078680310E0,2.778428478E0,3.664424608E0
1.273679050E1,1.861847458E0,-1.178805692E0,2.981146767E0,3.707195013E0
1.274673350E1,1.553306845E0,-1.455491844E0,2.938695982E0,3.628657153E0
1.275667650E1,1.428759836E0,-1.884802018E0,2.676655351E0,3.571878663E0
1.276662050E1,1.277952689E0,-2.221131524E0,2.504922627E0,3.583465598E0
1.277656350E1,1.132997289E0,-2.465249269E0,2.409806116E0,3.628815555E0
1.278650650E1,1.179858045E0,-2.487628902E0,2.287302271E0,3.579401380E0
1.279645050E1,1.151894905E0,-2.520132989E0,2.464947553E0,3.708624893E0
1.280639350E1,1.092313678E0,-2.531153821E0,2.617129526E0,3.801217673E0
1.281633650E1,9.807749699E-1,-2.657912101E0,2.771877258E0,3.963548891E0
1.282627950E1,8.223420306E-1,-2.705743495E0,2.985429268E0,4.112187032E0
1.283622350E1,8.504954968E-1,-2.935095266E0,2.681992105E0,4.065858884E0
1.284616650E1,6.128674302E-1,-3.211249906E0,2.333406250E0,4.016530490E0
1.285610950E1,3.935945043E-1,-3.462045756E0,1.846038925E0,3.943163345E0
1.286605350E1,3.745369667E-1,-3.585095147E0,1.532868633E0,3.916997753E0
1.287599650E1,3.527151579E-1,-3.594324392E0,1.474516637E0,3.900996684E0
1.288593950E1,3.948418616E-1,-3.689960867E0,1.523121471E0,4.011434944E0
1.289588250E1,3.964757198E-1,-3.780963423E0,1.584808280E0,4.118797723E0
1.290582650E1,3.282960159E-1,-3.786046992E0,1.591853006E0,4.120185201E0
1.291576950E1,2.767247432E-1,-3.837881974E0,1.622101822E0,4.175778844E0
1.292571250E1,1.679716484E-1,-4.003568677E0,1.596283149E0,4.313339369E0
1.293565650E1,-3.028960034E-2,-4.232453256E0,1.451423644E0,4.474506522E0
1.294559950E1,-2.383826499E-1,-4.318884459E0,1.197611215E0,4.488191381E0
1.295554250E1,-4.629442361E-1,-4.367861906E0,1.001260836E0,4.505003691E0
1.296548550E1,-7.417367010E-1,-4.407690800E0,8.331928548E-1,4.546660517E0
1.297542950E1,-8.550671424E-1,-4.412122990E0,5.301462856E-1,4.525375584E0
1.298537250E1,-9.126497912E-1,-4.446318092E0,4.500859165E-1,4.561277403E0
1.299531550E1,-1.006642175E0,-4.427129284E0,4.784200618E-1,4.565269754E0
1.300526325E1,-9.767759129E-1,-4.552826879E0,5.030874181E-1,4.683526527E0
1.301520625E1,-1.133352654E0,-4.729991666E0,4.955410016E-1,4.889056175E0
1.302514925E1,-1.177907852E0,-4.744780444E0,2.007910466E-1,4.892926058E0
1.303509225E1,-1.305646564E0,-4.596822499E0,-1.176667365E-1,4.780097854E0
1.304503625E1,-1.570141709E0,-4.528758570E0,-2.447375500E-1,4.799468266E0
1.305497925E1,-1.734468788E0,-4.313188686E0,-3.989647333E-1,4.665956652E0
1.306492225E1,-1.935310267E0,-4.159268335E0,-4.388124847E-1,4.608415705E0
1.307486625E1,-2.102084991E0,-4.139522873E0,-4.344915386E-1,4.662959770E0
1.308480925E1,-2.196819094E0,-3.999600756E0,-4.633076406E-1,4.586662655E0
1.309475225E1,-2.166479938E0,-3.744007266E0,-5.600416374E-1,4.361751066E0
1.310469525E1,-2.169325193E0,-3.558251165E0,-6.447840182E-1,4.216973983E0
1.311463925E1,-2.322515227E0,-3.434588985E0,-7.379045820E-1,4.211292159E0
1.312458225E1,-2.432750444E0,-3.299805987E0,-9.447252774E-1,4.207077385E0
1.313452525E1,-2.502034687E0,-3.117476939E0,-1.106066476E0,4.147556279E0
1.314446925E1,-2.692654210E0,-3.102591097E0,-8.392624839E-1,4.192948811E0
1.315441225E1,-2.629356931E0,-2.944132723E0,-6.768760228E-1,4.004946505E0
1.316435525E1,-2.443878573E0,-2.469525923E0,-7.234735807E-1,3.548875143E0
1.317429925E1,-2.638398188E0,-1.763736588E0,-5.929462222E-1,3.228544095E0
1.318424225E1,-2.949132384E0,-9.642853832E-1,-4.482148075E-1,3.134983993E0
1.319418525E1,-3.181566223E0,-3.514123982E-1,-2.617798630E-1,3.211601314E0
1.320412825E1,-3.487664162E0,-2.205107814E-1,1.364540963E-1,3.497291242E0
1.321407225E1,-3.649682322E0,5.192327499E-4,3.733598491E-1,3.668729875E0
1.322401525E1,-3.731041065E0,4.944814861E-1,4.692144978E-1,3.792801288E0
1.323395825E1,-3.747641895E0,9.038900775E-1,4.725345469E-1,3.883957510E0
1.324390225E1,-3.576279300E0,1.487340458E0,3.995558868E-1,3.893789950E0
1.325384525E1,-3.271193514E0,2.073802739E0,5.082255127E-1,3.906361220E0
1.326378825E1,-3.073891501E0,2.333555354E0,8.432936275E-1,3.950371336E0
1.327373125E1,-2.967006153E0,2.465722309E0,1.037693521E0,3.994961810E0
1.328367525E1,-2.905791068E0,2.699971123E0,1.062608069E0,4.106409831E0
1.329361825E1,-3.073351803E0,2.817063956E0,9.698921321E-1,4.280424206E0
1.330356125E1,-3.303788233E0,3.021353976E0,7.188525993E-1,4.534351728E0
1.331350525E1,-3.210230151E0,3.401648696E0,3.395108293E-1,4.689569178E0
1.332344825E1,-3.135344568E0,3.523777151E0,4.044125842E-1,4.734019487E0
1.333339125E1,-3.059218791E0,3.551863666E0,5.280532748E-1,4.717350461E0
1.334333425E1,-3.038965205E0,3.538571776E0,6.556307495E-1,4.710270842E0
1.335327825E1,-3.183147018E0,3.538842502E0,6.074064231E-1,4.798413670E0
1.336322125E1,-3.142468231E0,3.612345511E0,2.126915923E-1,4.792638562E0
1.337316425E1,-2.816975663E0,3.808030769E0,1.834555140E-1,4.740264354E0
1.338310825E1,-2.447467886E0,3.977774270E0,4.089542627E-1,4.688286551E0
1.339305125E1,-2.323595207E0,3.819946809E0,5.043302438E-1,4.499493006E0
1.340299425E1,-2.452079000E0,3.631499235E0,5.660765487E-1,4.418248610E0
1.341293725E1,-2.491062095E0,3.678517281E0,4.257360640E-1,4.462973330E0
1.342288125E1,-2.329470197E0,3.888365664E0,2.817010161E-1,4.541494732E0
1.343282425E1,-1.840878027E0,3.950623308E0,4.014826906E-1,4.376921839E0
1.344276725E1,-1.394748044E0,3.791044022E0,4.628430793E-1,4.065902188E0
1.345271125E1,-1.177282785E0,3.539524287E0,4.225890926E-1,3.754038955E0
1.346265425E1,-1.336199289E0,3.161460280E0,3.824701765E-1,3.453482746E0
1.347259725E1,-1.719043103E0,2.838330864E0,2.455295554E-1,3.327388772E0
1.348254025E1,-2.004274083E0,2.557138848E0,8.307285458E-2,3.250073043E0
1.349248425E1,-1.812252983E0,2.580137701E0,2.793770403E-2,3.153117813E0
1.350242725E1,-1.427790660E0,2.535548589E0,4.477350435E-1,2.944156837E0
1.351237025E1,-1.189095038E0,2.435761760E0,5.623565501E-1,2.768235404E0
1.352231425E1,-8.526009330E-1,2.535700032E0,4.474473605E-1,2.712362834E0
1.353225725E1,-3.905767563E-1,2.558342789E0,5.578825530E-1,2.647432903E0
1.354220025E1,7.505018234E-2,2.484579579E0,7.221615386E-1,2.588490970E0
1.355214325E1,6.123464432E-1,2.415897599E0,8.654013652E-1,2.638266268E0
1.356208725E1,1.080053821E0,2.335730519E0,1.063867851E0,2.784594785E0
1.357203025E1,1.303315425E0,2.228345819E0,1.114084324E0,2.811643659E0
1.358197325E1,1.405521539E0,2.013168867E0,1.092092069E0,2.687192731E0
1.359191725E1,1.592153553E0,1.855868826E0,1.034453725E0,2.655051138E0
1.360186025E1,1.962910879E0,1.948281730E0,1.080362847E0,2.969175761E0
1.361180325E1,2.409266857E0,2.064332589E0,1.277134663E0,3.420103620E0
1.362174725E1,2.689318081E0,2.063419839E0,1.487528154E0,3.701739210E0
1.363169025E1,2.996848295E0,1.960995331E0,1.483446359E0,3.876495259E0
1.364163325E1,2.936065027E0,1.884030186E0,1.544583968E0,3.815204741E0
1.365157625E1,2.729164809E0,1.664372513E0,1.547529357E0,3.551524114E0
1.366152025E1,2.819056979E0,1.863542712E0,1.382396093E0,3.651149497E0
1.367146325E1,3.148811583E0,2.075503694E0,1.420178462E0,4.029843277E0
1.368140625E1,3.305738864E0,2.036796881E0,1.624484124E0,4.208966576E0
1.369135025E1,3.383548932E0,1.800371733E0,1.787518968E0,4.229062049E0
1.370129325E1,3.304560066E0,1.653103175E0,2.127106542E0,4.263502032E0
1.371123625E1,3.155603709E0,1.699101466E0,2.165946087E0,4.187613044E0
1.372117925E1,3.020278966E0,1.663383164E0,2.128410763E0,4.052044047E0
1.373112325E1,2.922388682E0,1.491309548E0,2.015332776E0,3.850444906E0
1.374106625E1,2.919140553E0,1.320271474E0,2.005368097E0,3.779682465E0
1.375100925E1,2.911708450E0,1.242077828E0,2.060189252E0,3.776927744E0
1.376095325E1,2.843019161E0,1.196326289E0,2.205215403E0,3.791692170E0
1.377089625E1,2.797238094E0,1.119050657E0,2.420487079E0,3.864656909E0
1.378083925E1,2.726972103E0,1.130201882E0,2.446508943E0,3.833945638E0
1.379078225E1,2.792073248E0,9.648730284E-1,2.405511775E0,3.809611514E0
1.380072625E1,2.852694257E0,7.724627960E-1,2.378797601E0,3.793842553E0
1.381066925E1,2.854839892E0,5.443026870E-1,2.332422749E0,3.726469120E0
1.382061225E1,2.787145215E0,3.570140308E-1,2.296931319E0,3.629260386E0
1.383055625E1,2.709209724E0,4.526212692E-2,2.303057447E0,3.556112989E0
1.384049925E1,2.454386896E0,-2.294517589E-1,2.117171538E0,3.249473568E0
1.385044225E1,2.262495020E0,-4.416600788E-1,1.959028913E0,3.025184560E0
1.386038525E1,2.089828496E0,-4.891178352E-1,2.013332005E0,2.942809059E0
1.387032925E1,2.075648998E0,-5.399324781E-1,1.974736873E0,2.915378459E0
1.388027225E1,2.018525648E0,-7.930835867E-1,2.054905708E0,2.987652060E0
1.389021525E1,1.981039440E0,-9.906779605E-1,2.144274552E0,3.082835292E0
1.390015925E1,1.991556243E0,-1.006210504E0,2.010454005E0,3.003444881E0
1.391010225E1,1.749811736E0,-1.064889067E0,1.818972895E0,2.739432830E0
1.392004525E1,1.584071385E0,-1.273235886E0,1.813865937E0,2.724063401E0
1.392998825E1,1.379168284E0,-1.375880249E0,1.913873205E0,2.730945305E0
1.393993225E1,1.203117392E0,-1.365987344E0,1.925092696E0,2.649414043E0
1.394987525E1,1.049671104E0,-1.334966696E0,1.896014639E0,2.545352042E0
1.395981825E1,1.164782023E0,-1.401664131E0,2.098614814E0,2.779489815E0
1.396976225E1,1.375556313E0,-1.577031484E0,2.298973167E0,3.108771637E0
1.397970525E1,1.426531316E0,-1.837348355E0,2.342406139E0,3.301167534E0
1.398964825E1,1.305191651E0,-2.174124588E0,2.307631870E0,3.428630604E0
1.399959225E1,1.041518477E0,-2.396918707E0,2.183981970E0,3.405841639E0
1.400953137E1,7.318980297E-1,-2.576970849E0,2.007585653E0,3.347663908E0
1.401947437E1,6.157414828E-1,-2.641679061E0,1.907111631E0,3.315822765E0
1.402941737E1,6.431564458E-1,-2.731461888E0,1.905193744E0,3.391798559E0
1.403936137E1,7.078121790E-1,-2.919556875E0,2.042819513E0,3.632894437E0
1.404930437E1,7.929998253E-1,-3.146141160E0,2.090217336E0,3.859541609E0
1.405924738E1,7.700129588E-1,-3.381095148E0,1.965243480E0,3.985838217E0
1.406919137E1,6.005904700E-1,-3.656903048E0,1.717576475E0,4.084570695E0
1.407913437E1,3.414396796E-1,-3.837151072E0,1.308197558E0,4.068376858E0
1.408907738E1,8.675484627E-2,-3.890717415E0,9.575575769E-1,4.007758091E0
1.409902037E1,1.009872615E-2,-3.840229046E0,8.921155393E-1,3.942503170E0
1.410896437E1,1.509444103E-2,-3.818914776E0,1.081293139E0,3.969072027E0
1.411890737E1,-5.299477726E-2,-4.005325765E0,1.142676916E0,4.165471578E0
1.412885037E1,-1.770965208E-1,-4.250020630E0,1.032372994E0,4.377194596E0
1.413879438E1,-3.711376879E-1,-4.384780240E0,7.467385554E-1,4.463368617E0
1.414873737E1,-5.611553858E-1,-4.344653723E0,4.059957178E-1,4.399516321E0
1.415868037E1,-7.047765970E-1,-4.235466326E0,1.859723018E-1,4.297728557E0
1.416862338E1,-7.764257464E-1,-4.244297960E0,9.508669004E-2,4.315778446E0
1.417856737E1,-8.063763544E-1,-4.210239099E0,1.228605258E-1,4.288525481E0
1.418851037E1,-7.927504416E-1,-4.117319241E0,1.344698802E-1,4.195098704E0
1.419845337E1,-7.835192961E-1,-4.066823856E0,1.188855886E-1,4.143319025E0
1.420839737E1,-7.682979704E-1,-4.035604987E0,-3.815644428E-2,4.108265485E0
1.421834037E1,-8.383594546E-1,-3.978637319E0,-1.329820561E-1,4.068179656E0
1.422828337E1,-9.961870609E-1,-3.876755433E0,-1.422846839E-1,4.005229866E0
1.423822737E1,-1.243935050E0,-3.755929154E0,-1.219938223E-1,3.958441702E0
1.424817038E1,-1.499590375E0,-3.442065235E0,-3.278373018E-2,3.754684960E0
1.425811337E1,-1.763552985E0,-3.244527580E0,-2.305276465E-1,3.700029911E0
1.426805637E1,-2.069435746E0,-3.276817659E0,-3.654100478E-1,3.892765441E0
1.427800037E1,-2.316888451E0,-3.333485364E0,-2.412746827E-1,4.066732133E0
1.428794337E1,-2.552736479E0,-3.078302933E0,-2.793494122E-1,4.008796400E0
1.429788637E1,-2.847773532E0,-2.610394118E0,-3.201808114E-1,3.876401333E0
1.430783037E1,-3.099334198E0,-2.244878236E0,-3.055496161E-1,3.839102934E0
1.431777337E1,-3.231634469E0,-2.020024143E0,-1.113075241E-1,3.812656324E0
1.432771638E1,-3.236930877E0,-1.751086721E0,1.930540840E-1,3.685281005E0
1.433765937E1,-3.194031025E0,-1.491214823E0,4.511758375E-1,3.553746681E0
1.434760337E1,-3.195995397E0,-1.246248062E0,5.950465786E-1,3.481609002E0
1.435754638E1,-3.267970821E0,-9.753746277E-1,5.700801373E-1,3.457742083E0
1.436748937E1,-3.382392061E0,-8.266419268E-1,5.107800150E-1,3.519205756E0
1.437743337E1,-3.478084084E0,-7.551661474E-1,3.262652779E-1,3.574044465E0
1.438737637E1,-3.443772038E0,-6.936423290E-1,1.603622099E-1,3.516592323E0
1.439731937E1,-3.525987106E0,-6.292674083E-1,1.867822874E-1,3.586565232E0
1.440726338E1,-3.622158308E0,-3.378328246E-1,2.469839772E-1,3.646253270E0
1.441720637E1,-3.593247335E0,3.431964755E-2,3.723365863E-1,3.612649828E0
1.442714937E1,-3.510966778E0,2.262819833E-1,7.102430128E-1,3.589225040E0
1.443709238E1,-3.408322123E0,2.403334272E-1,1.003383302E0,3.561066961E0
1.444703637E1,-3.340238898E0,6.429013610E-2,1.020492255E0,3.493241126E0
1.445697937E1,-3.395757042E0,3.568041158E-1,5.598492640E-1,3.460044257E0
1.446692237E1,-3.486036297E0,7.234724844E-1,7.062617898E-2,3.561018051E0
1.447686637E1,-3.520424065E0,8.968921298E-1,-4.768521309E-2,3.633190742E0
1.448680937E1,-3.341731693E0,1.214507622E0,-2.602945058E-1,3.565102060E0
1.449675237E1,-3.233131064E0,1.239921960E0,-1.041155219E-1,3.464301226E0
1.450669537E1,-3.288142838E0,1.215291148E0,1.413890366E-1,3.508390907E0
1.451663938E1,-3.553338919E0,1.328523649E0,2.775877923E-1,3.803714966E0
1.452658237E1,-3.911698101E0,1.415571148E0,2.356591630E-1,4.166624408E0
1.453652537E1,-4.051072334E0,1.853969650E0,-4.328737602E-2,4.455363545E0
1.454646937E1,-3.566062168E0,2.620162477E0,-3.429660952E-1,4.438431765E0
1.455641237E1,-2.616364710E0,3.211117174E0,-3.110410286E-1,4.153719336E0
1.456635537E1,-1.820481184E0,3.782131112E0,1.287504262E-1,4.199433790E0
1.457629937E1,-1.296956871E0,4.189818867E0,5.540730920E-1,4.420823029E0
1.458624237E1,-1.286813121E0,4.387412072E0,5.862561670E-1,4.609660398E0
1.459618538E1,-1.486858063E0,4.560193201E0,4.326442569E-1,4.815941236E0
1.460612837E1,-1.577214209E0,4.831061373E0,1.701504672E-1,5.084851014E0
1.461607237E1,-1.429285500E0,5.280805228E0,-3.296660185E-2,5.470909220E0
1.462601538E1,-9.886378670E-1,5.576614113E0,-5.285532117E-2,5.663817042E0
1.463595837E1,-5.761343809E-1,5.529337036E0,1.661693904E-1,5.561754323E0
1.464590237E1,-3.695741789E-1,5.635421315E0,3.876560721E-1,5.660815816E0
1.465584537E1,3.134308588E-2,6.011002010E0,7.994918427E-1,6.064018038E0
1.466578837E1,6.979385707E-1,6.300165535E0,1.125205436E0,6.437801744E0
1.467573137E1,1.279341549E0,6.184708754E0,1.197755056E0,6.428215487E0
1.468567537E1,1.618565718E0,5.730237426E0,9.982120979E-1,6.037532884E0
1.469561837E1,1.592657875E0,5.020183132E0,5.601840171E-1,5.296470893E0
1.470556138E1,1.311973397E0,4.415467597E0,3.065584069E-1,4.616449540E0
1.471550537E1,1.151710060E0,4.239010323E0,2.734628740E-1,4.401184673E0
1.472544837E1,1.428166051E0,4.084208797E0,4.330155551E-1,4.348324072E0
1.473539137E1,1.878454866E0,3.771507306E0,7.491519937E-1,4.279496319E0
1.474533537E1,2.222403878E0,3.392704210E0,8.698054880E-1,4.148021509E0
1.475527837E1,2.428963495E0,3.054865538E0,7.802944104E-1,3.980066141E0
1.476522137E1,2.535206819E0,2.752676171E0,7.751550002E-1,3.821696612E0
1.477516437E1,2.707319027E0,2.638509870E0,8.339874914E-1,3.871284772E0
1.478510838E1,2.979088547E0,2.562414790E0,9.052837613E-1,4.032428154E0
1.479505137E1,3.204280025E0,2.257783626E0,1.142286907E0,4.082868692E0
1.480499437E1,3.144649535E0,1.786438403E0,1.370232277E0,3.867521087E0
1.481493837E1,3.038917843E0,1.745017312E0,1.253459287E0,3.721729068E0
1.482488137E1,2.974276873E0,1.789964858E0,1.278876110E0,3.699435257E0
1.483482437E1,2.964317019E0,1.819975693E0,1.623916651E0,3.838826930E0
1.484476737E1,3.260242556E0,1.788977264E0,1.930146299E0,4.189878985E0
1.485471137E1,3.557461498E0,1.629471653E0,2.313090684E0,4.545448129E0
1.486465438E1,3.640030615E0,1.493508686E0,2.515318977E0,4.669820192E0
1.487459737E1,3.533605443E0,1.320904142E0,2.449917723E0,4.498138730E0
1.488454137E1,3.269386725E0,1.110240657E0,2.334668080E0,4.167996990E0
1.489448437E1,3.102029765E0,9.900049460E-1,2.442867297E0,4.070663224E0
1.490442737E1,3.116915022E0,8.545489329E-1,2.589068738E0,4.141097688E0
1.491437137E1,3.131471957E0,5.809822708E-1,2.692555100E0,4.170552719E0
1.492431437E1,3.038157704E0,2.252651525E-1,2.652467174E0,4.039397076E0
1.493425737E1,2.800395006E0,-6.821829557E-2,2.554371361E0,3.790999732E0
1.494420038E1,2.604977843E0,-1.193241298E-1,2.628806416E0,3.702805825E0
1.495414437E1,2.558551535E0,-1.130845660E-1,2.652559560E0,3.687146091E0
1.496408737E1,2.601584119E0,-3.472462571E-1,2.605049179E0,3.697986089E0
1.497403038E1,2.727192836E0,-6.724508500E-1,2.533469903E0,3.782623516E0
1.498397437E1,2.676578460E0,-9.397884732E-1,2.454817836E0,3.751453750E0
1.499391737E1,2.483384993E0,-1.130098386E0,2.301421981E0,3.569435042E0
1.500386425E1,2.387027703E0,-1.015145634E0,2.202889380E0,3.403107923E0
1.501380825E1,2.344789902E0,-8.856730771E-1,2.418693738E0,3.483178991E0
1.502375125E1,2.475283091E0,-1.012575198E0,2.701273298E0,3.801211957E0
1.503369425E1,2.500935411E0,-1.264368584E0,2.976486536E0,4.088126459E0
1.504363725E1,2.475175502E0,-1.492308837E0,2.923914220E0,4.111295878E0
1.505358125E1,2.386691196E0,-1.720367205E0,2.626466360E0,3.943891951E0
1.506352425E1,1.999507286E0,-2.084419529E0,2.433309438E0,3.776748467E0
1.507346725E1,1.721822430E0,-2.247703611E0,2.233547648E0,3.606324874E0
1.508341125E1,1.512569147E0,-2.301305621E0,2.269980333E0,3.568849072E0
1.509335425E1,1.190699806E0,-2.425240281E0,2.404468632E0,3.616770085E0
1.510329725E1,1.028187703E0,-2.364889998E0,2.453189971E0,3.559215601E0
1.511324025E1,9.650421591E-1,-2.360121009E0,2.534732902E0,3.595323133E0
1.512318425E1,9.465070702E-1,-2.470688349E0,2.496904925E0,3.637954199E0
1.513312725E1,9.398662412E-1,-2.659665096E0,2.358158684E0,3.676694080E0
1.514307025E1,6.837983952E-1,-2.823797024E0,2.089947194E0,3.579006727E0
1.515301425E1,3.739765111E-1,-2.859641041E0,1.835405910E0,3.418496770E0
1.516295725E1,6.888970211E-2,-2.808034101E0,1.664069335E0,3.264801380E0
1.517290025E1,5.546917275E-2,-2.831888986E0,1.601345522E0,3.253763904E0
1.518284425E1,1.665104292E-1,-2.999232205E0,1.758712368E0,3.480831616E0
1.519278725E1,1.084810531E-1,-3.227909208E0,1.874426719E0,3.734252471E0
1.520273025E1,-1.213944827E-1,-3.307388656E0,1.917474798E0,3.824953064E0
1.521267325E1,-4.552811676E-1,-3.442610781E0,1.823033202E0,3.922027535E0
1.522261725E1,-7.402855682E-1,-3.581855789E0,1.559347165E0,3.976088178E0
1.523256025E1,-9.337357280E-1,-3.819907633E0,1.326772993E0,4.150166660E0
1.524250325E1,-1.042262389E0,-3.901720705E0,1.120724130E0,4.191152338E0
1.525244725E1,-1.071497298E0,-3.846115438E0,8.914477873E-1,4.090891050E0
1.526239025E1,-1.015938078E0,-3.910676301E0,8.299675307E-1,4.124847319E0
1.527233325E1,-9.537117170E-1,-3.782317638E0,7.726999006E-1,3.976500709E0
1.528227725E1,-9.876340462E-1,-3.787207080E0,7.518422976E-1,3.985426616E0
1.529222025E1,-1.028264594E0,-3.859414346E0,6.475548676E-1,4.046200004E0
1.530216325E1,-1.149480882E0,-4.072252411E0,7.135868892E-1,4.291124823E0
1.531210625E1,-1.180662622E0,-4.259138194E0,5.748833326E-1,4.456984768E0
1.532205025E1,-1.251464363E0,-4.315398933E0,4.404021965E-1,4.514729793E0
1.533199325E1,-1.367494903E0,-4.305415397E0,3.682526717E-1,4.532356350E0
1.534193625E1,-1.653215733E0,-4.411207901E0,3.847445972E-1,4.726510955E0
1.535188025E1,-1.878468461E0,-4.520603458E0,2.577338639E-1,4.902134854E0
1.536182325E1,-2.106438243E0,-4.495921776E0,4.965163171E-3,4.964918866E0
1.537176625E1,-2.290283035E0,-4.340112190E0,-2.402223301E-1,4.913214525E0
1.538171025E1,-2.491030812E0,-4.135393569E0,-3.423332803E-1,4.839825054E0
1.539165325E1,-2.696082140E0,-4.094681160E0,-2.775415993E-1,4.910427889E0
1.540159625E1,-2.691901381E0,-3.851804779E0,-3.264849870E-1,4.710554696E0
1.541153925E1,-2.711014760E0,-3.550075003E0,-2.067176382E-1,4.471617798E0
1.542148325E1,-2.785994191E0,-3.278499318E0,-1.404638609E-1,4.304654632E0
1.543142625E1,-2.906510568E0,-3.051098177E0,-1.199708319E-1,4.215613451E0
1.544136925E1,-3.063982809E0,-2.873103086E0,-2.052518874E-3,4.200323346E0
1.545131325E1,-3.291310860E0,-2.511360996E0,1.379978708E-1,4.142306681E0
1.546125625E1,-3.567645886E0,-2.031387037E0,1.851626817E-1,4.109612595E0
1.547119925E1,-3.820597605E0,-1.590159068E0,2.357878383E-1,4.145017228E0
1.548114325E1,-4.179450585E0,-1.176496042E0,2.744262393E-1,4.350547079E0
1.549108625E1,-4.305883175E0,-7.516198111E-1,1.575661262E-1,4.373830054E0
1.550102925E1,-4.194874662E0,-3.412739110E-1,2.017289400E-1,4.213565697E0
1.551097225E1,-4.192809134E0,1.590735018E-2,4.503455329E-1,4.216955368E0
1.552091625E1,-4.281630386E0,1.606101501E-1,5.751333010E-1,4.323069823E0
1.553085925E1,-4.308060093E0,3.971756315E-1,2.283407879E-1,4.332351528E0
1.554080225E1,-4.321268953E0,1.124693804E0,-1.247831269E-1,4.466975750E0
1.555074625E1,-4.173942508E0,1.725365404E0,-1.854667735E-1,4.520296424E0
1.556068925E1,-3.849912913E0,1.972600300E0,6.688045263E-2,4.326367342E0
1.557063225E1,-3.673089603E0,2.065723642E0,2.517881227E-1,4.221634595E0
1.558057625E1,-3.671769886E0,2.185731311E0,2.053355026E-1,4.278022689E0
1.559051925E1,-3.947890612E0,2.250739485E0,-1.081698351E-1,4.545697881E0
1.560046225E1,-4.207940558E0,2.259124977E0,-3.654227655E-1,4.789983633E0
1.561040525E1,-4.260537432E0,2.677691478E0,-7.934531307E-1,5.094288835E0
1.562034925E1,-3.696770242E0,3.111178903E0,-8.074631325E-1,4.898728518E0
1.563029225E1,-3.254447089E0,3.590356472E0,-4.745968598E-1,4.869017111E0
1.564023525E1,-3.266088895E0,3.977653232E0,-3.783575374E-1,5.160641078E0
1.565017925E1,-3.729950852E0,4.113703322E0,-5.790795869E-1,5.583047693E0
1.566012225E1,-4.400972350E0,4.271782798E0,-1.167451569E0,6.243366805E0
1.567006525E1,-4.571988497E0,4.574807147E0,-1.592351335E0,6.660894987E0
1.568000825E1,-4.086261462E0,4.909076094E0,-1.558438653E0,6.574594426E0
1.568995225E1,-3.313860062E0,5.289933316E0,-1.080628018E0,6.335046954E0
1.569989525E1,-2.516197813E0,5.590830449E0,-4.863427466E-1,6.150216729E0
1.570983825E1,-1.944266447E0,5.859564972E0,-1.733943562E-1,6.176142751E0
1.571978225E1,-1.345927594E0,6.099115457E0,-1.405122466E-1,6.247437406E0
1.572972525E1,-9.710456416E-1,5.914763272E0,-9.037690401E-2,5.994624441E0
1.573966825E1,-7.829126474E-1,5.503977077E0,-3.187798186E-1,5.568512948E0
1.574961225E1,-2.638067821E-1,5.242121218E0,-3.589582300E-1,5.261015101E0
1.575955525E1,2.713672502E-1,5.282763460E0,-7.373061195E-2,5.290242543E0
1.576949825E1,1.021345145E0,5.455924074E0,2.495579946E-1,5.556305661E0
1.577944225E1,1.633025005E0,5.474388996E0,7.742787950E-1,5.764998977E0
1.578938525E1,2.005120467E0,5.300444856E0,1.078153622E0,5.768677404E0
1.579932825E1,2.412819918E0,4.978190183E0,1.024466535E0,5.626154027E0
1.580927125E1,2.890132809E0,4.670406200E0,1.110162304E0,5.603393799E0
1.581921525E1,3.466452802E0,4.480065297E0,1.202970627E0,5.790890987E0
1.582915825E1,3.942854698E0,4.316283617E0,1.508550063E0,6.037559998E0
1.583910125E1,4.151613745E0,4.174382218E0,1.848692392E0,6.170820622E0
1.584904525E1,4.232422850E0,3.918293468E0,1.946230820E0,6.087219504E0
1.585898825E1,4.344284179E0,3.622073523E0,1.916156543E0,5.971924106E0
1.586893125E1,4.464069654E0,3.363961052E0,2.041097508E0,5.950649618E0
1.587887425E1,4.498476132E0,3.175788882E0,2.188744381E0,5.925582208E0
1.588881825E1,4.398772919E0,2.830119034E0,2.244619204E0,5.691844369E0
1.589876125E1,4.359707087E0,2.496627767E0,2.341436816E0,5.542790133E0
1.590870425E1,4.447938940E0,2.338617874E0,2.391004833E0,5.565087464E0
1.591864825E1,4.392494472E0,1.978473244E0,2.484388375E0,5.420382796E0
1.592859125E1,4.358358427E0,1.620088041E0,2.363488421E0,5.215942000E0
1.593853425E1,4.307018119E0,1.389540514E0,2.327855489E0,5.089217926E0
1.594847825E1,4.162827535E0,1.564296833E0,2.942770321E0,5.332546749E0
1.595842125E1,4.030477856E0,1.861293288E0,3.322451084E0,5.545073999E0
1.596836425E1,3.850635921E0,1.405775308E0,3.647096683E0,5.486794640E0
1.597830825E1,3.736958155E0,6.675111222E-1,3.537937353E0,5.189164486E0
1.598825125E1,3.638953558E0,1.672800690E-1,3.123701885E0,4.798695561E0
1.599819425E1,3.362122103E0,-2.655442822E-1,2.829222071E0,4.402144515E0
1.600813412E1,3.007228857E0,-4.387335473E-1,2.766644000E0,4.109772688E0
1.601807812E1,2.829391056E0,-9.876531959E-2,3.338428016E0,4.377249131E0
1.602802113E1,2.833847803E0,8.377305865E-2,3.807262444E0,4.746889363E0
1.603796412E1,2.828268975E0,-4.025872296E-1,3.897465101E0,4.832330296E0
1.604790812E1,2.645975010E0,-9.146290737E-1,3.640959445E0,4.592854862E0
1.605785112E1,2.303820655E0,-1.258888573E0,3.211123606E0,4.147734907E0
1.606779412E1,1.963317553E0,-1.365932381E0,3.049287879E0,3.875376582E0
1.607773812E1,1.775886517E0,-1.370089166E0,3.007700143E0,3.751956476E0
1.608768112E1,1.690959364E0,-1.433832588E0,3.303073411E0,3.978129387E0
1.609762412E1,1.658386865E0,-1.525972427E0,3.569388356E0,4.221299809E0
1.610756713E1,1.381736235E0,-1.855606871E0,3.629973112E0,4.304553017E0
1.611751112E1,1.129626662E0,-2.205355736E0,3.411801217E0,4.216638218E0
1.612745412E1,8.703163885E-1,-2.492194993E0,3.139571228E0,4.101876887E0
1.613739713E1,6.303497279E-1,-2.650986074E0,2.964903202E0,4.026874587E0
1.614734112E1,5.699938908E-1,-2.765808433E0,2.852255423E0,4.013720259E0
1.615728412E1,4.544887237E-1,-2.982094016E0,2.834605310E0,4.139375797E0
1.616722712E1,3.956709968E-1,-3.189146261E0,2.892476373E0,4.323612955E0
1.617717112E1,3.945028692E-1,-3.299325346E0,2.858935867E0,4.383456917E0
1.618711413E1,3.638381700E-1,-3.417435009E0,2.780905651E0,4.420936156E0
1.619705712E1,2.883038382E-1,-3.623927091E0,2.668089472E0,4.509397753E0
1.620700012E1,3.117039567E-1,-3.894424549E0,2.531106459E0,4.655126404E0
1.621694413E1,2.785267089E-1,-4.159546663E0,2.530234931E0,4.876627356E0
1.622688712E1,-7.797115892E-3,-4.369487432E0,2.571361907E0,5.069949041E0
