"Time (s)","Linear Acceleration x (m/s^2)","Linear Acceleration y (m/s^2)","Linear Acceleration z (m/s^2)","Absolute acceleration (m/s^2)"
5.080666626E-3,-1.756439628E-3,-1.792824613E-2,-1.959285021E-2,2.661553811E-2
1.502466667E-2,8.727699350E-2,1.708533573E-2,-5.162682116E-2,1.028324412E-1
2.496866661E-2,1.441397130E-1,5.640355781E-2,-1.495308459E-2,1.555030963E-1
3.491266666E-2,1.447446989E-1,5.432700139E-2,1.512674689E-3,1.546115750E-1
4.485566658E-2,8.967793333E-2,1.560107485E-2,-5.611631334E-2,1.069325296E-1
5.479966663E-2,6.168246064E-3,-1.489660414E-2,-3.321218491E-2,3.691890167E-2
6.474366668E-2,-7.818269108E-2,-1.036249040E-2,-1.764221907E-2,8.081560670E-2
7.468766661E-2,-1.353390140E-1,-2.062492260E-2,-2.033486187E-2,1.384035503E-1
8.463066665E-2,-1.547217481E-1,-4.047756049E-2,-3.305781841E-2,1.633097413E-1
9.457466658E-2,-1.247581757E-1,-4.287352106E-2,-3.335661113E-2,1.360713222E-1
1.045186666E-1,-5.597079990E-2,-7.331926490E-3,-2.093361676E-2,6.020551385E-2
1.144616667E-1,3.416502524E-2,2.517890317E-2,-1.674350202E-2,4.562423670E-2
1.244056666E-1,1.077304899E-1,2.478371362E-2,-3.186323225E-2,1.150450194E-1
1.343496667E-1,1.424512108E-1,2.561551888E-2,-2.198202252E-2,1.463957362E-1
1.442936666E-1,1.186525771E-1,3.771877105E-2,-3.590307355E-2,1.295768900E-1
1.542366666E-1,5.176779388E-2,1.750451714E-2,-2.003606915E-2,5.820443858E-2
1.641806667E-1,-2.644412415E-2,-8.853200697E-3,-2.811867535E-2,3.960215611E-2
1.741246666E-1,-1.061887162E-1,-2.356978825E-2,-1.808777690E-2,1.102667041E-1
1.840686667E-1,-1.371605130E-1,-2.647355666E-2,-2.646859109E-2,1.421775012E-1
1.940116666E-1,-1.228530981E-1,-2.785858161E-2,-2.631948709E-2,1.286922673E-1
2.039556666E-1,-7.881965387E-2,-1.747896983E-2,-2.736847758E-2,8.524720398E-2
2.138996667E-1,-7.753024232E-3,9.808450725E-3,-3.440384746E-2,3.660518830E-2
2.238436666E-1,6.749458387E-2,2.742977742E-2,-2.856657207E-2,7.825573832E-2
2.337866666E-1,1.141301761E-1,4.463783615E-2,-2.213054180E-2,1.245310981E-1
2.437306666E-1,1.087370150E-1,3.422720901E-2,-2.632182598E-2,1.169960631E-1
2.536746666E-1,7.124586507E-2,2.310478386E-2,-2.198026836E-2,7.805726439E-2
2.636186667E-1,2.839755099E-3,4.478275117E-3,-3.500143290E-2,3.540083985E-2
2.735616666E-1,-5.644304479E-2,-3.479417651E-3,-2.362392068E-2,6.128632213E-2
2.835056667E-1,-1.051806014E-1,-1.795495603E-2,-1.703703225E-2,1.080536895E-1
2.934496666E-1,-1.126819943E-1,-3.111344790E-2,-1.838423073E-2,1.183353642E-1
3.033926666E-1,-8.301120300E-2,-2.663704572E-2,-3.275376320E-2,9.313002218E-2
3.133366667E-1,-2.124026667E-2,-1.148850881E-2,-2.437177956E-2,3.430915916E-2
3.232806666E-1,2.719062173E-2,1.088196983E-2,-2.377360940E-2,3.772176668E-2
3.332246667E-1,7.181257904E-2,2.670852793E-2,-3.545108378E-2,8.442257585E-2
3.431676666E-1,9.107850594E-2,3.163656814E-2,-1.958466411E-2,9.838559729E-2
3.531116666E-1,7.619683960E-2,2.695246875E-2,-2.108038187E-2,8.352710002E-2
3.630556667E-1,2.980984543E-2,1.129195101E-2,-3.694738626E-2,4.879799580E-2
3.729996666E-1,-2.782592171E-2,9.240770596E-4,-2.796430886E-2,3.946059309E-2
3.829426666E-1,-8.235283392E-2,-1.188091409E-2,-2.661594093E-2,8.735876422E-2
3.928866666E-1,-1.088291086E-1,-2.595823423E-2,-2.422092140E-2,1.144738304E-1
4.028306666E-1,-1.291889673E-1,-2.739578362E-2,-3.275317848E-2,1.360628125E-1
4.127746667E-1,-1.050886265E-1,-3.191751086E-2,-2.122890115E-2,1.118615804E-1
4.227176666E-1,-5.468353537E-2,-1.829694619E-2,-2.646859109E-2,6.344803854E-2
4.326616667E-1,1.997269996E-2,8.947009679E-3,-2.257843852E-2,3.144429379E-2
4.426056666E-1,7.746755834E-2,3.293142034E-2,-2.242874980E-2,8.711343098E-2
4.525496666E-1,1.147632925E-1,3.710591662E-2,-2.003373027E-2,1.222653373E-1
4.624926667E-1,1.130603823E-1,3.957130145E-2,-1.120151103E-2,1.203079872E-1
4.724366666E-1,8.159021996E-2,2.013371994E-2,-2.362392068E-2,8.729501876E-2
4.823806667E-1,2.813960656E-2,1.223711459E-2,-3.410213113E-2,4.587526325E-2
4.923236666E-1,-4.235697437E-2,-7.821597682E-3,-2.856364846E-2,5.168338884E-2
5.022676666E-1,-1.123966319E-1,-2.012068019E-2,-2.856481791E-2,1.177021387E-1
5.122116667E-1,-1.313117442E-1,-3.664215704E-2,-2.617038310E-2,1.388175449E-1
5.221556666E-1,-1.194932423E-1,-2.411618771E-2,-3.904302835E-2,1.280022794E-1
5.320986666E-1,-5.814326892E-2,-1.091897174E-2,-2.048221171E-2,6.260498910E-2
5.420426666E-1,1.599239976E-2,1.276402409E-2,-2.587100565E-2,3.298463422E-2
5.519866666E-1,6.955092170E-2,2.192561517E-2,-2.587100565E-2,7.737811217E-2
5.619306667E-1,1.066660134E-1,3.239103026E-2,-3.125979960E-2,1.157756120E-1
5.718736666E-1,1.090645321E-1,2.005517539E-2,-2.856423318E-2,1.145128711E-1
5.818176667E-1,6.966835024E-2,1.349308509E-2,-3.125746071E-2,7.754206098E-2
5.917616666E-1,4.411724210E-4,3.953517205E-3,-2.481967628E-2,2.513645285E-2
6.017056666E-1,-6.504310216E-2,-1.539955148E-2,-4.143453956E-2,7.864205232E-2
6.116486667E-1,-9.989356725E-2,-1.419574682E-2,-2.886010230E-2,1.049435539E-1
6.215926666E-1,-1.201710442E-1,-3.202567293E-2,-2.856189430E-2,1.276029208E-1
6.315366667E-1,-9.734810069E-2,-1.909998018E-2,-2.856247902E-2,1.032340891E-1
6.414796666E-1,-2.564999004E-2,9.101442411E-4,-2.736613870E-2,3.751874063E-2
6.514236666E-1,3.784245794E-2,1.195851874E-2,-2.661944926E-2,4.778758073E-2
6.613676667E-1,8.619010574E-2,2.730328341E-2,-1.389590800E-2,9.147294612E-2
6.713116666E-1,1.073299008E-1,2.744356634E-2,-3.560018778E-2,1.163624953E-1
6.812546666E-1,9.243829421E-2,2.338149420E-2,-3.455178201E-2,1.014167548E-1
6.911986666E-1,2.983918201E-2,2.098045158E-2,-1.404501200E-2,3.908731884E-2
7.011426666E-1,-3.199283031E-2,3.528316134E-3,-1.299777567E-2,3.471213589E-2
7.110866667E-1,-7.268224273E-2,-1.971735707E-2,-2.976232767E-2,8.097702592E-2
7.210296666E-1,-1.006869431E-1,-2.192644657E-2,-2.287664652E-2,1.055555329E-1
7.309736667E-1,-1.047143956E-1,-2.028829200E-2,-2.287664652E-2,1.090873979E-1
7.409176666E-1,-7.233182092E-2,-5.096342942E-3,-2.018341899E-2,7.526775825E-2
7.508616666E-1,-6.368202567E-3,4.878226952E-3,-2.781812847E-2,2.895167307E-2
7.608046667E-1,5.819610399E-2,1.661484957E-2,-3.230995953E-2,6.860592708E-2
7.707486666E-1,8.864155090E-2,2.275786353E-2,-2.916591167E-2,9.605152421E-2
7.806926667E-1,7.851702391E-2,3.303084585E-2,-2.422559917E-2,8.855980734E-2
7.906356666E-1,4.879475880E-2,1.508266208E-2,-2.347657084E-2,5.621000410E-2
8.005796666E-1,2.416818682E-2,2.878515744E-3,-3.814548075E-2,4.524892053E-2
8.105236667E-1,-1.705317604E-2,-1.306947944E-2,-3.065987527E-2,3.743861720E-2
8.204676666E-1,-7.948561518E-2,-1.791682693E-2,-2.706617653E-2,8.585775224E-2
8.304106666E-1,-1.114914647E-1,-1.690966230E-2,-2.137742043E-2,1.147748992E-1
8.403546666E-1,-9.593866590E-2,-1.379361028E-2,-2.032959938E-2,9.903425625E-2
8.502986666E-1,-3.251658551E-2,-5.345289290E-3,-2.407181740E-2,4.080873490E-2
8.602426667E-1,1.870166145E-2,8.200142083E-3,-1.568866432E-2,2.575128462E-2
8.701890416E-1,5.215064032E-2,1.748659177E-2,-2.047987282E-2,5.869323103E-2
8.801330416E-1,7.567495733E-2,2.890561008E-2,-1.853333473E-2,8.310064956E-2
8.900770416E-1,8.062362039E-2,2.007096972E-2,-3.170711160E-2,8.892892059E-2
9.000210416E-1,5.575080754E-2,1.615621545E-2,-2.631714821E-2,6.373200239E-2
9.099640417E-1,9.531418327E-4,7.240874378E-3,-2.077925026E-2,2.202534864E-2
9.199080416E-1,-5.627996229E-2,-6.190782969E-3,-1.554072976E-2,5.871349274E-2
9.298520416E-1,-8.213956587E-2,-1.321312223E-2,-3.200590432E-2,8.913962526E-2
9.397950416E-1,-8.245419175E-2,-1.977873456E-2,-2.811399758E-2,8.933246296E-2
9.497390416E-1,-6.662423495E-2,-2.006972262E-2,-2.033076882E-2,7.249084501E-2
9.596830417E-1,-1.885291248E-2,-4.672174270E-3,-1.733816385E-2,2.603600290E-2
9.696270416E-1,2.416003726E-2,1.445710366E-2,-1.599330425E-2,3.238056559E-2
9.795700416E-1,6.703310151E-2,1.995185554E-2,-2.886711895E-2,7.566256534E-2
9.895140416E-1,8.008807026E-2,2.589628116E-2,-2.257960796E-2,8.714674447E-2
9.994580416E-1,5.620424084E-2,2.370509648E-2,-2.587217510E-2,6.625871816E-2
1.009402042E0,1.944259504E-2,1.137449953E-2,-2.287781596E-2,3.210589050E-2
1.019345042E0,-2.739111727E-2,-1.515844977E-3,-2.691941142E-2,3.843469530E-2
1.029289042E0,-6.291768495E-2,-1.049572012E-2,-2.512314677E-2,6.855631061E-2
1.039233042E0,-7.989323921E-2,-2.634603711E-2,-2.736730814E-2,8.846475511E-2
1.049177042E0,-7.994244718E-2,-1.647699918E-2,-2.632007182E-2,8.576148636E-2
1.059120042E0,-5.312617516E-2,-9.264849247E-3,-2.766843975E-2,6.061163648E-2
1.069064042E0,4.428936951E-3,6.447286159E-4,-3.141124249E-2,3.172849369E-2
1.079008042E0,3.852203230E-2,1.875304158E-2,-1.898707867E-2,4.686291388E-2
1.088951042E0,6.393976911E-2,1.757795908E-2,-2.542427838E-2,7.101881899E-2
1.098895042E0,7.598718951E-2,1.924923949E-2,-3.739996076E-2,8.685242228E-2
1.108839042E0,4.957217353E-2,1.300390155E-2,-2.003723860E-2,5.502720032E-2
1.118783042E0,-3.976581730E-3,3.115860166E-3,-1.404910505E-2,1.492980708E-2
1.128726042E0,-4.614612543E-2,-7.230644035E-3,-2.302984357E-2,5.207802608E-2
1.138670042E0,-6.569023361E-2,-8.075262916E-3,-3.170945048E-2,7.338873152E-2
1.148614042E0,-6.631015725E-2,-2.063299450E-2,-2.212820292E-2,7.288631408E-2
1.158558042E0,-6.139259406E-2,-1.138560924E-2,-2.512197733E-2,6.730376251E-2
1.168501042E0,-4.050385469E-2,-9.962641345E-3,-3.006287456E-2,5.141588173E-2
1.178445042E0,1.320904288E-2,1.287035434E-2,-1.509400249E-2,2.383178016E-2
1.188389042E0,4.871709133E-2,1.945233659E-2,-1.195053935E-2,5.380115034E-2
1.198333042E0,5.387201493E-2,1.318985214E-2,-3.080897927E-2,6.344572007E-2
1.208276042E0,4.729246292E-2,1.072479393E-2,-3.125687599E-2,5.769393860E-2
1.218220042E0,2.388435018E-2,1.126943237E-2,-2.541784644E-2,3.665418404E-2
1.228164042E0,1.433408372E-3,1.975043267E-3,-1.553663671E-2,1.572712738E-2
1.238107042E0,-4.464596744E-2,-1.476687133E-2,-2.796080053E-2,5.470949884E-2
1.248051042E0,-7.115666762E-2,-1.755650254E-2,-2.646391332E-2,7.792201766E-2
1.257995042E0,-7.027969491E-2,-1.185600632E-2,-1.972675145E-2,7.395231656E-2
1.267939042E0,-4.317457957E-2,-1.218025270E-4,-2.646391332E-2,5.063988414E-2
1.277882042E0,-6.789384820E-3,4.474330531E-4,-2.646391332E-2,2.732461621E-2
1.287826042E0,2.435701534E-2,2.114912777E-3,-3.649188817E-2,4.392487853E-2
1.297770042E0,5.845588482E-2,1.592441218E-2,-2.496468723E-2,6.552795573E-2
1.307714042E0,6.839258828E-2,2.328807808E-2,-1.852865696E-2,7.458680742E-2
1.317657042E0,4.544425855E-2,1.118392598E-2,-2.376776218E-2,5.248968808E-2
1.327601042E0,3.974434705E-3,6.155439292E-3,-2.122188449E-2,2.245114575E-2
1.337545042E0,-3.532207958E-2,-1.102115640E-3,-2.526289523E-2,4.344050921E-2
1.347488042E0,-5.648781253E-2,-8.569450853E-3,-1.852748752E-2,6.006310220E-2
1.357432042E0,-6.619519550E-2,-7.646556941E-3,-1.957647800E-2,6.945150993E-2
1.367376042E0,-5.292713229E-2,-9.882212437E-3,-2.945651829E-2,6.137284354E-2
1.377320042E0,-3.035359081E-2,8.820182201E-4,-3.215149999E-2,4.422485028E-2
1.387263042E0,-1.091971178E-2,7.310766878E-3,-2.047577977E-2,2.432991934E-2
1.397207042E0,2.839656428E-2,1.098900128E-2,-2.182356298E-2,3.746185944E-2
1.407151042E0,5.755105561E-2,1.033589013E-2,-2.287196875E-2,6.278599828E-2
1.417095042E0,5.578996561E-2,1.603082008E-2,-3.738943577E-2,6.904692146E-2
1.427038042E0,3.099141240E-2,1.394517764E-2,-2.556344211E-2,4.252558283E-2
1.436982042E0,-7.792492937E-3,-6.481707073E-4,-1.837721407E-2,1.997160656E-2
1.446926042E0,-3.215884555E-2,-5.945748088E-3,-3.229826510E-2,4.596434701E-2
1.456870042E0,-6.032999053E-2,-7.250800941E-3,-2.391569674E-2,6.530116708E-2
1.466813042E0,-5.792262789E-2,-8.058979791E-3,-2.795729220E-2,6.481965878E-2
1.476757042E0,-4.907611951E-2,3.896077448E-3,-1.777787447E-2,5.234212211E-2
1.486701042E0,-2.171726243E-2,1.323366514E-3,-1.942445040E-2,2.916676292E-2
1.496644042E0,1.965652090E-2,-3.858255555E-3,-3.169834077E-2,3.749733001E-2
1.506588042E0,4.063300506E-2,7.775794112E-3,-2.900394380E-2,5.052457650E-2
1.516532042E0,6.982051489E-2,1.729640194E-2,-4.172573090E-2,8.315711899E-2
1.526476042E0,5.463583488E-2,1.333962766E-2,-2.046934783E-2,5.984993166E-2
1.536419042E0,1.354023283E-2,1.208871637E-2,-2.900102019E-2,3.421306974E-2
1.546363042E0,-1.591946488E-2,6.985287101E-3,-1.971973479E-2,2.628861994E-2
1.556307042E0,-4.645050041E-2,-1.184549960E-3,-2.510677457E-2,5.281479221E-2
1.566251042E0,-6.275504099E-2,-1.198224222E-2,-2.196272671E-2,6.755835006E-2
1.576194042E0,-5.721989307E-2,-8.023208992E-3,-2.720241666E-2,6.386281795E-2
1.586138042E0,-4.448809261E-2,-6.370701338E-4,-2.345961392E-2,5.029860563E-2
1.596082042E0,-6.233789697E-3,1.224056582E-2,-2.196331143E-2,2.590518548E-2
1.606025042E0,3.100600303E-2,1.124272933E-2,-2.765089810E-2,4.303885863E-2
1.615969042E0,4.592844456E-2,1.263147502E-2,-3.408809781E-2,5.857452170E-2
1.625913042E0,4.975044052E-2,1.638837960E-2,-3.393957853E-2,6.241458411E-2
1.635857042E0,3.794540548E-2,1.829967223E-2,-2.765089810E-2,5.039150689E-2
1.645800042E0,1.059375691E-2,7.224006532E-4,-3.034354091E-2,3.214778411E-2
1.655744042E0,-2.345899265E-2,-7.095870283E-3,-3.498447597E-2,4.271521123E-2
1.665688042E0,-4.076645862E-2,-9.580018739E-3,-3.004591763E-2,5.154064487E-2
1.675632042E0,-5.630481295E-2,-3.437333687E-3,-1.881984830E-2,5.946624181E-2
1.685575042E0,-4.852725782E-2,-2.588482427E-3,-1.582665861E-2,5.110849358E-2
1.695519042E0,-1.706360967E-2,-6.673619086E-3,-2.735385954E-2,3.292320760E-2
1.705463042E0,6.621989999E-3,4.758327054E-3,-2.331343353E-2,2.469835239E-2
1.715407042E0,2.535380116E-2,2.036200346E-2,-1.568047822E-2,3.610129936E-2
1.725350042E0,4.551699243E-2,1.993890716E-2,-2.092016816E-2,5.391669551E-2
1.735294042E0,4.625322998E-2,1.161072933E-2,-3.514059663E-2,5.923708171E-2
1.745238042E0,3.486611553E-2,8.840907840E-3,-4.412191987E-2,5.692584191E-2
1.755181042E0,-3.731053490E-3,9.219569871E-3,-2.151833832E-2,2.370569790E-2
1.765125042E0,-3.410372084E-2,3.553058307E-3,-1.852456391E-2,3.897239365E-2
1.775069042E0,-4.958957814E-2,-6.552216271E-4,-2.346487641E-2,5.486488859E-2
1.785013042E0,-5.190321174E-2,-1.260666547E-2,-2.166919649E-2,5.764048472E-2
1.794956042E0,-4.464859868E-2,-6.632688576E-3,-2.960328341E-2,5.398003622E-2
1.804900042E0,-2.384835326E-2,1.310192007E-3,-2.406713963E-2,3.390704597E-2
1.814844042E0,6.173280152E-3,-1.754082469E-3,-2.301990330E-2,2.389774343E-2
1.824788042E0,2.279896991E-2,2.476412316E-3,-2.751056492E-2,3.581559478E-2
1.834731042E0,3.977129906E-2,1.127311429E-2,-2.810873508E-2,4.998940211E-2
1.844675042E0,2.947998938E-2,1.621296770E-2,-2.541258395E-2,4.216312985E-2
1.854619042E0,1.107853677E-2,4.702840175E-3,-2.166861176E-2,2.478667825E-2
1.864562042E0,-1.084928024E-2,-8.083085851E-3,-3.738592744E-2,3.975865603E-2
1.874501667E0,-2.020239503E-2,-5.974780885E-3,-2.870339692E-2,3.560505254E-2
1.884445667E0,-3.817231399E-2,-1.299495713E-3,-3.244561493E-2,5.011518904E-2
1.894389667E0,-4.072828727E-2,7.588224113E-4,-2.316432953E-2,4.686102173E-2
1.904332667E0,-3.242386146E-2,-3.944671007E-3,-2.990149140E-2,4.428280038E-2
1.914276667E0,1.746435408E-3,8.027519030E-4,-1.792580903E-2,1.802856280E-2
1.924220667E0,2.305552564E-2,1.775737952E-2,-2.361339569E-2,3.747631580E-2
1.934164667E0,3.853619353E-2,1.773796494E-2,-2.660833955E-2,5.007671460E-2
1.944107667E0,2.747390105E-2,1.576109213E-2,-2.526114106E-2,4.051360897E-2
1.954051667E0,1.565306939E-2,8.275269668E-3,-1.433386445E-2,2.278065714E-2
1.963995667E0,-3.059336320E-3,7.690447604E-3,-2.286495209E-2,2.431683690E-2
1.973938667E0,-2.069969159E-2,7.494125054E-3,-2.031965911E-2,2.995876647E-2
1.983882667E0,-3.281434583E-2,-4.513219083E-3,-2.062079072E-2,3.901752746E-2
1.993826667E0,-4.423397628E-2,-7.915229648E-3,-2.780584931E-2,5.284373921E-2
2.003770667E0,-4.593976440E-2,-4.585167244E-3,-2.196857393E-2,5.112830872E-2
2.013713667E0,-2.639529990E-2,5.092175659E-3,-1.987410128E-2,3.343085418E-2
2.023657667E0,1.595951831E-3,4.913449574E-3,-3.140013278E-2,3.182227816E-2
2.033601667E0,3.153165858E-2,8.680838028E-3,-1.568281710E-2,3.627055547E-2
2.043545667E0,3.258299709E-2,1.464915271E-2,-2.421507418E-2,4.315807216E-2
2.053488667E0,3.171561747E-2,1.511829584E-2,-2.182005465E-2,4.135889318E-2
2.063432667E0,9.754955554E-3,5.238116223E-3,-2.346780002E-2,2.594869279E-2
2.073376667E0,-2.809815528E-3,-5.168746775E-3,-2.241939425E-2,2.317844355E-2
2.083320667E0,-2.763032321E-2,-4.374694889E-3,-2.825725436E-2,3.976235833E-2
2.093263667E0,-4.770261769E-2,-2.088689385E-4,-2.646215916E-2,5.455116157E-2
2.103207667E0,-3.984236101E-2,-4.622274223E-3,-2.960796118E-2,4.985389167E-2
2.113151667E0,-2.656216482E-2,-5.684877760E-3,-2.347130835E-2,3.589942549E-2
2.123094667E0,-7.983249212E-3,7.298766382E-3,-2.436944067E-2,2.666221854E-2
2.133038667E0,5.030761622E-3,1.028814396E-2,-2.002846777E-2,2.307149735E-2
2.142982667E0,2.834223999E-2,1.128953675E-2,-2.062605321E-2,3.682621727E-2
2.152926667E0,2.764665887E-2,6.050680485E-3,-2.975823462E-2,4.106703068E-2
2.162869667E0,2.324271876E-2,4.332127845E-3,-2.062839210E-2,3.137709145E-2
2.172813667E0,1.874533284E-2,-2.132288829E-3,-3.664508522E-2,4.121645824E-2
2.182757667E0,-5.302054156E-3,9.649550356E-4,-3.903952003E-2,3.940973281E-2
2.192701667E0,-3.376145773E-2,-8.662707091E-3,-2.242290258E-2,4.144472321E-2
2.202644667E0,-5.009982993E-2,-7.808115967E-3,-2.511729956E-2,5.658478922E-2
2.212588667E0,-3.704278724E-2,2.948981544E-3,-2.167387426E-2,4.301884941E-2
2.222532667E0,-2.157544917E-2,-2.815105431E-3,-2.272111058E-2,3.145907964E-2
2.232475667E0,-5.814060112E-3,1.108992971E-3,-1.882861912E-2,1.973702253E-2
2.242419667E0,1.516401376E-2,3.223702465E-3,-2.376834691E-2,2.837734810E-2
2.252363667E0,2.024020093E-2,4.988677658E-3,-2.496585667E-2,3.252455439E-2
2.262307667E0,2.232529063E-2,8.044261253E-3,-3.469503880E-2,4.203420581E-2
2.272250667E0,7.498213537E-3,1.442148132E-2,-1.568340182E-2,2.258697462E-2
2.282194667E0,-1.125716921E-2,2.457189595E-3,-2.092192233E-2,2.388490053E-2
2.292138667E0,-1.878894942E-2,-1.390429053E-3,-2.690830171E-2,3.284835786E-2
2.302082667E0,-3.092648090E-2,-9.250489308E-3,-2.780467987E-2,4.260421336E-2
2.312025667E0,-3.351169026E-2,-3.333068239E-3,-2.855195403E-2,4.415152100E-2
2.321969667E0,-3.079530227E-2,6.075069769E-3,-2.825257659E-2,4.223109279E-2
2.331913667E0,-1.264763709E-2,-2.688515496E-3,-2.091899872E-2,2.459258724E-2
2.341856667E0,5.027646152E-3,8.493946397E-3,-1.687740326E-2,1.955175419E-2
2.351800667E0,1.288466860E-2,5.478075903E-3,-3.873254120E-2,4.118535842E-2
2.361744667E0,2.477042262E-2,1.378765000E-2,-2.032199800E-2,3.488060682E-2
2.371688667E0,2.075580658E-2,1.582143723E-2,-2.301756442E-2,3.479841454E-2
2.381631667E0,2.193774814E-3,8.488026091E-3,-2.406538546E-2,2.561253623E-2
2.391575667E0,-3.790886952E-3,4.768833769E-3,-3.678892672E-2,3.728991457E-2
2.401519667E0,-1.966782248E-2,1.117731817E-3,-3.813612521E-2,4.292361368E-2
2.411463667E0,-3.326974344E-2,1.599540103E-3,-2.765791476E-2,4.329427913E-2
2.421406667E0,-3.735679186E-2,-6.028499894E-3,-2.107044160E-2,4.331092493E-2
2.431350667E0,-2.387874965E-2,1.578382775E-4,-2.286670625E-2,3.306215136E-2
2.441294667E0,-6.379504139E-3,-6.800403167E-4,-2.660892427E-2,2.737143362E-2
2.451237667E0,8.511682190E-3,2.739329170E-3,-3.424246430E-2,3.539066289E-2
2.461181667E0,1.101375145E-2,9.946186915E-3,-2.541141450E-2,2.942735704E-2
2.471125667E0,1.561098771E-2,1.006391010E-2,-2.331460297E-2,2.980865538E-2
2.481069667E0,1.617539020E-2,3.848479742E-3,-2.436125457E-2,2.949448709E-2
2.491012667E0,-1.981657930E-4,1.150163307E-3,-3.858168304E-2,3.859933175E-2
2.500956667E0,-1.635648943E-2,-7.170650689E-4,-2.391218841E-2,2.898002215E-2
2.510900667E0,-3.607281639E-2,-2.433387316E-3,-2.795319915E-2,4.570066519E-2
2.520844667E0,-3.100676134E-2,-2.422339276E-3,-3.124693573E-2,4.408693649E-2
2.530787667E0,-1.392325287E-2,-3.570371547E-3,-2.885133147E-2,3.223358266E-2
2.540731667E0,-7.756943693E-3,-1.179100173E-3,-1.463090301E-2,1.660192084E-2
2.550675667E0,2.201147787E-3,9.100110799E-3,-2.810347259E-2,2.962198913E-2
2.560618667E0,9.021988800E-3,1.251505833E-2,-3.603639007E-2,3.920005581E-2
2.570562667E0,2.384496370E-2,1.015306415E-2,-2.900102019E-2,3.889378071E-2
2.580506667E0,1.562671124E-2,4.256316181E-3,-1.941918790E-2,2.528666033E-2
2.590450667E0,1.314433979E-2,6.857751561E-3,-2.091432095E-2,2.563613164E-2
2.600393667E0,-1.198406034E-2,-4.867601465E-4,-3.019326746E-2,3.248827539E-2
2.610337667E0,-2.353779302E-2,3.443324799E-4,-2.959334314E-2,3.781418019E-2
2.620281667E0,-1.726074306E-2,-5.888872496E-3,-2.989155114E-2,3.501595208E-2
2.630225667E0,-1.580403719E-2,-9.666132694E-3,-2.584878623E-2,3.180190973E-2
2.640168667E0,-1.571623759E-2,-4.223676841E-3,-3.048855186E-2,3.455996766E-2
2.650112667E0,-5.186845735E-4,-9.047606913E-4,-1.746446371E-2,1.749557425E-2
2.660056667E0,8.084561359E-3,-1.168228006E-3,-2.434956014E-2,2.568318454E-2
2.669999667E0,1.629537689E-2,9.058380865E-3,-2.569734335E-2,3.174818148E-2
2.679943667E0,2.478199828E-2,1.396060424E-2,-2.524710774E-2,3.803238566E-2
2.689887667E0,1.876808217E-2,7.421183323E-3,-1.821173787E-2,2.718422827E-2
2.699831667E0,-1.934405118E-3,-5.770699354E-4,-3.033710897E-2,3.040419566E-2
2.709774667E0,-6.915300954E-3,1.669615328E-3,-1.911220908E-2,2.039327190E-2
2.719718667E0,-1.825939268E-2,4.350865202E-3,-2.480038047E-2,3.110296321E-2
2.729662667E0,-2.780026705E-2,3.992766640E-3,-3.033827841E-2,4.134257092E-2
2.739606667E0,-2.407732657E-2,-3.614723592E-3,-3.722395957E-2,4.447928784E-2
2.749549667E0,-1.464000273E-2,-6.478680682E-3,-3.198485434E-2,3.576777727E-2
2.759493667E0,-4.090383165E-3,-2.379709419E-3,-3.108613729E-2,3.144427107E-2
2.769437667E0,9.705784125E-3,5.064156989E-3,-3.422960043E-2,3.593763316E-2
2.779380667E0,2.310912816E-2,1.166350045E-2,-2.809119344E-2,3.819926957E-2
2.789324667E0,9.129111618E-3,1.389807786E-2,-1.641430378E-2,2.336507256E-2
2.799268667E0,9.360588267E-3,1.088608115E-2,-3.497687459E-2,3.780884991E-2
2.809212667E0,-2.954415344E-3,2.227690949E-3,-3.093410969E-2,3.115461955E-2
2.819155667E0,-5.401831409E-3,1.067368104E-3,-2.419694781E-2,2.481554635E-2
2.829099667E0,-1.691932962E-2,-3.252643899E-3,-2.419694781E-2,2.970413592E-2
2.839043667E0,-2.397007585E-2,-4.709580461E-3,-2.015418291E-2,3.166916123E-2
2.848987667E0,-2.238974704E-2,-4.831901472E-3,-3.018449664E-2,3.789131671E-2
2.858930667E0,-6.752455998E-3,8.187677921E-4,-2.180251300E-2,2.283890575E-2
2.868875375E0,1.900345087E-5,5.359503049E-3,-2.554590046E-2,2.610206246E-2
2.878819375E0,6.424774379E-3,4.306752984E-3,-2.973718464E-2,3.072663336E-2
2.888762375E0,1.065732711E-2,6.331664321E-3,-3.093410969E-2,3.332548179E-2
2.898706375E0,8.743569972E-3,2.823828289E-3,-2.853909016E-2,2.998172258E-2
2.908650375E0,4.297822276E-3,4.380797921E-3,-2.779064655E-2,2.846019506E-2
2.918594375E0,-1.378811823E-2,1.181336276E-3,-2.210189044E-2,2.607683495E-2
2.928537375E0,-1.747842394E-2,-1.429335878E-3,-2.254978716E-2,2.856625992E-2
2.938481375E0,-1.877876247E-2,-1.920796637E-3,-2.898640215E-2,3.459108107E-2
2.948425375E0,-9.932217551E-3,-1.075186471E-3,-3.182990313E-2,3.336087086E-2
2.958369375E0,-6.929453043E-3,3.132949567E-3,-3.182990313E-2,3.272576088E-2
2.968312375E0,-6.076682322E-3,4.040394039E-3,-2.284916461E-2,2.398614548E-2
2.978256375E0,8.228010004E-3,1.936558995E-3,-1.731009722E-2,1.926369318E-2
2.988200375E0,1.748896720E-2,8.620805852E-3,-2.494305253E-2,3.165972421E-2
2.998143375E0,1.237977980E-2,5.328380330E-3,-2.479160964E-2,2.821833612E-2
3.008087375E0,7.565931603E-4,-2.160272095E-5,-1.940223098E-2,1.941698913E-2
3.018031375E0,1.742835715E-4,5.644573085E-4,-3.137732863E-2,3.138288927E-2
3.027975375E0,-7.279180493E-3,-3.447534337E-3,-1.745627761E-2,1.922481702E-2
3.037918375E0,-2.063799432E-2,-5.909623259E-3,-2.089794874E-2,2.995955137E-2
3.047862375E0,-1.326599842E-2,-5.800125010E-3,-2.823211133E-2,3.172822520E-2
3.057806375E0,-5.369233182E-3,-7.758704710E-3,-3.197549880E-2,3.333854656E-2
3.067750375E0,-1.097280267E-2,-2.942053964E-3,-2.344090283E-2,2.604868529E-2
3.077693375E0,-3.669274002E-3,5.089208654E-3,-3.301981151E-2,3.361058715E-2
3.087637375E0,-2.805229118E-3,1.364576366E-2,-2.688315868E-2,3.027838168E-2
3.097581375E0,1.270834764E-2,8.582364977E-3,-2.463841259E-2,2.902086255E-2
3.107524375E0,1.343286334E-2,1.346447028E-3,-2.598561108E-2,2.928321567E-2
3.117468375E0,-3.831260148E-3,5.950341350E-4,-2.703401685E-2,2.731063322E-2
3.127412375E0,-1.191127164E-2,2.226713367E-3,-2.359117627E-2,2.652131676E-2
3.137356375E0,-1.769678090E-2,-4.387656979E-3,-2.448813915E-2,3.053025626E-2
3.147299375E0,-1.686891566E-2,-5.675638702E-3,-2.748308301E-2,3.274283192E-2
3.157243375E0,-2.056939004E-2,-2.775291831E-3,-3.466931105E-2,4.040746441E-2
3.167187375E0,-9.303450007E-3,1.482477018E-3,-2.598853469E-2,2.764336910E-2
3.177131375E0,5.264494931E-3,3.390199647E-3,-2.793565750E-2,2.862881975E-2
3.187074375E0,1.200192176E-2,4.252928908E-3,-3.392320633E-2,3.623420287E-2
3.197018375E0,1.475671864E-2,6.123683886E-3,-2.449223220E-2,2.924260056E-2
3.206962375E0,1.103456388E-2,2.487807535E-3,-1.670841873E-2,2.017726549E-2
3.216905375E0,3.119754503E-3,6.783718045E-4,-2.748776078E-2,2.767255047E-2
3.226849375E0,4.738501338E-3,-3.427290637E-3,-3.048153520E-2,3.103745647E-2
3.236793375E0,4.412244977E-3,-8.642326347E-3,-2.479394853E-2,2.662513088E-2
3.246737375E0,-2.298476519E-2,3.765610306E-3,-2.165223956E-2,3.180092341E-2
3.256680375E0,-2.741194798E-2,-2.705109254E-3,-3.332854450E-2,4.323799702E-2
3.266624375E0,-1.215431482E-2,1.456955977E-3,-2.764095783E-2,3.023032648E-2
3.276568375E0,-7.410779390E-3,-4.738254659E-4,-1.940807819E-2,2.078022283E-2
3.286511375E0,-5.439189635E-3,7.251892725E-3,-1.596523762E-2,1.835929040E-2
3.296455375E0,-3.492998723E-3,7.250862611E-3,-1.821056843E-2,1.990981796E-2
3.306399375E0,-2.077086316E-3,4.739924313E-3,-2.644286335E-2,2.694450207E-2
3.316343375E0,6.605773112E-3,6.296522784E-3,-3.452605426E-2,3.571177482E-2
3.326286375E0,5.572944693E-3,7.069089578E-3,-2.644227862E-2,2.793248716E-2
3.336230375E0,-5.285873814E-3,6.572964750E-3,-2.479511797E-2,2.619049833E-2
3.346174375E0,-1.416893642E-2,-1.411179816E-3,-2.838764727E-2,3.175860050E-2
3.356118375E0,-1.012249874E-2,-5.268297906E-3,-2.569208086E-2,2.811232758E-2
3.366061375E0,-3.313397840E-3,1.475090340E-3,-2.868527055E-2,2.891365150E-2
3.376005375E0,-2.184408305E-2,3.176300047E-3,-2.284741044E-2,3.176880562E-2
3.385949375E0,-8.131731944E-3,-9.477605671E-4,-2.194810867E-2,2.342525963E-2
3.395892375E0,-4.637664277E-3,2.166412814E-3,-3.227663040E-2,3.267999609E-2
3.405836375E0,3.337362288E-3,-1.957760862E-3,-2.628849685E-2,2.657171205E-2
3.415780375E0,1.749016405E-2,5.352742206E-3,-2.359468460E-2,2.985409233E-2
3.425724375E0,1.324597171E-2,3.103326339E-3,-2.149962723E-2,2.544249146E-2
3.435667375E0,8.919452392E-3,2.301074647E-3,-3.467223465E-2,3.587499730E-2
3.445611375E0,-1.801810367E-3,8.061300404E-3,-3.122822464E-2,3.230221507E-2
3.455555375E0,-1.568583207E-2,-1.171391441E-3,-2.074942946E-2,2.603759414E-2
3.465498375E0,-1.244525948E-2,3.675968607E-3,-2.688725173E-2,2.985500853E-2
3.475442375E0,4.700275166E-3,-5.142556502E-3,-4.649764359E-2,4.701669207E-2
3.485386375E0,-6.056080023E-3,-3.139920544E-3,-3.018098831E-2,3.094232153E-2
3.495330375E0,-9.857117375E-3,-6.171553396E-6,-1.865378737E-2,2.109802324E-2
3.505273375E0,-8.874191288E-3,8.015577919E-3,-2.479160964E-2,2.752498264E-2
3.515217375E0,5.771329757E-3,7.432950845E-3,-2.119908035E-2,2.319392190E-2
3.525161375E0,9.310676800E-3,5.493895363E-3,-2.838472366E-2,3.037374073E-2
3.535105375E0,2.000844106E-4,-2.421767117E-3,-2.344499588E-2,2.357059230E-2
3.545048375E0,-8.998874025E-3,3.869767261E-3,-2.434371293E-2,2.624064007E-2
3.554992375E0,-1.336607717E-2,2.522408890E-3,-2.359526932E-2,2.723511153E-2
3.564936375E0,-1.207469218E-2,-1.985897161E-3,-3.122997880E-2,3.354181800E-2
3.574879375E0,-1.164567101E-2,3.296977670E-3,-2.673990190E-2,2.935155990E-2
3.584823375E0,-2.078039230E-2,5.414304708E-4,-2.449457109E-2,3.212634221E-2
3.594767375E0,6.439063512E-4,3.007091676E-3,-2.719013751E-2,2.736349381E-2
3.604711375E0,3.868947281E-3,5.412121138E-3,-3.123231769E-2,3.193301546E-2
3.614654375E0,1.340233904E-2,2.252178448E-3,-1.431807697E-2,1.974087961E-2
3.624598375E0,6.041059988E-3,1.286010572E-3,-1.761181355E-2,1.866344570E-2
3.634542375E0,5.844511315E-3,5.645450167E-3,-2.255154133E-2,2.397084555E-2
3.644486375E0,2.777564479E-3,6.745971527E-3,-3.407640338E-2,3.484859055E-2
3.654429375E0,-9.588300772E-3,2.523477834E-3,-2.988453448E-2,3.148632803E-2
3.664373375E0,-1.243721042E-3,-1.880906521E-3,-2.853675127E-2,2.862570216E-2
3.674317375E0,-1.079790697E-2,-1.299912556E-3,-3.751807451E-2,3.906264818E-2
3.684260375E0,-1.804894773E-2,9.908675656E-3,-2.509449542E-2,3.246043850E-2
3.694204375E0,-8.170716427E-3,2.714734320E-3,-1.311881304E-2,1.569183370E-2
3.704148375E0,1.837633699E-3,-2.417538164E-3,-2.599087358E-2,2.616766894E-2
3.714092375E0,2.674178397E-3,-1.648285553E-3,-2.359468460E-2,2.380288253E-2
3.724035375E0,4.949759413E-3,5.197727038E-3,-1.640904129E-2,1.791014016E-2
3.733979375E0,1.330095381E-3,8.361609746E-3,-1.970219314E-2,2.144439521E-2
3.743923375E0,8.333269022E-3,8.308509719E-3,-2.015184402E-2,2.333605631E-2
3.753866375E0,4.300234253E-3,3.922241454E-3,-1.925546587E-2,2.011588821E-2
3.763810375E0,-1.276414286E-2,4.901149864E-3,-2.389406204E-2,2.752945357E-2
3.773754375E0,-1.391930600E-2,4.414620409E-3,-1.775799394E-2,2.299091780E-2
3.783698375E0,-1.583790536E-2,-1.806296278E-3,-1.820764482E-2,2.419959261E-2
3.793641375E0,-4.081329117E-3,-4.630880593E-3,-2.599204302E-2,2.671495092E-2
3.803585375E0,-3.620586796E-3,-3.600525821E-3,-1.910636187E-2,1.977689305E-2
3.813529375E0,1.113483449E-3,6.475318533E-3,-2.479453325E-2,2.565031140E-2
3.823473375E0,7.979539884E-3,5.496222829E-3,-2.494480669E-2,2.676051014E-2
3.833416375E0,4.625248080E-3,1.079944414E-2,-3.033418536E-2,3.252973586E-2
3.843360375E0,5.007610302E-3,6.850568166E-3,-2.240009844E-2,2.395351447E-2
3.853304375E0,-3.935605539E-3,3.563962451E-3,-2.434546709E-2,2.491771633E-2
3.863248375E0,-7.360822242E-3,5.244600694E-3,-2.554239213E-2,2.709430450E-2
3.873190875E0,-7.547860052E-3,-1.489614733E-3,-1.775916338E-2,1.935399254E-2
3.883134875E0,-1.058860405E-2,-4.645749880E-3,-2.329823077E-2,2.600978825E-2
3.893078875E0,-7.181257904E-3,5.024980644E-3,-1.805912554E-2,2.007368703E-2
3.903021875E0,-9.096166212E-3,6.229543614E-3,-1.940749347E-2,2.232035520E-2
3.912965875E0,-3.153101904E-3,3.005274700E-3,-2.509449542E-2,2.546973553E-2
3.922909875E0,1.100336351E-3,5.752595826E-3,-4.245780230E-2,4.285986555E-2
3.932853875E0,9.472215269E-4,4.941833694E-4,-2.898581743E-2,2.900550048E-2
3.942796875E0,1.882876530E-3,5.549439343E-3,-2.509332597E-2,2.576851780E-2
3.952740875E0,5.094304411E-3,9.225894457E-3,-2.823737383E-2,3.013997921E-2
3.962684875E0,-2.524992172E-4,-4.219423905E-3,-1.551383257E-2,1.607937483E-2
3.972627875E0,-6.308040200E-3,-7.823613372E-3,-2.090145707E-2,2.319205047E-2
3.982571875E0,-1.329025523E-2,-1.088863474E-3,-2.524242997E-2,2.854814843E-2
3.992515875E0,-1.408582374E-2,-3.189299824E-3,-3.033184648E-2,3.359468670E-2
4.002459875E0,-5.574196363E-3,-7.600128679E-3,-1.626169145E-2,1.879564391E-2
4.012402875E0,-7.163551804E-3,1.207319840E-3,-2.135052323E-2,2.255258163E-2
4.022346875E0,-2.554694200E-3,4.770137973E-3,-2.254686356E-2,2.318710277E-2
4.032290875E0,-3.306947630E-3,1.894219215E-3,-2.958223343E-2,2.982670789E-2
4.042233875E0,9.773419965E-3,8.036986494E-3,-2.314503372E-2,2.637812494E-2
4.052177875E0,5.372522241E-3,7.578057724E-3,-2.314386427E-2,2.493851254E-2
4.062121875E0,1.540302783E-3,8.888891554E-3,-2.673580885E-2,2.821681060E-2
4.072065875E0,-2.974067470E-3,3.682028241E-3,-3.032716870E-2,3.069429215E-2
4.082008875E0,8.978947811E-4,6.831208400E-3,-2.942728221E-2,3.022311304E-2
4.091952875E0,-1.095138724E-2,6.055454188E-4,-3.571479321E-2,3.736102276E-2
4.101896875E0,-1.576585670E-2,-3.559937922E-3,-2.179374218E-2,2.713305353E-2
4.111840875E0,-1.786004612E-2,6.305445498E-3,-2.778187573E-2,3.362398711E-2
4.121783875E0,-9.633351741E-3,5.919316846E-3,-2.568623364E-2,2.806461075E-2
4.131727875E0,4.752050433E-3,1.194370770E-2,-1.745452344E-2,2.167705067E-2
4.141671875E0,1.126931132E-2,3.420125514E-3,-4.409853101E-2,4.564400369E-2
4.151614875E0,1.440909253E-2,1.534999404E-2,-4.429265857E-3,2.151424321E-2
4.161558875E0,8.042278681E-3,1.416838140E-2,-3.975697339E-2,4.296554679E-2
4.171502875E0,-3.216425423E-3,1.116496821E-2,-1.026829541E-2,1.550612132E-2
4.181446875E0,-9.480620641E-4,8.158830134E-3,-9.221643806E-3,1.234925282E-2
4.191389875E0,-2.043209011E-2,3.704651941E-3,-4.619534254E-2,5.064784719E-2
4.201333875E0,-1.614300211E-2,-3.595640198E-3,-7.875030041E-3,1.831778490E-2
4.211277875E0,-1.494993257E-2,2.098038078E-3,-4.320039868E-2,4.576217537E-2
4.221220875E0,-1.092588790E-2,-1.639113876E-3,-8.173238039E-3,1.374276321E-2
4.231164875E0,3.969464572E-3,4.765476189E-3,-4.305304885E-2,4.349748760E-2
4.241108875E0,1.701028123E-2,1.199267128E-2,-2.134935379E-2,2.981557880E-2
4.251052875E0,1.711326532E-2,1.372526980E-2,-3.048095047E-2,3.755443014E-2
4.260995875E0,9.665045477E-3,1.205348918E-2,-3.616912186E-2,3.933071423E-2
4.270939875E0,7.462646021E-3,-4.935806037E-3,-1.566118240E-2,1.803679298E-2
4.280883875E0,-1.838461446E-2,-1.221975338E-2,-3.946285844E-2,4.521762508E-2
4.290827875E0,-1.933003614E-2,1.255689561E-2,-1.266857743E-2,2.630244815E-2
4.300770875E0,1.317215061E-2,3.037152760E-2,-2.599087358E-2,4.208872473E-2
4.310714875E0,4.615125088E-2,4.553172011E-3,-1.506301224E-2,4.876026734E-2
4.320658875E0,1.712523384E-2,-3.681814224E-2,-4.769632280E-2,6.264015039E-2
4.330601875E0,-7.098919971E-2,-3.134524204E-2,-4.485223711E-2,8.963098709E-2
4.340545875E0,-6.322621694E-2,5.568084195E-2,1.981504440E-2,8.654794425E-2
4.350489875E0,-4.040166546E-2,2.649968184E-2,-1.521153152E-2,5.065489513E-2
4.360433875E0,7.079077810E-3,-4.712751662E-2,-3.377410233E-2,5.841066815E-2
4.370376875E0,1.628695325E-2,-2.969864327E-2,-8.900807083E-2,9.523502995E-2
4.380320875E0,1.255691389E-2,4.334641005E-2,2.901388407E-3,4.522173599E-2
4.390264875E0,6.649206961E-3,5.352572272E-2,1.502559006E-2,5.599092161E-2
4.400207875E0,2.019981860E-2,-1.561950957E-2,-5.128709793E-2,5.729195550E-2
4.410151875E0,3.423813371E-2,-3.483315414E-2,-4.470079422E-2,6.620996474E-2
4.420095875E0,-8.036531964E-3,6.544142088E-3,-3.018040359E-2,3.191031812E-2
4.430039875E0,-2.023290105E-2,4.553414122E-2,1.472562790E-2,5.195740966E-2
4.439982875E0,-2.347011150E-2,-3.585782158E-3,-5.398091018E-2,5.897154086E-2
4.449926875E0,-1.446201897E-2,-3.644213430E-2,-5.757343948E-2,6.965543825E-2
4.459870875E0,-1.795397616E-2,2.402132121E-3,-1.401460648E-2,2.290250408E-2
4.469813875E0,-2.412700963E-2,2.170892558E-2,-1.566118240E-2,3.603696266E-2
4.479757875E0,-2.016257001E-3,-9.204545268E-4,7.387372255E-3,7.712703655E-3
4.489701875E0,4.270305645E-2,-6.102078881E-3,-5.533571005E-2,7.016286199E-2
4.499645875E0,2.212485904E-2,2.114812278E-3,-2.704863489E-2,3.500871988E-2
4.509588875E0,-3.094807905E-2,1.733768191E-2,-1.717327237E-2,3.941192833E-2
4.519532875E0,-4.012771427E-2,2.249299380E-2,-1.313810885E-2,4.784117606E-2
4.529476875E0,-1.558866779E-2,-1.121228955E-2,-2.272578835E-2,2.975203282E-2
4.539420875E0,2.539692437E-3,-1.291725540E-2,-1.344859600E-4,1.316524255E-2
4.549363875E0,-1.308700053E-2,-2.919519343E-4,-1.124068737E-2,1.725421315E-2
4.559307875E0,-2.365432620E-1,-6.507790223E-2,9.615740293E-1,9.923771773E-1
4.569251875E0,-1.454143330E0,-1.275914934E0,9.229198408E-1,2.143425477E0
4.579194875E0,-5.786387433E-1,-1.200562305E0,1.139505386E-2,1.332779985E0
4.589138875E0,7.307788727E-1,-1.305145677E-1,3.746270138E-1,8.315150104E-1
4.599082875E0,5.017352860E-1,3.253722619E-1,1.246980718E0,1.382955646E0
4.609026875E0,-5.170096385E-1,2.578917753E-1,1.388231322E0,1.503659981E0
4.618969875E0,-6.771742308E-1,-1.937287247E-1,1.064327735E-1,7.123367834E-1
4.628913875E0,-3.638892601E-1,7.738627290E-2,-8.993959075E-1,9.733021254E-1
4.638857875E0,-1.694689376E-1,5.740063964E-1,-1.928780097E-1,6.288123651E-1
4.648800875E0,-4.003292542E-1,-2.072971704E-1,7.481448108E-1,8.734736897E-1
4.658744875E0,-9.851735379E-1,-9.221700085E-1,5.378929693E-1,1.452684849E0
4.668688875E0,-1.138733627E0,-5.981267457E-1,6.975260496E-2,1.288151894E0
4.678632875E0,-1.138285584E0,-2.612625124E-1,2.579920185E-1,1.196040155E0
4.688575875E0,-1.458471146E0,-3.681557541E-1,1.630192029E0,2.218153015E0
4.698519875E0,-1.227215083E0,-1.020519372E0,2.596672457E0,3.047986959E0
4.708463875E0,-8.883049820E-1,-1.064509437E0,-4.142296207E-1,1.447014948E0
4.718406875E0,-8.614883354E-1,-1.675288680E-1,2.298424698E0,2.460281319E0
4.728350875E0,-1.212774653E-1,6.456510141E-1,1.734155524E0,1.854418733E0
4.738294875E0,4.661926568E-1,1.054416704E0,2.231258317E0,2.511502310E0
4.748238875E0,4.669023626E-1,1.263233054E0,2.625917307E0,2.951134912E0
4.758181875E0,6.148614769E-1,1.343063920E0,2.732490998E0,3.106184538E0
4.768125875E0,2.073843670E-1,9.928332442E-1,2.756620118E0,2.937291372E0
4.778069875E0,-8.757452358E-1,-3.602674216E-1,2.182982535E0,2.379524129E0
4.788012875E0,-1.501415145E0,-1.005158590E0,1.245493771E0,2.194503580E0
4.797956875E0,-1.489076643E0,-4.188787419E-1,9.470442832E-1,1.813753435E0
4.807900875E0,-1.148383068E0,1.252825595E0,1.613861926E0,2.343694937E0
4.817844875E0,-2.254510939E-1,1.885140572E0,2.419345703E0,3.075356370E0
4.827787875E0,5.352216688E-1,1.223373755E0,2.822917603E0,3.122814335E0
4.837731875E0,3.726290202E-1,3.282422215E-1,2.759090567E0,2.803422212E0
4.847675875E0,3.604495624E-1,1.622619885E-1,2.073771164E0,2.111108638E0
4.857619875E0,2.874008819E-1,7.012156427E-1,1.446271369E0,1.632790102E0
4.867562875E0,-1.051162729E-1,8.310922426E-1,1.225556520E0,1.484504136E0
4.877507167E0,-3.614701939E-1,4.500596040E-1,7.911142445E-1,9.793243059E-1
4.887451167E0,-8.674993461E-1,-5.385706615E-1,6.558938742E-1,1.213593938E0
4.897394167E0,-9.723150721E-1,-8.871348810E-1,8.077320313E-1,1.544291401E0
4.907338167E0,-5.745170776E-1,-2.761341745E-1,9.648303437E-1,1.156381229E0
4.917282167E0,-1.608764908E-1,4.975290549E-1,1.279640926E0,1.382352092E0
4.927226167E0,1.324040589E-1,3.411113584E-1,1.392020903E0,1.439308857E0
4.937169167E0,1.932794210E-1,-2.464560467E-1,1.547030590E0,1.578417297E0
4.947113167E0,5.250495601E-1,-5.693205839E-1,1.336763545E0,1.544907681E0
4.957057167E0,7.824901861E-1,-5.789451009E-1,1.199653355E0,1.544874264E0
4.967000167E0,9.378360879E-1,-2.296792156E-1,1.174054245E0,1.520096194E0
4.976944167E0,1.275535011E0,9.978858232E-2,1.281162372E0,1.810614357E0
4.986888167E0,1.215603609E0,2.935623854E-1,1.295906126E0,1.800900801E0
4.996832167E0,7.876073769E-1,-1.991567498E-1,1.410473546E0,1.627705260E0
5.006775167E0,7.738678819E-1,-6.964981091E-1,1.332521975E0,1.691033982E0
5.016719167E0,6.794638543E-1,-3.578057438E-1,1.214264377E0,1.436709455E0
5.026663167E0,7.288988467E-1,-1.310682625E-1,9.517606473E-1,1.205952216E0
5.036606167E0,6.842490694E-1,-6.027830297E-1,7.365550447E-1,1.172201989E0
5.046550167E0,6.376167937E-1,-6.019772834E-1,6.658113366E-1,1.101016149E0
5.056494167E0,8.209786060E-1,-7.374461603E-1,7.628464651E-1,1.341554114E0
5.066438167E0,1.124255409E0,-7.730340689E-1,8.373999265E-1,1.600865558E0
5.076381167E0,1.660403862E0,-4.427979469E-1,9.849409649E-1,1.980686677E0
5.086325167E0,1.963904614E0,-2.351112789E-1,1.261758971E0,2.346110472E0
5.096269167E0,1.865705304E0,-2.199745917E-1,1.438905047E0,2.366367013E0
5.106212167E0,1.512145809E0,-7.636089420E-1,1.560148818E0,2.302986734E0
5.116156167E0,1.519059118E0,-1.276345435E0,1.574918592E0,2.533173276E0
5.126100167E0,1.871515829E0,-8.541548306E-1,1.528187645E0,2.562715249E0
5.136044167E0,1.830692762E0,-6.289569211E-1,1.570281458E0,2.492550231E0
5.145987167E0,1.469732445E0,-1.241242261E0,1.478847962E0,2.426476273E0
5.155931167E0,9.480209143E-1,-1.864817989E0,1.058415323E0,2.344468550E0
5.165875167E0,5.221816470E-1,-2.341446172E0,6.801852545E-1,2.493530796E0
5.175818167E0,7.788507329E-1,-2.107777986E0,4.743547851E-1,2.296595081E0
5.185762167E0,1.017360560E0,-1.750915398E0,3.823944551E-1,2.060813616E0
5.195706167E0,1.109775365E0,-1.776144964E0,7.091226862E-1,2.211141623E0
5.205650167E0,1.351439033E0,-1.939881036E0,9.624714307E-1,2.552621623E0
5.215593167E0,1.438647477E0,-2.173248675E0,7.939114062E-1,2.724520451E0
5.225537167E0,1.174771990E0,-2.569130318E0,5.078433971E-1,2.870265621E0
5.235481167E0,1.202428005E0,-2.717373607E0,2.161147716E-1,2.979372085E0
5.245424167E0,1.216822534E0,-2.784717159E0,2.526874244E-1,3.049452028E0
5.255368167E0,8.698885185E-1,-3.303609016E0,2.010207691E-1,3.422126227E0
5.265312167E0,4.761146508E-1,-3.616738524E0,2.641900305E-1,3.657496286E0
5.275256167E0,2.893266624E-1,-3.919306791E0,2.845723279E-1,3.940261038E0
5.285199167E0,4.753610909E-1,-3.830941329E0,-2.630656475E-1,3.869274243E0
5.295143167E0,3.229899600E-1,-3.629757934E0,-4.162059796E-1,3.667791242E0
5.305087167E0,8.089564383E-2,-3.647462718E0,-7.109863400E-2,3.649052398E0
5.315030167E0,1.309633049E-1,-3.952903723E0,1.549126232E-1,3.958105247E0
5.324974167E0,3.915617198E-2,-4.308905600E0,1.548132205E-1,4.311863612E0
5.334918167E0,1.589182582E-1,-4.017715430E0,-1.810228530E-1,4.024930007E0
5.344862167E0,8.413850963E-2,-3.706249455E0,-5.705946922E-2,3.707643469E0
5.354805167E0,-1.564451784E-1,-4.154877076E0,1.027589679E-1,4.159091009E0
5.364749167E0,-4.313046598E-1,-4.474263105E0,-1.901996925E-2,4.495043470E0
5.374693167E0,-6.160626411E-1,-4.119628891E0,1.638141319E-2,4.165470409E0
5.384636167E0,-6.210520703E-1,-3.799090961E0,1.480959392E-1,3.852366832E0
5.394580167E0,-8.477728871E-1,-4.016694506E0,1.250508928E-1,4.107090375E0
5.404524167E0,-1.016642522E0,-4.221667482E0,1.261337972E-1,4.344185548E0
5.414468167E0,-8.260108660E-1,-3.991326946E0,3.364886959E-1,4.089768867E0
5.424411167E0,-8.892873873E-1,-3.884671394E0,2.912429412E-1,3.995788576E0
5.434355167E0,-1.093081418E0,-3.681504039E0,2.823503494E-2,3.840455206E0
5.444299167E0,-1.292031907E0,-3.293938891E0,-1.024781553E-1,3.539757285E0
5.454242167E0,-1.532164044E0,-3.274168285E0,-8.440338850E-2,3.615913239E0
5.464186167E0,-1.802217406E0,-3.399063057E0,-1.903756937E-1,3.851994308E0
5.474130167E0,-1.955969211E0,-3.183773839E0,-3.865768223E-1,3.756550686E0
5.484074167E0,-1.659432932E0,-2.746746510E0,-3.292051117E-1,3.225943280E0
5.494017167E0,-1.678923748E0,-2.381445220E0,-3.479876109E-1,2.934478091E0
5.503961167E0,-2.279886247E0,-2.373049203E0,-2.551232283E-1,3.300656250E0
5.513905167E0,-2.640307889E0,-2.550920919E0,-1.269652712E-1,3.673491998E0
5.523849167E0,-2.614478399E0,-2.368099535E0,-3.820592634E-1,3.548149093E0
5.533792167E0,-2.774548851E0,-1.864024522E0,-2.810030778E-1,3.354351126E0
5.543736167E0,-3.001743584E0,-1.714986597E0,-2.299744269E-1,3.464755664E0
5.553680167E0,-3.252358755E0,-1.749952362E0,-3.949816100E-1,3.714321097E0
5.563623167E0,-3.546697651E0,-1.465742013E0,-4.499969658E-1,3.863930790E0
5.573567167E0,-3.359324210E0,-8.847433698E-1,-4.990996170E-1,3.509548462E0
5.583511167E0,-2.970484954E0,-3.146796048E-1,-2.374647466E-1,2.996530264E0
5.593455167E0,-2.800718064E0,1.224278319E-1,-1.967704646E-1,2.810289819E0
5.603398167E0,-2.889470319E0,1.610638940E-1,-9.831391454E-2,2.895625309E0
5.613342167E0,-3.179970810E0,5.593446493E-2,-7.559163451E-2,3.181360890E0
5.623286167E0,-3.384949925E0,4.762346649E-1,-6.599682140E-1,3.481414008E0
5.633229167E0,-3.761457111E0,1.097827018E0,-8.329171586E-1,4.005937438E0
5.643173167E0,-4.311423996E0,8.585805881E-1,-6.799516582E-1,4.448356074E0
5.653117167E0,-4.183461190E0,7.488920850E-1,-8.636208880E-1,4.336822330E0
5.663061167E0,-3.852866341E0,1.410112773E0,-1.234541937E0,4.284517577E0
5.673004167E0,-3.810388074E0,1.969978409E0,-1.276127919E0,4.475307215E0
5.682948167E0,-3.698274438E0,2.163665673E0,-1.218534014E0,4.454605269E0
5.692892167E0,-3.445991641E0,2.348318989E0,-1.220368870E0,4.344969579E0
5.702835167E0,-3.177776935E0,2.762858512E0,-9.172351778E-1,4.309637314E0
5.712779167E0,-3.080350043E0,2.725962582E0,-6.057336078E-1,4.157684643E0
5.722723167E0,-3.186147224E0,2.577079607E0,-5.261149228E-1,4.131545758E0
5.732667167E0,-3.102576187E0,2.895997274E0,-8.201000619E-1,4.322654661E0
5.742610167E0,-3.072515944E0,3.382849313E0,-7.062775773E-1,4.624159568E0
5.752554167E0,-3.045252716E0,3.420624080E0,-1.301701301E-1,4.581612976E0
5.762498167E0,-2.778425262E0,3.281979581E0,1.839498230E-1,4.304053257E0
5.772441167E0,-2.548669741E0,3.656826450E0,2.533751301E-1,4.464560010E0
5.782385167E0,-1.718533810E0,4.448044190E0,-1.075946152E-2,4.768497807E0
5.792329167E0,-9.683437163E-1,4.963602549E0,8.501120657E-4,5.057177132E0
5.802273167E0,-7.139008847E-1,4.721748846E0,1.501424646E-1,4.777772431E0
5.812216167E0,-6.308464488E-1,4.461734861E0,1.424504524E-1,4.508363044E0
5.822160167E0,-7.399544697E-1,4.619734229E0,1.581748579E-1,4.681292156E0
5.832104167E0,-6.322328968E-1,4.865178707E0,-5.130120434E-2,4.906354462E0
5.842047167E0,-1.889188600E-1,4.861701368E0,1.387029719E-1,4.867347228E0
5.851991167E0,2.201054232E-1,4.821442119E0,2.148384706E-1,4.831242705E0
5.861935167E0,4.738049275E-1,4.922710631E0,4.580625785E-1,4.966627870E0
5.871879000E0,8.710888787E-1,4.791334221E0,9.555461347E-1,4.962735925E0
5.881822000E0,1.432447090E0,4.566911652E0,1.058639563E0,4.901969444E0
5.891766000E0,1.904045936E0,4.426009542E0,1.029141530E0,4.926873622E0
5.901710000E0,2.344844281E0,4.376587706E0,1.020597505E0,5.068967737E0
5.911653000E0,2.571754548E0,4.194595458E0,1.170184557E0,5.057458295E0
5.921597000E0,2.437365359E0,3.818783798E0,1.391439105E0,4.739194275E0
5.931541000E0,2.631739379E0,3.281395444E0,1.231722994E0,4.383006930E0
5.941485000E0,2.868250189E0,2.923295000E0,1.238173642E0,4.278502866E0
5.951428000E0,3.044784939E0,2.909768052E0,1.137585161E0,4.362518245E0
5.961372000E0,3.091279366E0,2.965335311E0,1.295233111E0,4.475136919E0
5.971316000E0,3.120930012E0,2.925566059E0,1.517244873E0,4.538851497E0
5.981259000E0,3.271477396E0,2.817852745E0,1.374549422E0,4.531251986E0
5.991203000E0,3.291015575E0,2.452025206E0,1.276165341E0,4.297884259E0
6.001147000E0,3.491974729E0,2.195915991E0,1.259694904E0,4.313092371E0
6.011091000E0,3.727768963E0,1.968089758E0,1.328763531E0,4.419870050E0
6.021034000E0,3.543098690E0,1.718332373E0,1.356714245E0,4.164959545E0
6.030978000E0,3.205008880E0,1.511777142E0,1.465293824E0,3.834662702E0
6.040922000E0,2.941667244E0,1.199709488E0,1.514288521E0,3.519343512E0
6.050865000E0,2.760249777E0,9.798442394E-1,1.554863520E0,3.316123359E0
6.060809000E0,2.581405962E0,9.106664157E-1,1.844002486E0,3.300502270E0
6.070753000E0,2.631130099E0,6.154773349E-1,2.037337310E0,3.384139664E0
6.080697000E0,2.793715439E0,4.019949067E-1,2.291095506E0,3.635321784E0
6.090640000E0,2.968602735E0,3.780838877E-1,2.557631768E0,3.936626714E0
6.100584000E0,2.965061369E0,1.745668691E-1,2.503935910E0,3.884811135E0
6.110528000E0,2.857210646E0,-1.275628567E-1,2.443706080E0,3.761864480E0
6.120471000E0,2.839780388E0,-2.654431254E-1,2.335549840E0,3.686408247E0
6.130415000E0,2.773858294E0,-2.710558677E-1,2.248130457E0,3.580761326E0
6.140359000E0,2.724192629E0,-4.132607371E-1,2.468542713E0,3.699420637E0
6.150303000E0,2.742389165E0,-7.535376978E-1,2.570736548E0,3.833693231E0
6.160246000E0,2.387374297E0,-9.179052687E-1,2.411877054E0,3.515573501E0
6.170190000E0,1.878905101E0,-7.608888173E-1,2.505903790E0,3.223164590E0
6.180134000E0,1.880803108E0,-8.705562705E-1,2.794936922E0,3.479505848E0
6.190077000E0,1.731780385E0,-1.499812569E0,2.865252614E0,3.668538345E0
6.200021000E0,1.711775598E0,-1.775999368E0,2.765912513E0,3.706025025E0
6.209965000E0,1.860494266E0,-1.920314498E0,2.658701183E0,3.770641678E0
6.219909000E0,1.714795685E0,-2.270267431E0,2.391183173E0,3.716503117E0
6.229852000E0,1.277309057E0,-2.218527759E0,2.285612572E0,3.431822937E0
6.239796000E0,9.300490585E-1,-1.848433506E0,2.658312928E0,3.368727549E0
6.249740000E0,9.145597842E-1,-1.959518909E0,2.815599813E0,3.550174117E0
6.259683000E0,7.789567137E-1,-2.428571439E0,2.533753493E0,3.595085474E0
6.269627000E0,6.131758708E-1,-2.493105404E0,2.288754865E0,3.439470604E0
6.279571000E0,5.508202860E-1,-2.595082600E0,2.108321485E0,3.388639280E0
6.289514000E0,3.832136500E-1,-2.791212246E0,2.054478569E0,3.486918510E0
6.299458000E0,-4.162048101E-3,-3.281017714E0,2.057954154E0,3.873018185E0
6.309402000E0,-4.334228137E-1,-3.376137294E0,2.454961093E0,4.196783570E0
6.319346000E0,-8.372245100E-1,-2.961072106E0,2.783284591E0,4.149164496E0
6.329289000E0,-7.428033793E-1,-2.524985594E0,2.545704033E0,3.661682418E0
6.339233000E0,-5.530922216E-1,-2.648119769E0,2.202121056E0,3.488235437E0
6.349177000E0,-5.336405817E-1,-2.937296158E0,1.709995413E0,3.440430977E0
6.359120000E0,-4.779400054E-1,-3.207048097E0,1.434084018E0,3.545445122E0
6.369064000E0,-3.274455383E-1,-3.363061166E0,1.292021236E0,3.617557167E0
6.379008000E0,-4.637315637E-1,-3.374998841E0,1.571281332E0,3.751611542E0
6.388952000E0,-1.944053024E-1,-3.200174110E0,2.028221939E0,3.793756976E0
6.398895000E0,-1.743870673E-1,-2.989050449E0,2.216402296E0,3.725221144E0
6.408839000E0,-6.767906535E-1,-2.999757870E0,2.228521235E0,3.797749302E0
6.418783000E0,-9.539483830E-1,-2.961730503E0,1.797690784E0,3.593543828E0
6.428726000E0,-1.074641054E0,-2.667065917E0,1.516916844E0,3.251019950E0
6.438670000E0,-1.083833169E0,-2.520012537E0,1.690149963E0,3.222074553E0
6.448614000E0,-1.124769233E0,-2.834410890E0,1.780450269E0,3.531146285E0
6.458558000E0,-9.516024801E-1,-2.986810380E0,1.544752514E0,3.494687949E0
6.468501000E0,-8.156649488E-1,-2.865664843E0,1.469295366E0,3.322073625E0
6.478445000E0,-1.056643324E0,-2.880416198E0,1.420604432E0,3.381036755E0
6.488389000E0,-1.315146974E0,-2.817904785E0,1.291938790E0,3.367388421E0
6.498332000E0,-1.526064228E0,-2.843055414E0,1.410343153E0,3.521491719E0
6.508276000E0,-1.824926822E0,-3.084498643E0,1.335918623E0,3.824809584E0
6.518220000E0,-2.010753675E0,-3.239427638E0,1.559650050E0,4.119408943E0
6.528164000E0,-2.077425089E0,-3.355234083E0,1.607314798E0,4.261073998E0
6.538107000E0,-2.074733616E0,-3.243151145E0,1.480242523E0,4.124762642E0
6.548051000E0,-2.284102382E0,-2.712183618E0,1.105032834E0,3.714049169E0
6.557995000E0,-2.525522953E0,-2.343935332E0,8.861350071E-1,3.557742862E0
6.567938000E0,-2.593652371E0,-2.236821358E0,8.464218879E-1,3.528006862E0
6.577882000E0,-2.791759253E0,-1.976093427E0,7.910698056E-1,3.510648999E0
6.587826000E0,-2.833022761E0,-1.921103872E0,6.210368675E-1,3.478842458E0
6.597770000E0,-2.998444000E0,-2.019024854E0,6.079180545E-1,3.665609382E0
6.607713000E0,-3.427289906E0,-1.965672519E0,4.675755233E-1,3.978543882E0
6.617657000E0,-3.810153308E0,-1.777240148E0,-1.923157999E-1,4.208662037E0
6.627601000E0,-3.973746415E0,-1.432300617E0,-5.717120951E-1,4.262511038E0
6.637544000E0,-4.103506948E0,-1.448650017E0,-2.616187540E-1,4.359564257E0
6.647488000E0,-4.060281991E0,-1.190895395E0,-8.148261657E-1,4.309067575E0
6.657432000E0,-4.109524902E0,-5.094673151E-1,-1.137580191E0,4.294396413E0
6.667376000E0,-4.172367852E0,2.058477187E-1,-1.031875688E0,4.302998282E0
6.677319000E0,-4.012618120E0,4.269929230E-1,-7.056235662E-1,4.096502380E0
6.687263000E0,-3.893926951E0,6.703844440E-1,-4.072652945E-1,3.972146451E0
6.697207000E0,-3.942974273E0,1.012430187E0,-5.951758021E-1,4.114157902E0
6.707150000E0,-3.857313149E0,1.517539573E0,-1.007767910E0,4.265839571E0
6.717094000E0,-3.885839083E0,1.841944267E0,-1.053275328E0,4.427402509E0
6.727038000E0,-4.106907981E0,1.303651348E0,-8.859136900E-1,4.398982049E0
6.736982000E0,-3.952638844E0,1.293331012E0,-1.579592272E0,4.448726861E0
6.746925000E0,-4.019973333E0,2.015277958E0,-2.157641287E0,4.987679497E0
6.756869000E0,-3.936566602E0,2.272266009E0,-2.061023942E0,4.990748353E0
6.766813000E0,-3.973234491E0,2.023984462E0,-1.962504498E0,4.871809657E0
6.776756000E0,-3.892706053E0,1.860058356E0,-1.995285012E0,4.753329336E0
6.786700000E0,-3.558404069E0,2.244420984E0,-1.911724061E0,4.621077143E0
6.796644000E0,-3.382845805E0,2.553070940E0,-1.601590082E0,4.530663059E0
6.806588000E0,-3.110359123E0,2.666464823E0,-1.654250106E0,4.418247610E0
6.816531000E0,-2.916689693E0,2.848595651E0,-2.008230747E0,4.544729550E0
6.826475000E0,-2.774746194E0,3.109793113E0,-2.186863478E0,4.706633778E0
6.836419000E0,-2.519833904E0,3.315777072E0,-2.085953400E0,4.657804427E0
6.846362000E0,-2.828919185E0,3.338314580E0,-1.950005636E0,4.790579294E0
6.856306000E0,-3.040543953E0,3.561339079E0,-2.109388748E0,5.135909312E0
6.866250000E0,-2.617697583E0,3.841709561E0,-1.768841061E0,4.973919148E0
6.876197500E0,-2.237470691E0,3.690231593E0,-1.100531355E0,4.453678655E0
6.886140500E0,-1.930917839E0,3.727716923E0,-8.883394074E-1,4.291091243E0
6.896084500E0,-1.550591252E0,3.657845035E0,-6.253072353E-1,4.021836976E0
6.906028500E0,-1.056059772E0,3.372357654E0,-3.428150909E-1,3.550433857E0
6.915971500E0,-5.986849720E-1,3.668995675E0,-3.392903893E-1,3.732970791E0
6.925915500E0,-4.735057328E-1,3.794307353E0,-2.897410838E-1,3.834700232E0
6.935859500E0,-2.079108357E-1,3.887163477E0,-8.583683342E-2,3.893665981E0
6.945803500E0,2.389525707E-1,4.148310068E0,2.927569315E-2,4.155289619E0
6.955746500E0,2.473106173E-1,4.193416659E0,1.600686979E-1,4.203751635E0
6.965690500E0,2.944675162E-1,4.252029734E0,2.644121151E-1,4.270407678E0
6.975634500E0,8.332171208E-1,4.259342846E0,4.125234032E-1,4.359636202E0
6.985577500E0,1.388926848E0,3.964399933E0,7.426539829E-1,4.265808195E0
6.995521500E0,1.869601597E0,3.927573584E0,1.045474996E0,4.473730251E0
7.005465500E0,2.260737931E0,4.083452752E0,1.159437375E0,4.809346879E0
7.015409500E0,2.285324304E0,3.950972972E0,1.379994203E0,4.768362255E0
7.025352500E0,2.442248369E0,4.125878980E0,1.342885434E0,4.979035623E0
7.035296500E0,2.535355046E0,4.261317451E0,1.356222933E0,5.140641231E0
7.045240500E0,2.657075949E0,4.100205610E0,1.489269308E0,5.107804001E0
7.055183500E0,3.070554788E0,3.857653749E0,1.740960660E0,5.228837650E0
7.065127500E0,3.574977125E0,3.720985023E0,2.001532616E0,5.534647577E0
7.075071500E0,3.719330261E0,3.629043989E0,2.259895201E0,5.666613115E0
7.085014500E0,3.749087327E0,3.501760045E0,2.349279102E0,5.642436663E0
7.094958500E0,3.705286419E0,3.382673897E0,2.419356081E0,5.570001255E0
7.104902500E0,3.812908224E0,3.269722062E0,2.431810358E0,5.580596125E0
7.114846500E0,3.919683352E0,3.153205765E0,2.648871721E0,5.685344807E0
7.124789500E0,3.881765327E0,2.932718373E0,2.772195931E0,5.599465099E0
7.134733500E0,3.898401241E0,2.522988185E0,2.794460666E0,5.419595191E0
7.144677500E0,3.841534730E0,2.194740116E0,2.927578963E0,5.305185373E0
7.154620500E0,3.693382072E0,1.940629479E0,2.973933350E0,5.123611371E0
7.164564500E0,3.609322793E0,1.636402942E0,3.078893502E0,5.018427125E0
7.174508500E0,3.583700586E0,1.383150676E0,3.163231694E0,4.976148152E0
7.184452500E0,3.380657192E0,1.216841830E0,3.129675400E0,4.764915025E0
7.194395500E0,3.067842557E0,1.089011756E0,3.274131155E0,4.617092091E0
7.204339500E0,2.943285461E0,6.805615228E-1,3.395854398E0,4.545098501E0
7.214283500E0,2.707034560E0,3.306483507E-1,3.330671099E0,4.304733954E0
7.224226500E0,2.512682467E0,7.410351813E-2,3.335482481E0,4.176662291E0
7.234170500E0,2.462772973E0,-2.589731812E-1,3.462717016E0,4.257079628E0
7.244114500E0,2.338149804E0,-5.219230539E-1,3.625654943E0,4.345655526E0
7.254058500E0,1.987144372E0,-6.888441038E-1,3.574563727E0,4.147379268E0
7.264001500E0,1.585406889E0,-7.344459540E-1,3.503435272E0,3.914969293E0
7.273945500E0,1.445685332E0,-7.949523568E-1,3.546903765E0,3.911838654E0
7.283889500E0,1.502660309E0,-1.141521506E0,3.683164355E0,4.138448867E0
7.293832500E0,1.478182257E0,-1.513559373E0,3.731659116E0,4.289657855E0
7.303776500E0,1.213454099E0,-1.875565757E0,3.612193483E0,4.247135449E0
7.313720500E0,9.992100714E-1,-2.337530876E0,3.633842214E0,4.434780784E0
7.323663500E0,8.829820423E-1,-2.821802539E0,3.820424819E0,4.830928757E0
7.333607500E0,6.220202230E-1,-3.120629173E0,3.777845395E0,4.939367512E0
7.343551500E0,3.773044538E-1,-3.291556735E0,3.631756805E0,4.915929402E0
7.353495500E0,2.594532377E-1,-3.457321206E0,3.542181262E0,4.956554649E0
7.363438500E0,-4.077854043E-1,-4.381253784E0,4.011353660E0,5.954211269E0
7.373382500E0,-1.206774971E0,-5.415622140E0,3.996440921E0,6.837895073E0
7.383326500E0,-3.580571741E-1,-2.711163279E0,2.395556306E0,3.635560655E0
7.393269500E0,-1.137436349E0,-3.578653269E0,2.023857577E0,4.265737939E0
7.403213500E0,-1.433450180E0,-4.989220955E0,3.172340194E0,6.083654121E0
7.413157500E0,-1.003122590E0,-5.025083683E0,2.921920320E0,5.898757438E0
7.423101500E0,-1.014518959E0,-4.794565392E0,2.854665061E0,5.671527010E0
7.433044500E0,-9.048064823E-1,-4.880890176E0,2.977388762E0,5.788489226E0
7.442988500E0,-6.809231731E-1,-4.977117804E0,2.950289841E0,5.825767601E0
7.452932500E0,-5.951092900E-1,-4.992725776E0,2.722746613E0,5.717937991E0
7.462875500E0,-7.653891268E-1,-4.841071807E0,2.566248810E0,5.532398187E0
7.472819500E0,-9.660617673E-1,-4.757495799E0,2.433899422E0,5.430553196E0
7.482763500E0,-1.320999160E0,-4.729933779E0,2.210798909E0,5.385623840E0
7.492707500E0,-1.584494285E0,-4.760807077E0,2.047579731E0,5.419270147E0
7.502650500E0,-1.783327684E0,-4.930229566E0,1.842677507E0,5.557236867E0
7.512594500E0,-2.206429870E0,-5.151138543E0,1.625195584E0,5.834708368E0
7.522538500E0,-2.352455748E0,-4.998495809E0,1.582985703E0,5.746725340E0
7.532481500E0,-2.421362992E0,-4.615160537E0,1.344732131E0,5.382472482E0
7.542425500E0,-2.571243501E0,-4.418715141E0,9.803242958E-1,5.205513650E0
7.552369500E0,-2.740668329E0,-4.106934586E0,7.212499577E-1,4.989827260E0
7.562312500E0,-2.708592843E0,-3.614109031E0,5.305172914E-1,4.547494681E0
7.572256500E0,-2.806734264E0,-3.436258950E0,5.485688156E-1,4.470633126E0
7.582200500E0,-2.894689837E0,-3.295779009E0,5.995118049E-1,4.427279405E0
7.592144500E0,-2.912524721E0,-2.944626228E0,4.650547886E-1,4.167721179E0
7.602087500E0,-3.150324842E0,-2.756776239E0,4.985795072E-1,4.215796884E0
7.612031500E0,-3.519865363E0,-2.531545000E0,6.289004955E-1,4.381060157E0
7.621975500E0,-3.832203158E0,-2.066963836E0,5.736232576E-1,4.391715404E0
7.631918500E0,-4.070879777E0,-1.668787161E0,4.706043810E-1,4.424746459E0
7.641862500E0,-4.489260628E0,-1.345325623E0,4.753391638E-1,4.710552976E0
7.651806500E0,-4.861514550E0,-9.005507326E-1,2.567705351E-1,4.950883400E0
7.661750500E0,-5.202802786E0,-3.719063044E-1,-2.066546345E-1,5.220170234E0
7.671693500E0,-5.560726059E0,1.176050484E-2,-7.279950133E-1,5.608189490E0
7.681637500E0,-5.976220433E0,1.174214458E-1,-7.262966895E-1,6.021337504E0
7.691581500E0,-6.305486501E0,2.555864739E-1,-5.158016038E-1,6.331708755E0
7.701524500E0,-6.516066372E0,7.448341173E-1,-5.453673188E-1,6.581133970E0
7.711468500E0,-6.610565563E0,1.509328912E0,-8.417021616E-1,6.832723714E0
7.721412500E0,-6.191110870E0,2.436049443E0,-1.430548207E0,6.805193522E0
7.731356500E0,-5.718761680E0,2.899210904E0,-1.661571551E0,6.623479375E0
7.741299500E0,-5.486301529E0,3.182585101E0,-1.437980018E0,6.503548179E0
7.751243500E0,-5.386855593E0,3.557318534E0,-1.059742348E0,6.541848529E0
7.761187500E0,-5.376080344E0,4.041969681E0,-8.151555832E-1,6.775266592E0
7.771130500E0,-5.081864825E0,4.756003590E0,-7.744753345E-1,7.003194434E0
7.781074500E0,-4.431917569E0,5.376079760E0,-6.344568121E-1,6.996189132E0
7.791018500E0,-3.816741073E0,5.707304646E0,-5.463497972E-1,6.887622002E0
7.800962500E0,-3.233730111E0,5.967677066E0,-6.896674649E-1,6.822449795E0
7.810905500E0,-2.907673579E0,5.952148615E0,-8.343345237E-1,6.676732200E0
7.820849500E0,-2.913617566E0,5.751699046E0,-8.978072190E-1,6.509782411E0
7.830793500E0,-3.000645477E0,5.375989712E0,-9.816785109E-1,6.234487258E0
7.840736500E0,-2.945509450E0,5.230979934E0,-1.040853503E0,6.092827997E0
7.850680500E0,-2.350931818E0,5.648812609E0,-1.188802092E0,6.232913822E0
7.860624500E0,-1.399317351E0,5.723274561E0,-1.272573981E0,6.027719742E0
7.870567500E0,-7.919623831E-1,5.491585658E0,-1.291984398E0,5.696836064E0
7.880508625E0,-6.594100973E-1,5.223346394E0,-1.292106020E0,5.421042999E0
7.890452625E0,-8.873026961E-1,4.767873437E0,-9.747893214E-1,4.946729971E0
7.900396625E0,-1.234418560E0,4.387270569E0,-5.719138241E-1,4.593366701E0
7.910339625E0,-1.361754545E0,4.179649975E0,-4.640385425E-1,4.420314595E0
7.920283625E0,-1.119372253E0,4.013641675E0,-4.197645950E-1,4.187901151E0
7.930227625E0,-3.245163757E-1,3.920059327E0,-1.908203562E-1,3.938094516E0
7.940170625E0,3.544304386E-1,3.796583675E0,3.835408017E-4,3.813091748E0
7.950114625E0,7.907774448E-1,3.602366652E0,-3.679512477E-1,3.706448784E0
7.960058625E0,1.308063072E-1,3.293186939E0,-1.406243670E-1,3.298782460E0
7.970002625E0,4.859244514E-2,3.679000261E0,4.554255573E-1,3.707400246E0
7.979945625E0,1.061757006E0,3.808651743E0,8.319137764E-1,4.040450046E0
7.989889625E0,1.815043859E0,3.516778618E0,1.063723133E0,4.098002313E0
7.999833625E0,2.031519769E0,3.276869699E0,9.364970756E-1,3.967615703E0
8.009776625E0,1.610457384E0,3.031366163E0,8.963969437E-1,3.547714938E0
8.019720625E0,1.601338651E0,3.211771477E0,1.016584123E0,3.730040855E0
8.029664625E0,2.262433916E0,3.452962106E0,1.289337949E0,4.324805993E0
8.039608625E0,3.118932603E0,3.585592160E0,1.710914011E0,5.050884920E0
8.049551625E0,3.653110836E0,3.569188966E0,2.119191166E0,5.529493635E0
8.059495625E0,3.792500856E0,3.627178727E0,2.271168633E0,5.718189856E0
8.069439625E0,3.786326489E0,3.707872642E0,2.224689116E0,5.747506370E0
8.079382625E0,3.871259927E0,3.689127638E0,2.395894275E0,5.859746200E0
8.089326625E0,4.027264226E0,3.636921943E0,2.657205465E0,6.042085670E0
8.099270625E0,4.156088619E0,3.526594924E0,2.812620656E0,6.133578020E0
8.109213625E0,4.296325901E0,3.242296867E0,2.997880329E0,6.161021967E0
8.119157625E0,4.350251262E0,2.934426929E0,3.085033078E0,6.087115618E0
8.129101625E0,4.298129182E0,2.715387892E0,3.064954909E0,5.936429437E0
8.139045625E0,4.247617425E0,2.559484166E0,3.115389775E0,5.856523409E0
8.148988625E0,4.221706073E0,2.353042370E0,3.312845278E0,5.859569472E0
8.158932625E0,4.222919955E0,2.117372682E0,3.409837722E0,5.826089024E0
8.168876625E0,4.097956478E0,1.706930303E0,3.536997413E0,5.676020530E0
8.178819625E0,3.961060004E0,1.383421403E0,3.628951603E0,5.547354403E0
8.188763625E0,3.853080642E0,1.109063028E0,3.695666872E0,5.452907927E0
8.198707625E0,3.701312066E0,7.636586434E-1,3.738518484E0,5.315957674E0
8.208650625E0,3.459473273E0,5.030143279E-1,3.688870068E0,5.082198454E0
8.218594625E0,3.156729590E0,2.742502016E-1,3.726505380E0,4.891522996E0
8.228538625E0,2.816360243E0,-1.326440871E-2,3.943020759E0,4.845562265E0
8.238482625E0,2.484914917E0,-3.380608660E-1,3.991052419E0,4.713553512E0
8.248425625E0,2.041283450E0,-5.818459046E-1,3.966923884E0,4.499096340E0
8.258369625E0,1.688875855E0,-6.797394043E-1,3.902340802E0,4.306113218E0
8.268313625E0,1.359840459E0,-8.106392670E-1,3.793926407E0,4.110982812E0
8.278256625E0,8.757249168E-1,-9.773737907E-1,3.677345499E0,3.904487620E0
8.288200625E0,4.784416965E-1,-1.323148888E0,3.628527680E0,3.891765995E0
8.298144625E0,2.705685022E-1,-1.729049735E0,3.664497119E0,4.060955484E0
8.308088625E0,1.607563305E-1,-2.074760513E0,3.759899413E0,4.297361677E0
8.318031625E0,2.146176651E-1,-2.425219231E0,3.876474182E0,4.577641439E0
8.327975625E0,3.479052383E-1,-2.626274571E0,3.865741033E0,4.686396261E0
8.337919625E0,3.603910902E-1,-2.681020882E0,3.711154100E0,4.592430670E0
8.347862625E0,1.764730614E-1,-2.665413494E0,3.481781863E0,4.388436712E0
8.357806625E0,-6.661498904E-2,-2.695682775E0,3.245776837E0,4.219740568E0
8.367750625E0,-3.030290276E-1,-2.776514685E0,3.139833476E0,4.202310631E0
8.377694625E0,-4.408768442E-1,-2.958402268E0,3.131176965E0,4.330217726E0
8.387637625E0,-5.159182557E-1,-3.132694902E0,3.102641091E0,4.439181314E0
8.397581625E0,-5.950597349E-1,-3.257844613E0,2.967898731E0,4.447029400E0
8.407525625E0,-7.873550695E-1,-3.330600933E0,2.829795098E0,4.440784939E0
8.417468625E0,-8.689178807E-1,-3.404117391E0,2.839093341E0,4.517021639E0
8.427412625E0,-6.943404865E-1,-3.449029854E0,2.954787519E0,4.594418889E0
8.437356625E0,-7.614466417E-1,-3.491336798E0,2.928963291E0,4.620396042E0
8.447299625E0,-1.163076682E0,-3.491663657E0,2.658974540E0,4.540331273E0
8.457243625E0,-1.642505389E0,-3.558511366E0,2.433249212E0,4.613190742E0
8.467187625E0,-1.983272054E0,-3.729531898E0,2.405847990E0,4.861160435E0
8.477131625E0,-2.149138851E0,-3.881420926E0,2.326986885E0,5.009899617E0
8.487074625E0,-2.121670386E0,-3.994590862E0,2.229200681E0,5.042576430E0
8.497018625E0,-1.944458821E0,-4.061356709E0,2.177438790E0,5.001677529E0
8.506962625E0,-1.858359155E0,-4.088689519E0,2.116376609E0,4.964869654E0
8.516905625E0,-1.846170049E0,-4.066938461E0,1.948079417E0,4.872714409E0
8.526849625E0,-1.928205608E0,-4.022946349E0,1.814777518E0,4.816169810E0
8.536793625E0,-1.974802946E0,-4.085192884E0,1.827622097E0,4.891712389E0
8.546736625E0,-2.116354974E0,-4.189154039E0,1.746204004E0,5.007713886E0
8.556680625E0,-2.460888416E0,-4.201828464E0,1.355276707E0,5.054513744E0
8.566624625E0,-2.818841217E0,-4.221184502E0,1.102279088E0,5.194158603E0
8.576568625E0,-3.113738522E0,-4.243271189E0,8.758178875E-1,5.335520119E0
8.586511625E0,-3.461511320E0,-4.159584669E0,5.401657820E-1,5.438380670E0
8.596455625E0,-3.762278060E0,-3.980920072E0,2.016330457E-1,5.481160160E0
8.606399625E0,-3.853820314E0,-3.927655445E0,2.455830574E-1,5.508059491E0
8.616342625E0,-3.890844884E0,-3.898954972E0,3.364101970E-1,5.518486713E0
8.626286625E0,-4.040897594E0,-3.723657786E0,2.070425972E-1,5.498849635E0
8.636230625E0,-4.281173426E0,-3.559328222E0,6.541864872E-2,5.567902917E0
8.646174625E0,-4.518927939E0,-3.352794040E0,-4.221835881E-2,5.627052512E0
8.656117625E0,-4.650140920E0,-3.273496440E0,-1.337550581E-3,5.686790950E0
8.666061625E0,-4.871793078E0,-3.039898421E0,-4.743261337E-2,5.742612650E0
8.676005625E0,-5.146156715E0,-2.848693299E0,-1.689348310E-2,5.882029228E0
8.685948625E0,-5.355313958E0,-2.544013018E0,2.107737055E-1,5.932606120E0
8.695892625E0,-5.451396575E0,-2.047227729E0,1.099630299E-1,5.824170143E0
8.705836625E0,-5.595016471E0,-1.734442037E0,-6.464798570E-2,5.858043859E0
8.715779625E0,-5.660233390E0,-1.423031026E0,-2.040467763E-1,5.839939591E0
8.725723625E0,-5.609822205E0,-8.547015452E-1,-2.735051201E-1,5.681146447E0
8.735667625E0,-5.696125939E0,-2.752325338E-1,-2.489497380E-1,5.708202837E0
8.745611625E0,-5.800070722E0,4.531428409E-1,-2.312376447E-1,5.822338848E0
8.755554625E0,-5.650468540E0,1.335744960E0,-1.604826077E-1,5.808421816E0
8.765498625E0,-5.276279483E0,2.049447332E0,-1.999548948E-1,5.663862773E0
8.775442625E0,-4.839081122E0,2.636604847E0,-3.839491932E-1,5.524111531E0
8.785385625E0,-4.664915079E0,3.171943753E0,-6.980125380E-1,5.684178162E0
8.795329625E0,-4.637626124E0,3.646102071E0,-1.040973955E0,5.990430966E0
8.805273625E0,-4.215879031E0,4.592858087E0,-1.168647324E0,6.343005437E0
8.815217625E0,-3.146627356E0,5.632020575E0,-9.889828527E-1,6.526791444E0
8.825160625E0,-1.950146115E0,6.554820548E0,-8.071275023E-1,6.886232431E0
8.835104625E0,-1.260617302E0,7.052061335E0,-9.851492719E-1,7.231268502E0
8.845048625E0,-1.252037975E0,7.085309188E0,-1.250976706E0,7.303023216E0
8.854991625E0,-1.614715034E0,7.182379400E0,-1.564802617E0,7.526120230E0
8.864935625E0,-1.478617874E0,7.409733762E0,-1.822001753E0,7.772397033E0
8.874878417E0,-4.403342226E-1,7.691609902E0,-1.237247882E0,7.802918649E0
8.884821417E0,8.214460909E-1,8.000946906E0,-8.027994664E-1,8.082970497E0
8.894765417E0,1.293269324E0,7.766962970E0,-9.103553438E-1,7.926348856E0
8.904709417E0,1.029089197E0,7.220509093E0,-1.320735158E0,7.412092653E0
8.914653417E0,5.443531193E-1,6.626427305E0,-1.521932147E0,6.820713790E0
8.924596417E0,2.944529164E-1,6.107199233E0,-1.250089683E0,6.240777932E0
8.934540417E0,7.763754603E-1,5.839464583E0,-8.914027637E-1,5.957911074E0
8.944484417E0,1.386820389E0,5.367345774E0,-6.567931759E-1,5.582387367E0
8.954427417E0,1.577596617E0,4.892024444E0,-5.552147609E-1,5.170007512E0
8.964371417E0,1.457185636E0,4.309273975E0,-6.440292889E-1,4.594344991E0
8.974315417E0,1.055307820E0,3.416598857E0,-7.067940326E-1,3.645048717E0
8.984258417E0,5.338528356E-1,2.506235327E0,-7.237731774E-1,2.662717029E0
8.994202417E0,3.325729617E-1,1.954568657E0,-7.069022061E-1,2.104911907E0
9.004146417E0,7.391909695E-1,1.792898406E0,-3.779044513E-1,1.975778267E0
9.014090417E0,1.434926748E0,1.915253733E0,1.512522662E-1,2.397934294E0
9.024033417E0,2.008534949E0,2.013570571E0,3.830179144E-1,2.869735494E0
9.033977417E0,2.265492302E0,2.056459898E0,3.271581477E-1,3.077095243E0
9.043921417E0,2.194119873E0,1.915093519E0,3.300706458E-1,2.930988201E0
9.053864417E0,1.977929453E0,1.725127423E0,5.507691228E-1,2.681718884E0
9.063808417E0,1.938458554E0,1.942025210E0,9.056015575E-1,2.889497822E0
9.073752417E0,2.268779461E0,2.257057402E0,1.296277424E0,3.452825440E0
9.083695417E0,2.779359355E0,2.599383811E0,1.587985657E0,4.123509800E0
9.093639417E0,3.135744518E0,2.869005357E0,1.744023870E0,4.594094544E0
9.103583417E0,3.271821797E0,2.979068082E0,1.870442426E0,4.803979536E0
9.113527417E0,3.261538007E0,3.100104861E0,2.104422854E0,4.967582497E0
9.123470417E0,3.232188785E0,3.114218870E0,2.345116469E0,5.064086766E0
9.133414417E0,3.363145658E0,3.091689548E0,2.524108511E0,5.219235266E0
9.143358417E0,3.529712074E0,3.067460441E0,2.721736214E0,5.410732751E0
9.153301417E0,3.642123041E0,3.076033044E0,2.887958522E0,5.573808748E0
9.163245417E0,3.636179054E0,3.081313080E0,3.062972703E0,5.665517645E0
9.173189417E0,3.508571466E0,2.978035464E0,3.199340297E0,5.604868178E0
9.183133417E0,3.270023486E0,2.829227334E0,3.485460931E0,5.553919230E0
9.193076417E0,3.043228702E0,2.796735526E0,3.671669022E0,5.528482969E0
9.203020417E0,2.987226994E0,2.645487353E0,3.671922791E0,5.422651144E0
9.212964417E0,2.926538451E0,2.464100291E0,3.662421066E0,5.296201055E0
9.222907417E0,2.979341439E0,2.365193469E0,3.857690002E0,5.417784391E0
9.232851417E0,2.931869357E0,2.252165036E0,4.080311043E0,5.506091489E0
9.242795417E0,2.899757034E0,2.011653854E0,4.129156344E0,5.431875753E0
9.252738417E0,2.907485883E0,1.655699923E0,4.262180500E0,5.418579058E0
9.262682417E0,2.866411532E0,1.340816835E0,4.302691180E0,5.341091297E0
9.272626417E0,2.783200976E0,1.065739253E0,4.272956918E0,5.209622698E0
9.282570417E0,2.682986424E0,8.404717612E-1,4.246443304E0,5.092846911E0
9.292513417E0,2.627218604E0,6.572603685E-1,4.253646196E0,5.042596033E0
9.302457417E0,2.592872937E0,3.732499945E-1,4.320262063E0,5.052422183E0
9.312401417E0,2.349659463E0,1.022876823E-1,4.360500262E0,4.954323859E0
9.322344417E0,2.212588157E0,-2.161797488E-1,4.345003094E0,4.880710186E0
9.332288417E0,2.103254580E0,-5.892186588E-1,4.435099331E0,4.943780389E0
9.342232417E0,1.912017591E0,-8.968693256E-1,4.461810290E0,4.936389057E0
9.352175417E0,1.431773491E0,-1.118960609E0,4.316329225E0,4.683240988E0
9.362119417E0,7.549050692E-1,-1.371209493E0,3.983960331E0,4.280424869E0
9.372063417E0,2.650256342E-1,-1.699412538E0,3.789637767E0,4.161681867E0
9.382007417E0,9.679393083E-2,-1.888266494E0,3.848818898E0,4.288161183E0
9.391950417E0,2.978574577E-1,-2.066703050E0,4.053687793E0,4.559864613E0
9.401894417E0,5.069155902E-1,-2.248244478E0,4.208860618E0,4.798549192E0
9.411838417E0,5.727584544E-1,-2.418416580E0,4.035019973E0,4.739005927E0
9.421781417E0,3.442434195E-1,-2.629310446E0,3.726307744E0,4.573526687E0
9.431725417E0,-6.258742690E-2,-2.768344955E0,3.483990941E0,4.450375698E0
9.441669417E0,-4.897715539E-1,-2.850163874E0,3.312893810E0,4.397564744E0
9.451612417E0,-8.241039428E-1,-3.032352004E0,3.278029786E0,4.540901371E0
9.461556417E0,-9.488139430E-1,-3.318165075E0,3.224798197E0,4.723324123E0
9.471500417E0,-1.034863615E0,-3.460797960E0,3.184609407E0,4.815579124E0
9.481444417E0,-1.266781437E0,-3.589206909E0,3.097781470E0,4.907483213E0
9.491387417E0,-1.643563442E0,-3.747299833E0,2.981223950E0,5.062731779E0
9.501331417E0,-1.970264045E0,-3.825429159E0,2.820679581E0,5.145102716E0
9.511275417E0,-2.316593167E0,-3.935713493E0,2.653030846E0,5.281573370E0
9.521218417E0,-2.655490769E0,-4.123343627E0,2.554875391E0,5.530007428E0
9.531162417E0,-2.905789314E0,-4.252147847E0,2.515704308E0,5.731765960E0
9.541106417E0,-3.151773782E0,-4.365838185E0,2.441307845E0,5.912208134E0
9.551050417E0,-3.311099592E0,-4.340013372E0,2.341694679E0,5.939918395E0
9.560993417E0,-3.274137587E0,-4.221673329E0,2.193111082E0,5.775139726E0
9.570937417E0,-3.291369916E0,-4.230486252E0,2.138378512E0,5.770857174E0
9.580881417E0,-3.338095894E0,-4.231425315E0,1.994197576E0,5.746709351E0
9.590824417E0,-3.404831043E0,-4.186829186E0,1.832702742E0,5.699229106E0
9.600768417E0,-3.595588268E0,-4.177568951E0,1.630993390E0,5.748084617E0
9.610712417E0,-3.739454331E0,-4.135914556E0,1.329194325E0,5.732021062E0
9.620655417E0,-3.782706185E0,-4.023052184E0,1.088096959E0,5.628300805E0
9.630599417E0,-3.779619440E0,-3.977885951E0,8.671306792E-1,5.555269154E0
9.640543417E0,-3.883134453E0,-3.942385166E0,8.451802316E-1,5.597808822E0
9.650486417E0,-4.005581873E0,-3.677889290E0,6.949231616E-1,5.482196090E0
9.660430417E0,-4.062611229E0,-3.435867772E0,4.054737076E-1,5.336141515E0
9.670374417E0,-4.004037039E0,-3.348431432E0,1.696069685E-1,5.222362702E0
9.680318417E0,-3.954186602E0,-3.350901881E0,2.497345805E-2,5.183122492E0
9.690261417E0,-3.991863136E0,-3.261713131E0,-3.854908481E-2,5.155116863E0
9.700205417E0,-4.029997507E0,-3.006189222E0,-1.790414509E-1,5.030915363E0
9.710149417E0,-4.119422192E0,-2.860416382E0,-4.304905812E-1,5.033581549E0
9.720092417E0,-4.286469834E0,-2.818261465E0,-6.672376187E-1,5.173164154E0
9.730036417E0,-4.497733536E0,-2.431689175E0,-8.155253465E-1,5.177625015E0
9.739980417E0,-4.580821593E0,-1.912109685E0,-7.700164671E-1,5.023247483E0
9.749924417E0,-4.532093237E0,-1.482308929E0,-5.125084519E-1,4.795807939E0
9.759867417E0,-4.430246435E0,-8.597956395E-1,-5.203459867E-1,4.542806617E0
9.769811417E0,-4.471302952E0,-1.102387261E-1,-6.899293470E-1,4.525561310E0
9.779755417E0,-4.508414060E0,5.405552065E-1,-7.263621783E-1,4.598434438E0
9.789698417E0,-4.452699158E0,1.410355432E0,-8.466534376E-1,4.746836239E0
9.799642417E0,-4.489565853E0,2.160170792E0,-9.168235338E-1,5.065876508E0
9.809586417E0,-4.446581216E0,2.760662883E0,-8.818390578E-1,5.307634519E0
9.819529417E0,-4.268204009E0,3.681812187E0,-8.436029452E-1,5.699558963E0
9.829473417E0,-4.015526525E0,4.782180989E0,-7.890302968E-1,6.294146256E0
9.839417417E0,-3.789585142E0,5.786783509E0,-8.440438984E-1,6.968516990E0
9.849361417E0,-3.646044476E0,6.367657607E0,-1.064956383E0,7.414501724E0
9.859304417E0,-3.521932062E0,6.654243679E0,-1.314750679E0,7.642743862E0
9.869248417E0,-3.523943504E0,6.762299640E0,-1.453637253E0,7.762727323E0
9.879192792E0,-3.650038125E0,6.664607869E0,-1.637725728E0,7.773153923E0
9.889135792E0,-3.583431614E0,6.525105582E0,-1.715435224E0,7.639417714E0
9.899079792E0,-2.992022004E0,6.767075061E0,-1.744216389E0,7.601828159E0
9.909023792E0,-2.052527645E0,7.029693396E0,-1.900329153E0,7.565759041E0
9.918966792E0,-9.905159926E-1,7.491904684E0,-1.872942696E0,7.785735165E0
9.928910792E0,2.804880112E-2,7.702476953E0,-1.525705648E0,7.852179039E0
9.938854792E0,7.174388887E-1,7.623022648E0,-1.306259937E0,7.767335957E0
9.948798792E0,9.953245966E-1,7.261439602E0,-1.437245754E0,7.468925726E0
9.958741792E0,6.691632530E-1,6.472501692E0,-1.647492771E0,6.712323744E0
9.968685792E0,-5.856541961E-2,5.519027810E0,-1.626974891E0,5.754141567E0
9.978629792E0,-4.969449180E-1,5.023979144E0,-1.478766686E0,5.260615135E0
9.988572792E0,-4.672071487E-1,4.437983471E0,-1.246473765E0,4.633322420E0
9.998516792E0,-2.739951168E-1,3.734831815E0,-1.138943323E0,3.914234778E0
1.000846079E1,-1.917670387E-1,3.314398298E0,-1.193841807E0,3.528068726E0
1.001840379E1,-7.031247586E-2,3.292320966E0,-1.115222484E0,3.476786214E0
1.002834779E1,4.627284738E-1,3.448382567E0,-7.597497797E-1,3.561275010E0
1.003829179E1,1.167174265E0,3.354009091E0,-4.345780773E-1,3.577782952E0
1.004823579E1,1.624325957E0,3.005169468E0,-2.259611173E-1,3.423526949E0
1.005817879E1,1.584645582E0,2.514434293E0,-2.792878702E-2,2.972248551E0
1.006812279E1,9.808365119E-1,2.022979326E0,1.254163438E-1,2.251713764E0
1.007806679E1,2.965478276E-1,1.812457343E0,2.177877331E-1,1.849425243E0
1.008800979E1,1.084541559E-1,1.850901031E0,3.277351948E-1,1.882818974E0
1.009795379E1,3.078743228E-1,1.970811052E0,4.205264872E-1,2.038559621E0
1.010789779E1,6.225644526E-1,2.097969866E0,7.091875903E-1,2.300437153E0
1.011784079E1,7.957930402E-1,2.178609987E0,1.090187558E0,2.562837675E0
1.012778479E1,8.743126680E-1,2.361384008E0,1.561825215E0,2.963082023E0
1.013772879E1,1.325383256E0,2.648715016E0,1.950210727E0,3.546216842E0
1.014767279E1,2.050985442E0,2.923981463E0,2.295701065E0,4.245756972E0
1.015761579E1,2.851696429E0,3.082321724E0,2.434474788E0,4.853817800E0
1.016755979E1,3.489425928E0,3.187141836E0,2.251131833E0,5.234650028E0
1.017750379E1,3.789641568E0,3.268940874E0,2.185714354E0,5.461199950E0
1.018744679E1,3.732318097E0,3.351422283E0,2.214201989E0,5.483148743E0
1.019739079E1,3.559467970E0,3.220265728E0,2.389996773E0,5.362089906E0
1.020733479E1,3.432686886E0,2.950945898E0,2.616116204E0,5.228334816E0
1.021727779E1,3.457362136E0,2.733775046E0,2.771822294E0,5.206714682E0
1.022722179E1,3.629229346E0,2.508459023E0,2.962510521E0,5.314145360E0
1.023716579E1,3.804632952E0,2.292440073E0,3.116827898E0,5.426336658E0
1.024710979E1,3.911715351E0,2.212474721E0,3.054241641E0,5.433686904E0
1.025705279E1,3.720942923E0,2.081245660E0,2.937472744E0,5.177426567E0
1.026699679E1,3.426392943E0,2.009108561E0,2.954711505E0,4.950455119E0
1.027694079E1,3.124902318E0,1.951790060E0,3.255624425E0,4.916664452E0
1.028688379E1,3.122636522E0,1.915945458E0,3.383170910E0,4.986737536E0
1.029682779E1,3.321616101E0,1.781672922E0,3.550446886E0,5.178143008E0
1.030677179E1,3.320746620E0,1.767937812E0,3.767727081E0,5.324352503E0
1.031671479E1,3.227433245E0,1.800576970E0,3.714712715E0,5.239989821E0
1.032665879E1,3.101840315E0,1.588242350E0,3.875638615E0,5.211957576E0
1.033660279E1,3.110952031E0,1.451527432E0,4.011041418E0,5.279527222E0
1.034654679E1,3.290451611E0,1.304259458E0,4.154387957E0,5.457756300E0
1.035648979E1,3.498052910E0,1.252669474E0,4.158109709E0,5.576327764E0
1.036643379E1,3.529419714E0,1.322797471E0,4.222660631E0,5.660164262E0
1.037637779E1,3.354056454E0,1.302187790E0,4.259830212E0,5.575978942E0
1.038632079E1,2.862281644E0,1.043444404E0,4.230876846E0,5.213612118E0
1.039626479E1,2.281081710E0,5.715951508E-1,4.184708401E0,4.800191578E0
1.040620879E1,1.862156045E0,6.354052305E-2,4.354743678E0,4.736607967E0
1.041615179E1,1.808245593E0,-3.414306164E-1,4.402808668E0,4.771902258E0
1.042609579E1,1.899478676E0,-6.646366310E-1,4.427665766E0,4.863536288E0
1.043603979E1,1.992878298E0,-9.731643802E-1,4.220088733E0,4.767364234E0
1.044598279E1,1.887941973E0,-1.247023988E0,3.923525557E0,4.529177245E0
1.045592679E1,1.505394467E0,-1.412101411E0,3.702291475E0,4.238774005E0
1.046587079E1,8.507575983E-1,-1.249006779E0,3.583302098E0,3.888940775E0
1.047581479E1,5.145507382E-1,-1.202644206E0,3.526277128E0,3.761083079E0
1.048575779E1,5.192777735E-1,-1.391829114E0,3.579801370E0,3.875798697E0
1.049570179E1,5.890900201E-1,-1.511334507E0,3.417461321E0,3.782882622E0
1.050564579E1,5.566812426E-1,-1.709437004E0,3.437628953E0,3.879350680E0
1.051558879E1,6.058178808E-1,-1.925532553E0,3.608077043E0,4.134357371E0
1.052553279E1,9.243038768E-1,-2.015041146E0,3.393073754E0,4.053107200E0
1.053547679E1,8.772361296E-1,-2.168975530E0,3.306980520E0,4.050940414E0
1.054541979E1,4.427258800E-1,-2.127349201E0,3.275383337E0,3.930617869E0
1.055536379E1,4.119334191E-2,-1.973537024E0,3.165130577E0,3.730227453E0
1.056530779E1,-3.420730792E-1,-2.075317753E0,3.151938674E0,3.789284256E0
1.057525179E1,-6.530665992E-1,-2.365900397E0,3.108131334E0,3.960361229E0
1.058519479E1,-7.726273951E-1,-2.497733476E0,3.020744112E0,3.995062026E0
1.059513879E1,-6.153890419E-1,-2.599665647E0,3.013007076E0,4.026807270E0
1.060508279E1,-4.419805062E-1,-2.775339394E0,3.142665575E0,4.215946209E0
1.061502579E1,-4.381828858E-1,-2.909777992E0,3.190922061E0,4.340598553E0
1.062496979E1,-6.098112367E-1,-2.987767569E0,3.032830891E0,4.300777605E0
1.063491379E1,-9.385120261E-1,-2.984483773E0,2.705088022E0,4.135873477E0
1.064485679E1,-1.341999435E0,-3.023359571E0,2.460948057E0,4.122854705E0
1.065480079E1,-1.572118507E0,-3.080327824E0,2.412812024E0,4.216827950E0
1.066474479E1,-1.542877605E0,-2.994165008E0,2.341866002E0,4.102417796E0
1.067468879E1,-1.341573173E0,-2.845189648E0,2.209722437E0,3.844189896E0
1.068463179E1,-1.228303250E0,-2.882809464E0,2.139820143E0,3.794489362E0
1.069457579E1,-1.235141276E0,-2.961101927E0,2.134354166E0,3.853461600E0
1.070451979E1,-1.272380292E0,-2.906119974E0,2.102254706E0,3.805779783E0
1.071446279E1,-1.182962551E0,-2.939042721E0,2.120345991E0,3.812248633E0
1.072440679E1,-1.122871593E0,-3.154805564E0,2.112944586E0,3.959567348E0
1.073435079E1,-1.314224429E0,-3.274784582E0,1.870642986E0,3.993833382E0
1.074429379E1,-1.637691376E0,-3.305841483E0,1.698288703E0,4.061379750E0
1.075423779E1,-1.877122432E0,-3.388619930E0,1.714386672E0,4.236207657E0
1.076418179E1,-2.015617096E0,-3.472929178E0,1.645705862E0,4.339619470E0
1.077412579E1,-2.097505890E0,-3.502461711E0,1.454030040E0,4.333701922E0
1.078406879E1,-2.182781975E0,-3.570892845E0,1.347653400E0,4.396815046E0
1.079401279E1,-2.150687047E0,-3.672129198E0,1.248545433E0,4.434958097E0
1.080395679E1,-2.212577340E0,-3.768742157E0,1.139313598E0,4.516298419E0
1.081389979E1,-2.301355176E0,-3.622892134E0,9.704389930E-1,4.400378949E0
1.082384379E1,-2.298186132E0,-3.502345351E0,7.924362999E-1,4.263336457E0
1.083378779E1,-2.233864567E0,-3.375567191E0,7.489616668E-1,4.116497096E0
1.084373079E1,-1.993947900E0,-3.180589446E0,7.628634220E-1,3.830657653E0
1.085367479E1,-1.906904494E0,-3.136416655E0,8.106705496E-1,3.759066496E0
1.086361879E1,-2.036311270E0,-3.126719048E0,7.413725656E-1,3.804282964E0
1.087356279E1,-2.273398907E0,-2.959109196E0,6.099312508E-1,3.781095867E0
1.088351012E1,-2.444933995E0,-2.740001162E0,5.270425835E-1,3.709862867E0
1.089345412E1,-2.345363806E0,-2.708972912E0,7.226006645E-1,3.655327255E0
1.090339812E1,-2.127375222E0,-2.618269733E0,1.073651120E0,3.540309091E0
1.091334113E1,-2.053175809E0,-2.208991535E0,1.188314727E0,3.241491384E0
1.092328512E1,-2.210635187E0,-1.558940198E0,9.675972462E-1,2.872881289E0
1.093322912E1,-2.658856719E0,-8.199199677E-1,5.301304981E-1,2.832459382E0
1.094317212E1,-3.278773845E0,-3.164811319E-1,3.033304515E-1,3.307949152E0
1.095311612E1,-3.918590799E0,-2.946084523E-1,3.876914477E-1,3.948727979E0
1.096306013E1,-4.198030405E0,-3.072781992E-1,5.496590289E-1,4.244997552E0
1.097300412E1,-4.468103063E0,-2.895693219E-1,6.731767818E-1,4.527798842E0
1.098294712E1,-4.803623022E0,-1.756877804E-1,5.433419895E-1,4.837445694E0
1.099289112E1,-5.041478106E0,5.355248469E-1,-3.446090166E-1,5.081539504E0
1.100283512E1,-5.310158250E0,1.216042516E0,-1.284506833E0,5.597007937E0
1.101277813E1,-5.461240947E0,1.209317633E0,-1.595508685E0,5.816635607E0
1.102272212E1,-5.510421878E0,1.081246653E0,-1.363661761E0,5.778703747E0
1.103266612E1,-5.515597249E0,1.316377813E0,-1.107883644E0,5.777721846E0
1.104260912E1,-5.506589028E0,1.711213973E0,-9.197461183E-1,5.839238727E0
1.105255312E1,-5.225287085E0,2.204916025E0,-5.382725997E-1,5.696930506E0
1.106249713E1,-4.631394162E0,2.513930848E0,-1.589847703E-1,5.272090320E0
1.107244012E1,-4.327396250E0,2.635548255E0,2.001947768E-2,5.066840603E0
1.108238412E1,-4.220310635E0,2.766752758E0,1.387069188E-2,5.046398228E0
1.109232812E1,-4.197766403E0,2.662731376E0,3.690294743E-1,4.984733083E0
1.110227212E1,-3.958803271E0,3.034066408E0,6.217835569E-1,5.026360223E0
1.111221513E1,-3.346919635E0,3.582516525E0,6.193686569E-1,4.941650860E0
1.112215912E1,-2.343802892E0,3.911662141E0,5.694743657E-1,4.595521054E0
1.113210312E1,-1.178046139E0,4.175380338E0,4.839588368E-1,4.365296075E0
1.114204612E1,-6.333209905E-1,4.196333835E0,3.807765305E-1,4.260904118E0
1.115199012E1,-8.150653169E-1,4.002364735E0,1.119917214E-1,4.086049081E0
1.116193413E1,-1.235414341E0,3.743412604E0,-1.676502343E-1,3.945566261E0
1.117187712E1,-1.632390583E0,3.565367811E0,-4.362946737E-1,3.945491057E0
1.118182112E1,-1.683202887E0,3.509311139E0,-5.723722458E-1,3.933960678E0
1.119176512E1,-1.349056147E0,3.521559886E0,-4.500064309E-1,3.797873393E0
1.120170812E1,-9.287115079E-1,3.700787571E0,-1.988509770E-1,3.820716611E0
1.121165212E1,-7.246635622E-1,3.858042004E0,9.363848090E-2,3.926626230E0
1.122159612E1,-5.799066755E-1,3.966256424E0,3.161466712E-1,4.020874344E0
1.123154012E1,-4.182343787E-1,3.798576406E0,7.026131272E-1,3.885584629E0
1.124148312E1,-3.903580704E-1,3.778171962E0,8.062363136E-1,3.882908677E0
1.125142712E1,-1.571497496E-1,3.886431406E0,7.611916300E-1,3.963389687E0
1.126137113E1,3.222957859E-2,3.781216607E0,8.332503768E-1,3.872072309E0
1.127131412E1,7.475838801E-2,3.598871187E0,6.653290144E-1,3.660618163E0
1.128125812E1,4.514372081E-2,3.482225667E0,6.232547164E-1,3.537849628E0
1.129120212E1,2.606609800E-1,3.429510094E0,8.798843336E-1,3.550166203E0
1.130114512E1,9.369511119E-1,3.544724801E0,1.124620714E0,3.835064934E0
1.131108912E1,1.483699982E0,3.488119075E0,1.175441204E0,3.968627262E0
1.132103312E1,1.751796281E0,3.423648260E0,9.464262325E-1,3.960540397E0
1.133097712E1,1.777973681E0,3.403543779E0,6.719368798E-1,3.898307304E0
1.134092013E1,1.595396711E0,3.217537417E0,6.333201134E-1,3.646770086E0
1.135086412E1,1.645978927E0,3.092791164E0,7.530886316E-1,3.583538237E0
1.136080812E1,2.111991197E0,3.008249196E0,9.518564685E-1,3.796854064E0
1.137075112E1,2.829674353E0,2.864830445E0,1.098177851E0,4.173763891E0
1.138069512E1,3.305093039E0,2.737839446E0,1.063006849E0,4.421469031E0
1.139063912E1,3.328019095E0,2.576415948E0,9.487212646E-1,4.314360007E0
1.140058212E1,3.098059798E0,2.593229032E0,8.488145685E-1,4.128352879E0
1.141052612E1,2.962055316E0,2.662296343E0,7.946658432E-1,4.061168221E0
1.142047012E1,3.333486534E0,2.407707989E0,1.064657518E0,4.247668285E0
1.143041412E1,3.926438347E0,2.261649220E0,1.392243097E0,4.740286503E0
1.144035713E1,4.262448303E0,2.096796915E0,1.361214262E0,4.941449899E0
1.145030112E1,4.253460255E0,1.915714493E0,1.304109185E0,4.843819456E0
1.146024512E1,4.014842401E0,2.043655665E0,1.258259997E0,4.677467926E0
1.147018812E1,3.835159803E0,2.234441541E0,1.340419225E0,4.636583161E0
1.148013212E1,3.731243086E0,2.125031365E0,1.596088729E0,4.580985975E0
1.149007613E1,3.767375955E0,1.840687115E0,1.860869219E0,4.587383229E0
1.150001912E1,3.719623792E0,1.704215441E0,2.204592090E0,4.647599133E0
1.150996312E1,3.726456263E0,1.513664623E0,2.337160017E0,4.651878525E0
1.151990712E1,3.654834888E0,1.374930076E0,2.480650835E0,4.626216525E0
1.152985012E1,3.351015902E0,1.522002752E0,2.472846264E0,4.434046526E0
1.153979413E1,3.159944974E0,1.504192718E0,2.416829646E0,4.253106336E0
1.154973812E1,3.243994898E0,1.243730251E0,2.617378618E0,4.349832027E0
1.155968212E1,3.403867130E0,9.030498326E-1,2.894402446E0,4.558440079E0
1.156962512E1,3.571970779E0,5.798344624E-1,2.982564132E0,4.689442616E0
1.157956912E1,3.476030834E0,2.095782423E-1,2.990586512E0,4.590241942E0
1.158951313E1,3.244163590E0,-8.373856008E-2,2.944394093E0,4.381902112E0
1.159945612E1,2.975644537E0,-2.499298775E-1,2.862610842E0,4.136600801E0
1.160940012E1,2.733850768E0,-2.248201793E-1,2.890159999E0,3.984659201E0
1.161934412E1,2.822569402E0,-2.988137698E-1,2.933298124E0,4.081718459E0
1.162928712E1,2.876107678E0,-5.679166675E-1,3.101093333E0,4.267470512E0
1.163923113E1,2.629577371E0,-7.261329675E-1,3.130333212E0,4.152220160E0
1.164917512E1,2.323561293E0,-9.246365833E-1,3.135791588E0,4.010870077E0
1.165911812E1,2.163459997E0,-1.199135292E0,3.325535782E0,4.144595619E0
1.166906212E1,2.100076618E0,-1.456431491E0,3.376880768E0,4.234954334E0
1.167900612E1,2.205179150E0,-1.629627188E0,3.263769597E0,4.262709448E0
1.168895013E1,2.066284389E0,-1.831620423E0,3.204770899E0,4.230238890E0
1.169889312E1,1.877099335E0,-2.000516077E0,3.033146641E0,4.089687645E0
1.170883712E1,1.548443862E0,-1.986389789E0,2.922913469E0,3.858347565E0
1.171878112E1,1.159488465E0,-2.107196188E0,2.963144652E0,3.816400857E0
1.172872412E1,1.039065570E0,-2.371391518E0,3.064770722E0,4.011978884E0
1.173866813E1,1.010782150E0,-2.474676150E0,2.985440962E0,4.007313357E0
1.174861212E1,9.223963688E-1,-2.735274857E0,2.878478431E0,4.076540406E0
1.175855512E1,8.158309367E-1,-3.111477696E0,2.899619332E0,4.330665750E0
1.176849912E1,6.401157475E-1,-3.323050423E0,2.948678348E0,4.488553919E0
1.177844312E1,3.901875510E-1,-3.365749131E0,2.837995526E0,4.419811324E0
1.178838613E1,1.515609261E-1,-3.456195032E0,2.634269177E0,4.348290343E0
1.179833012E1,2.097293928E-2,-3.610797168E0,2.447992381E0,4.362449169E0
1.180827412E1,1.955308914E-3,-3.789940653E0,2.364557877E0,4.467078232E0
1.181821812E1,-8.697163180E-2,-4.021548865E0,2.394138356E0,4.681059475E0
1.182816112E1,-2.142669784E-1,-4.206831926E0,2.437703621E0,4.866800195E0
1.183810513E1,-3.160501921E-1,-4.284035053E0,2.435424961E0,4.938029850E0
1.184804912E1,-4.793762277E-1,-4.383980926E0,2.353978509E0,4.999030421E0
1.185799212E1,-6.930772687E-1,-4.386995750E0,2.095878610E0,4.911088979E0
1.186793612E1,-8.384495748E-1,-4.352741007E0,1.887590556E0,4.817919682E0
1.187787579E1,-9.650166506E-1,-4.456165972E0,1.748062834E0,4.883072391E0
1.188781879E1,-1.015775453E0,-4.509466851E0,1.613751121E0,4.896047767E0
1.189776279E1,-1.055546971E0,-4.510343349E0,1.602316014E0,4.901509272E0
1.190770679E1,-1.138677713E0,-4.493326782E0,1.590606380E0,4.900673541E0
1.191764979E1,-1.304614384E0,-4.383470464E0,1.440213069E0,4.794897880E0
1.192759379E1,-1.476626312E0,-4.156316076E0,1.118043181E0,4.550319675E0
1.193753779E1,-1.672343145E0,-4.075212271E0,8.794931549E-1,4.491947780E0
1.194748179E1,-1.815563968E0,-4.054617793E0,8.152866340E-1,4.516734469E0
1.195742479E1,-1.932598913E0,-3.854153606E0,8.730986398E-1,4.399061242E0
1.196736879E1,-2.033373921E0,-3.652328771E0,8.845036340E-1,4.272758083E0
1.197731279E1,-2.135064018E0,-3.429075646E0,7.266703266E-1,4.104279219E0
1.198725579E1,-2.309570076E0,-3.046206982E0,5.210904104E-1,3.858111731E0
1.199719979E1,-2.481220061E0,-2.899662309E0,5.264993772E-1,3.852492192E0
1.200714379E1,-2.538576862E0,-2.869822213E0,7.189803609E-1,3.898356676E0
1.201708679E1,-2.499449633E0,-2.764053683E0,9.366900337E-1,3.842476994E0
1.202703079E1,-2.458472931E0,-2.481208659E0,9.627338246E-1,3.623167396E0
1.203697479E1,-2.551027630E0,-2.136109500E0,8.210464337E-1,3.427072076E0
1.204691879E1,-2.782178005E0,-1.902388689E0,7.893223652E-1,3.461593126E0
1.205686179E1,-3.066588036E0,-1.750335939E0,1.006523623E0,3.671611075E0
1.206680579E1,-3.305133677E0,-1.539289461E0,1.131474236E0,3.817532530E0
1.207674979E1,-3.481552652E0,-1.441275508E0,1.253638358E0,3.971157652E0
1.208669279E1,-3.712781087E0,-1.213031784E0,1.234748343E0,4.096436620E0
1.209663679E1,-3.806954004E0,-7.884292030E-1,9.325607300E-1,3.998023125E0
1.210658079E1,-3.650029061E0,-5.840046966E-1,7.126840791E-1,3.764530812E0
1.211652379E1,-3.609751393E0,-6.042705613E-1,7.592904809E-1,3.737909853E0
1.212646779E1,-3.703341050E0,-5.227662224E-1,1.047047020E0,3.883854647E0
1.213641179E1,-4.076308332E0,-3.982140970E-1,1.176410526E0,4.261315033E0
1.214635479E1,-4.292121460E0,-3.012824643E-1,1.174928842E0,4.460216983E0
1.215629879E1,-4.408099521E0,-1.700686061E-1,1.032945728E0,4.530699901E0
1.216624279E1,-4.567312479E0,9.125223219E-2,4.032039647E-1,4.585983393E0
1.217618679E1,-4.776928436E0,5.272843659E-1,-3.034436683E-1,4.815511618E0
1.218612979E1,-4.909591234E0,8.709737617E-1,-7.010436615E-1,5.035289822E0
1.219607379E1,-4.885242843E0,9.475629312E-1,-7.609331831E-1,5.034132741E0
1.220601779E1,-4.653177671E0,9.645742357E-1,-3.540582633E-1,4.765272621E0
1.221596079E1,-4.398732281E0,1.370275108E0,2.458613849E-1,4.613777994E0
1.222590479E1,-4.079580726E0,2.490497546E0,1.875985587E-1,4.783382710E0
1.223584879E1,-3.947099192E0,3.546287177E0,-2.278741801E-1,5.311089475E0
1.224579179E1,-3.983091143E0,4.275064255E0,-4.156423445E-1,5.857810853E0
1.225573579E1,-3.971464539E0,4.807825123E0,-3.988993907E-1,6.248746572E0
1.226567979E1,-4.044377564E0,4.929731968E0,-1.236201522E-1,6.377658591E0
1.227562379E1,-3.899670964E0,5.273904929E0,1.357338289E-1,6.560482489E0
1.228556679E1,-3.107011300E0,5.857808468E0,1.380983698E-1,6.632232688E0
1.229551079E1,-2.083174949E0,6.347122185E0,2.752869129E-2,6.680294584E0
1.230545479E1,-1.083743999E0,6.723612707E0,-6.144371152E-2,6.810671348E0
1.231539779E1,-5.520756466E-1,6.936632620E0,-2.051985316E-1,6.961592207E0
1.232534179E1,-5.824057389E-1,6.847036904E0,-4.956823580E-1,6.889616231E0
1.233528579E1,-8.396072504E-1,6.557379289E0,-6.555366093E-1,6.643334383E0
1.234522879E1,-1.021495418E0,6.074279993E0,-4.045268241E-1,6.172841507E0
1.235517279E1,-1.098019099E0,5.568132727E0,-5.740942508E-3,5.675366153E0
1.236511679E1,-8.856993896E-1,5.004454706E0,2.307953759E-1,5.087464675E0
1.237505979E1,-5.262552559E-1,4.448365202E0,3.682167113E-1,4.494494533E0
1.238500379E1,-4.128569868E-1,3.857850215E0,4.996703053E-1,3.911921470E0
1.239494779E1,-4.189375064E-1,3.382994324E0,5.787737775E-1,3.457620326E0
1.240489179E1,-3.983865899E-1,3.012384932E0,6.245744330E-1,3.102139274E0
1.241483479E1,-3.613486083E-1,2.640673925E0,5.862218146E-1,2.728990218E0
1.242477879E1,1.362029949E-1,2.311442939E0,5.754993367E-1,2.385900082E0
1.243472279E1,7.347678432E-1,1.949906087E0,5.908272278E-1,2.165893429E0
1.244466579E1,1.249374276E0,1.744940713E0,5.687287726E-1,2.220181657E0
1.245460979E1,1.753149911E0,1.711498148E0,6.952549180E-1,2.546790122E0
1.246455379E1,1.946855010E0,1.681731142E0,7.738040742E-1,2.686491543E0
1.247449679E1,1.972399741E0,1.841197577E0,6.269851669E-1,2.770104629E0
1.248444079E1,2.183263786E0,2.014977996E0,7.250277706E-1,3.058176311E0
1.249438479E1,2.799768476E0,2.085755618E0,1.014882510E0,3.635803422E0
1.250432779E1,3.423593589E0,2.113753256E0,1.106416066E0,4.172900957E0
1.251427179E1,3.739614837E0,2.181178669E0,1.166742886E0,4.483698081E0
1.252421579E1,3.770144320E0,2.284253386E0,1.173802814E0,4.561755668E0
1.253415879E1,3.614915654E0,2.231823158E0,1.305744651E0,4.444504347E0
1.254410279E1,3.397943316E0,2.183189526E0,1.422298955E0,4.281970294E0
1.255404679E1,3.459841648E0,2.339150555E0,1.488543230E0,4.433721969E0
1.256399079E1,3.694548884E0,2.289733981E0,1.655353768E0,4.651104091E0
1.257393379E1,3.867703359E0,2.163095570E0,1.818309821E0,4.790027382E0
1.258387779E1,3.734052966E0,2.084620673E0,1.861900814E0,4.664275886E0
1.259382179E1,3.397943023E0,1.964123592E0,2.002824558E0,4.406257424E0
1.260376479E1,3.333338014E0,1.826847340E0,2.168803622E0,4.376325248E0
1.261370879E1,3.396422455E0,1.696798832E0,2.177400198E0,4.376743469E0
1.262365279E1,3.536322352E0,1.701560805E0,1.911020787E0,4.364961099E0
1.263359579E1,3.715928351E0,1.586806859E0,1.974051579E0,4.496994458E0
1.264353979E1,3.772640496E0,1.578746472E0,2.216101603E0,4.651490411E0
1.265348379E1,3.635894587E0,1.747312928E0,2.319667633E0,4.653352538E0
1.266342679E1,3.534453874E0,1.777528415E0,2.302896795E0,4.577696484E0
1.267337079E1,3.482879678E0,1.614140253E0,2.160281889E0,4.404851581E0
1.268331479E1,3.412903417E0,1.254950473E0,2.272402542E0,4.287962656E0
1.269325779E1,3.298240103E0,9.249377149E-1,2.625318259E0,4.315807400E0
1.270320179E1,3.176839042E0,6.650096834E-1,2.782004635E0,4.274820928E0
1.271314579E1,3.158895106E0,6.369611746E-1,2.624875333E0,4.156237282E0
1.272308979E1,3.180198267E0,5.939753687E-1,2.392034235E0,4.023468098E0
1.273303279E1,3.114719684E0,1.901087683E-1,2.388654252E0,3.929795057E0
1.274297679E1,3.021158387E0,-1.334053946E-1,2.554337739E0,3.958514403E0
1.275292079E1,2.626528341E0,-5.516742718E-1,2.593927774E0,3.732486695E0
1.276286379E1,2.348609304E0,-9.733643550E-1,2.578936975E0,3.621369872E0
1.277280779E1,2.201106711E0,-9.680463123E-1,2.337002580E0,3.353142627E0
1.278275179E1,2.219040560E0,-1.031355286E0,2.184608645E0,3.280297191E0
1.279269479E1,2.296931027E0,-1.125398394E0,2.288258729E0,3.431988010E0
1.280263879E1,2.575561085E0,-1.081152513E0,2.475827759E0,3.732576691E0
1.281258279E1,2.550239718E0,-1.184966319E0,2.475192167E0,3.746257340E0
1.282252579E1,2.103736975E0,-1.354514523E0,2.374797813E0,3.449649766E0
1.283246979E1,1.749982767E0,-1.483389494E0,2.371556117E0,3.299570046E0
1.284241379E1,1.596591297E0,-1.668534561E0,2.539444588E0,3.432475808E0
1.285235779E1,1.552945925E0,-1.879164133E0,2.632271476E0,3.587722398E0
1.286230079E1,1.443027919E0,-1.917883226E0,2.509039652E0,3.472158639E0
1.287224479E1,1.306236402E0,-2.004409738E0,2.512188962E0,3.469150518E0
1.288218912E1,1.270031320E0,-2.061192634E0,2.591015861E0,3.546104598E0
1.289213212E1,1.150647256E0,-2.200205508E0,2.756414881E0,3.709813524E0
1.290207612E1,9.033876555E-1,-2.216815694E0,2.644959641E0,3.567378951E0
1.291202012E1,7.550182859E-1,-2.143587504E0,2.226065989E0,3.181256008E0
1.292196313E1,7.808427331E-1,-2.155295384E0,2.090557351E0,3.102489904E0
1.293190712E1,9.485194626E-1,-2.190125493E0,2.232521900E0,3.268102336E0
1.294185112E1,1.103861856E0,-2.324098653E0,2.388095258E0,3.510405177E0
1.295179412E1,9.676244357E-1,-2.444233207E0,2.336253260E0,3.516909483E0
1.296173812E1,7.013942020E-1,-2.525974942E0,2.166062447E0,3.400636670E0
1.297168213E1,4.766819404E-1,-2.527190579E0,2.052682596E0,3.290505088E0
1.298162612E1,2.812297488E-1,-2.715034720E0,2.058142142E0,3.418545419E0
1.299156912E1,6.249416381E-2,-2.743244612E0,1.891354408E0,3.332644299E0
1.300151312E1,-1.247290036E-1,-2.758724531E0,1.719290732E0,3.253010757E0
1.301145712E1,-2.407751843E-1,-2.866976373E0,1.733924559E0,3.359169628E0
1.302140012E1,-2.653352442E-1,-2.980304768E0,1.696060329E0,3.439366212E0
1.303134412E1,-2.045242015E-1,-3.146242316E0,1.659438048E0,3.562920922E0
1.304128812E1,-2.967186942E-1,-3.151485515E0,1.577441373E0,3.536696795E0
1.305123112E1,2.094753496E-1,-2.695714935E0,1.057853113E0,2.903413877E0
1.306117512E1,-3.878186247E-1,-3.260652446E0,1.469721628E0,3.597546292E0
1.307111913E1,-7.790564087E-1,-3.366668313E0,1.620357597E0,3.816666499E0
1.308106212E1,-5.201794142E-1,-2.950249495E0,1.082453519E0,3.185320129E0
1.309100612E1,-9.731760746E-1,-3.582297839E0,1.195683680E0,3.899947300E0
1.310095012E1,-6.734241191E-1,-3.406055743E0,8.344731027E-1,3.570862798E0
1.311089412E1,-5.221917334E-1,-3.265358870E0,7.872574210E-1,3.399268598E0
1.312083712E1,-4.380415659E-1,-3.451534216E0,1.102399541E0,3.649692262E0
1.313078112E1,-4.397840362E-1,-3.449770696E0,1.228416393E0,3.688269878E0
1.314072512E1,-5.850133413E-1,-3.443726429E0,1.269835145E0,3.716715435E0
1.315066813E1,-6.188794642E-1,-3.505746092E0,1.254080992E0,3.774385590E0
1.316061212E1,-7.404623734E-1,-3.389698157E0,1.190704191E0,3.668257705E0
1.317055612E1,-1.070127003E0,-3.229427730E0,1.055511303E0,3.562089187E0
1.318049912E1,-1.434947944E0,-3.206430046E0,9.068169013E-1,3.628027857E0
1.319044312E1,-1.761164982E0,-3.269805678E0,9.330700225E-1,3.829353853E0
1.320038712E1,-1.952981138E0,-3.218995128E0,9.076685482E-1,3.872973941E0
1.321033012E1,-2.139973925E0,-3.150361095E0,8.102796632E-1,3.893689325E0
1.322027412E1,-2.123006182E0,-2.927394483E0,6.234450433E-1,3.669533680E0
1.323021812E1,-1.962693948E0,-2.755013888E0,5.728704286E-1,3.430808882E0
1.324016112E1,-1.983173236E0,-2.623271441E0,7.613817376E-1,3.375534223E0
1.325010513E1,-2.260646423E0,-2.263074186E0,7.849047938E-1,3.293645785E0
1.326004912E1,-2.533989721E0,-1.816135826E0,6.725400200E-1,3.189320198E0
1.326999312E1,-2.593307092E0,-1.285427331E0,8.917261147E-1,3.028653259E0
1.327993612E1,-2.331149225E0,-5.438904583E-1,1.021974013E0,2.602787818E0
1.328988012E1,-1.767919978E0,5.868207157E-2,9.247690228E-1,1.996041678E0
1.329982413E1,-1.452395451E0,3.859612566E-1,8.721221548E-1,1.737531493E0
1.330976712E1,-1.598594846E0,5.487284446E-1,9.325934744E-1,1.930372755E0
1.331971112E1,-1.925040510E0,5.623904639E-1,9.380606210E-1,2.214050977E0
1.332965512E1,-2.288858653E0,4.638397372E-1,9.005752909E-1,2.503009607E0
1.333959812E1,-2.761304322E0,3.722904664E-1,9.297634220E-1,2.937322211E0
1.334954213E1,-3.171047082E0,4.763755828E-1,7.245553887E-1,3.287469210E0
1.335948612E1,-3.378218611E0,6.168917763E-1,2.227265838E-1,3.441296787E0
1.336942912E1,-3.537261415E0,5.828294063E-1,-1.229859486E-2,3.584976944E0
1.337937312E1,-3.570545813E0,5.995781708E-1,-1.001709902E-1,3.621922916E0
1.338931712E1,-3.537586812E0,6.782863712E-1,7.332861587E-2,3.602772535E0
1.339926113E1,-3.575270948E0,8.042254561E-1,2.699182919E-1,3.674533551E0
1.340920412E1,-3.494430560E0,1.182276599E0,2.339354038E-1,3.696423767E0
1.341914812E1,-2.999457323E0,1.613187157E0,3.044189107E-1,3.419325651E0
1.342909212E1,-2.372051814E0,1.935158824E0,2.211251045E-1,3.069261442E0
1.343903512E1,-2.167044779E0,2.141754402E0,1.071209177E-1,3.048716104E0
1.344897913E1,-2.330337924E0,2.352131959E0,-4.337223373E-2,3.311326130E0
1.345892312E1,-2.757678464E0,2.440115013E0,-3.687721237E-1,3.700668138E0
1.346886612E1,-3.288779308E0,2.399563403E0,-4.719790248E-1,4.098382371E0
1.347881012E1,-3.449356129E0,2.660105392E0,-5.256412983E-1,4.387541130E0
1.348875412E1,-2.873130568E0,3.296193577E0,-5.983795281E-1,4.413369395E0
1.349869713E1,-1.971580984E0,3.628359280E0,-5.692918960E-1,4.168478848E0
1.350864112E1,-1.517188886E0,3.850824786E0,-8.280394113E-1,4.220943368E0
1.351858512E1,-1.556896304E0,4.052866552E0,-1.192524430E0,4.502418006E0
1.352852812E1,-1.895809402E0,4.062032647E0,-1.201680000E0,4.640930654E0
1.353847212E1,-2.107421598E0,3.940585393E0,-9.242401421E-1,4.563294739E0
1.354841613E1,-2.087292558E0,3.877133163E0,-7.316024530E-1,4.463652533E0
1.355836012E1,-2.064859569E0,4.012332484E0,-7.235368768E-1,4.570116258E0
1.356830312E1,-1.823867599E0,4.248934218E0,-6.235774827E-1,4.665702936E0
1.357824712E1,-1.470188820E0,4.270172474E0,-3.880036891E-1,4.532810937E0
1.358819112E1,-1.318976608E0,4.161536470E0,-1.132260686E-1,4.367024757E0
1.359813413E1,-1.491316857E0,3.793919098E0,2.247307169E-1,4.082689308E0
1.360807812E1,-1.815943453E0,3.420939830E0,4.563524141E-1,3.899838134E0
1.361802212E1,-1.920679657E0,3.133548011E0,5.207027400E-1,3.712043214E0
1.362796512E1,-1.444283316E0,3.068053933E0,4.868953085E-1,3.425781119E0
1.363790912E1,-4.905706490E-1,3.104804268E0,4.311397318E-1,3.172751263E0
1.364785313E1,3.193517493E-1,2.963650728E0,3.292438130E-1,2.998935256E0
1.365779612E1,5.644648368E-1,2.614294211E0,2.130912860E-1,2.683013729E0
1.366774012E1,2.279790645E-1,2.329732445E0,1.403518502E-1,2.345064255E0
1.367768412E1,-1.321275587E-1,2.220783030E0,1.496828552E-1,2.229739876E0
1.368762712E1,-1.905663861E-1,2.271768996E0,2.336582275E-1,2.291690661E0
1.369757112E1,3.720953887E-1,2.513906874E0,1.375902285E-1,2.545017450E0
1.370751512E1,1.050475681E0,2.598697348E0,2.089987832E-1,2.810766364E0
1.371745912E1,1.556910045E0,2.658716093E0,4.280945385E-1,3.110627764E0
1.372740212E1,1.825690469E0,2.595914658E0,7.556830412E-1,3.262357347E0
1.373734612E1,2.018767576E0,2.555864155E0,9.635474646E-1,3.396511125E0
1.374729013E1,2.325155537E0,2.582473664E0,8.965909982E-1,3.588787248E0
1.375723312E1,2.752291424E0,2.565858216E0,8.810537767E-1,3.864581766E0
1.376717712E1,3.221368220E0,2.453530279E0,9.592731500E-1,4.161397484E0
1.377712112E1,3.437801446E0,2.312972571E0,1.084108865E0,4.282944422E0
1.378706412E1,3.621453426E0,2.397250244E0,1.086043124E0,4.476742490E0
1.379700812E1,3.723793733E0,2.463540713E0,1.144402941E0,4.609265744E0
1.380695212E1,3.969739318E0,2.481134984E0,1.084927475E0,4.805406194E0
1.381689512E1,4.230022568E0,2.373142174E0,1.192563167E0,4.994707360E0
1.382683913E1,4.338279088E0,2.211705812E0,1.364291213E0,5.057034562E0
1.383678312E1,4.308116811E0,2.030056795E0,1.411563759E0,4.967244034E0
1.384672612E1,4.131411030E0,1.931383277E0,1.396639034E0,4.769633010E0
1.385667012E1,3.992545798E0,1.860213307E0,1.400332281E0,4.621876891E0
1.386661412E1,3.934206373E0,1.715253230E0,1.546506679E0,4.561990392E0
1.387655825E1,3.840959656E0,1.535043797E0,1.678635042E0,4.463983215E0
1.388650125E1,3.627072600E0,1.383958762E0,1.755373754E0,4.260555658E0
1.389644525E1,3.373546978E0,1.270940269E0,1.837455067E0,4.046276004E0
1.390638925E1,3.078540622E0,1.233273675E0,1.851752532E0,3.798336973E0
1.391633225E1,3.086311572E0,1.264879045E0,1.816382871E0,3.797957985E0
1.392627625E1,3.211493150E0,1.234842483E0,2.075672679E0,4.018325681E0
1.393622025E1,3.238162885E0,1.101444690E0,2.247458174E0,4.092669975E0
1.394616325E1,3.264295846E0,8.900988346E-1,2.254235828E0,4.065646624E0
1.395610725E1,3.202010136E0,6.940814549E-1,2.088381310E0,3.885351267E0
1.396605125E1,3.086511254E0,4.806691933E-1,1.979326937E0,3.698016998E0
1.397599425E1,2.955069355E0,2.597064221E-1,1.949298854E0,3.549598335E0
1.398593825E1,2.720496604E0,1.612691313E-1,2.047582655E0,3.408768727E0
1.399588225E1,2.652164873E0,2.545567793E-1,2.106197191E0,3.396298614E0
1.400582525E1,2.709243930E0,1.924593490E-1,2.162096573E0,3.471556548E0
1.401576925E1,2.825859337E0,2.792981029E-2,2.161787255E0,3.558031086E0
1.402571325E1,2.875261878E0,-1.935673964E-1,2.080746308E0,3.554448537E0
1.403565625E1,2.921391147E0,-4.114042461E-1,2.165647295E0,3.659755168E0
1.404560025E1,2.885125546E0,-4.995907831E-1,2.283542072E0,3.713233734E0
1.405554425E1,2.761194102E0,-5.746093905E-1,2.264911966E0,3.617208183E0
1.406548825E1,2.542728385E0,-7.594281828E-1,2.293320664E0,3.507352060E0
1.407543125E1,2.386046686E0,-9.214685619E-1,2.364198273E0,3.483067122E0
1.408537525E1,2.230502418E0,-1.042186668E0,2.532695147E0,3.532115343E0
1.409531925E1,2.048735726E0,-1.119419031E0,2.538690298E0,3.448965855E0
1.410526225E1,1.885591685E0,-1.247054393E0,2.471962457E0,3.349805823E0
1.411520625E1,1.736599660E0,-1.391004072E0,2.424208247E0,3.290510041E0
1.412515025E1,1.630444922E0,-1.472054082E0,2.385085404E0,3.242518504E0
1.413509325E1,1.609533232E0,-1.646980555E0,2.405235202E0,3.329909691E0
1.414503725E1,1.442335024E0,-1.891076081E0,2.475178426E0,3.432638534E0
1.415498125E1,1.239913189E0,-2.127925152E0,2.491119105E0,3.503016495E0
1.416492425E1,1.045472365E0,-2.471042690E0,2.515105846E0,3.677610890E0
1.417486825E1,8.678053748E-1,-2.874924493E0,2.567978124E0,3.951302147E0
1.418481225E1,8.382449222E-1,-3.100063346E0,2.461775438E0,4.046404034E0
1.419475525E1,8.100639009E-1,-3.220865067E0,2.288092668E0,4.033056330E0
1.420469925E1,8.253537121E-1,-3.370330424E0,2.164303020E0,4.089565194E0
1.421464325E1,7.603616908E-1,-3.485573198E0,2.159021230E0,4.169981185E0
1.422458725E1,6.000876825E-1,-3.517191432E0,2.140792535E0,4.160977466E0
1.423453025E1,3.727499479E-1,-3.603256014E0,2.176198888E0,4.225900854E0
1.424447425E1,2.246825505E-1,-3.676861349E0,2.178569056E0,4.279714332E0
1.425441825E1,9.121188641E-2,-3.792786493E0,2.125997325E0,4.348955462E0
1.426436125E1,-9.280664138E-2,-3.873357031E0,2.029189069E0,4.373684493E0
1.427430525E1,-2.252671624E-1,-3.865244020E0,1.904263306E0,4.314750904E0
1.428424925E1,-3.658161369E-1,-3.956303294E0,1.915678825E0,4.410893624E0
1.429419225E1,-5.041794221E-1,-4.088578421E0,1.881713811E0,4.528964260E0
1.430413625E1,-7.220668137E-1,-4.199030571E0,1.811754507E0,4.629869611E0
1.431408025E1,-9.275003303E-1,-4.200292985E0,1.783137357E0,4.656425330E0
1.432402325E1,-1.051778806E0,-4.225701476E0,1.790408954E0,4.708328349E0
1.433396725E1,-1.083286454E0,-4.259112466E0,1.896371319E0,4.786415435E0
1.434391125E1,-1.008217269E0,-4.328083883E0,1.922201394E0,4.841866413E0
1.435385425E1,-1.012553271E0,-4.327405021E0,1.896825063E0,4.832146900E0
1.436379825E1,-1.230983029E0,-4.253634210E0,1.795577601E0,4.778370237E0
1.437374225E1,-1.572343771E0,-4.092962664E0,1.536336617E0,4.645959374E0
1.438368525E1,-2.008697794E0,-4.036977328E0,1.394703605E0,4.719878274E0
1.439362925E1,-2.361458852E0,-3.838369632E0,1.271834309E0,4.682641546E0
1.440357325E1,-2.442281406E0,-3.613942385E0,1.124150598E0,4.504334867E0
1.441351725E1,-2.378378648E0,-3.482453708E0,1.079327305E0,4.353058264E0
1.442346025E1,-2.255711957E0,-3.337225828E0,1.088884286E0,4.172646840E0
1.443340425E1,-2.321579964E0,-3.039295573E0,9.521793079E-1,3.941281079E0
1.444334825E1,-2.682348492E0,-2.638414561E0,6.740857315E-1,3.822383602E0
1.445329125E1,-3.022935063E0,-2.440880998E0,4.848791885E-1,3.915500513E0
1.446323525E1,-3.078395027E0,-2.280290143E0,4.755280289E-1,3.860358272E0
1.447317925E1,-2.961153675E0,-1.991575685E0,5.077888718E-1,3.604532471E0
1.448312225E1,-2.904955208E0,-1.670423212E0,6.802112746E-1,3.419322425E0
1.449306625E1,-2.946437403E0,-1.273237056E0,9.078024495E-1,3.335675532E0
1.450301025E1,-2.960776237E0,-7.013916439E-1,1.034052314E0,3.213628845E0
1.451295325E1,-3.080852319E0,-7.186520398E-2,9.037225547E-1,3.211468523E0
1.452289725E1,-3.208663975E0,6.432919550E-1,6.100821090E-1,3.328896097E0
1.453284125E1,-3.270713458E0,1.124648781E0,4.089492926E-1,3.482763404E0
1.454278525E1,-3.217515782E0,1.109255401E0,5.664785448E-1,3.450181632E0
1.455272825E1,-3.376029998E0,9.689105308E-1,6.896226606E-1,3.579377820E0
1.456267225E1,-3.704606388E0,1.023718822E0,7.256105188E-1,3.911344953E0
1.457261625E1,-3.866803764E0,1.207028448E0,5.358460052E-1,4.086100827E0
1.458255925E1,-3.806614865E0,1.316095392E0,1.392952949E-3,4.027707258E0
1.459250325E1,-3.717136971E0,1.329345767E0,-2.380464350E-1,3.954862012E0
1.460244725E1,-3.743951425E0,1.307309951E0,-4.781677544E-1,3.994355515E0
1.461239025E1,-3.848665409E0,1.322154862E0,-4.983231068E-1,4.099834732E0
1.462233425E1,-3.837747488E0,1.563740762E0,-3.196966620E-1,4.156416354E0
1.463227825E1,-3.342383365E0,2.097379298E0,-4.296744561E-1,3.969275326E0
1.464222125E1,-2.921151119E0,2.417349463E0,-4.676790190E-1,3.820396046E0
1.465216525E1,-2.918760777E0,2.547330728E0,-4.441965278E-1,3.899406220E0
1.466210925E1,-3.001187514E0,2.818073770E0,-6.174553748E-1,4.162921739E0
1.467205225E1,-3.306842234E0,2.822339898E0,-5.912610181E-1,4.387527510E0
1.468199625E1,-3.565446748E0,2.929681914E0,-7.065307617E-1,4.668472164E0
1.469194025E1,-3.456428921E0,3.143002959E0,-8.511932158E-1,4.748673328E0
1.470188325E1,-3.107282318E0,3.349506735E0,-6.792932618E-1,4.619073296E0
1.471182725E1,-2.642733606E0,3.659427291E0,-4.574136472E-1,4.537033861E0
1.472177125E1,-2.298863239E0,4.025349555E0,-3.939152241E-1,4.652244666E0
1.473171525E1,-2.302903081E0,4.318318448E0,-5.000304937E-1,4.919478358E0
1.474165825E1,-2.301531031E0,4.597900141E0,-6.746505725E-1,5.185834956E0
1.475160225E1,-1.726314261E0,4.915040839E0,-5.866617445E-1,5.242323853E0
1.476154625E1,-8.554561284E-1,5.072082433E0,-2.669593267E-1,5.150640026E0
1.477148925E1,-2.412292206E-1,4.971248953E0,7.022622943E-2,4.977593738E0
1.478143325E1,-6.805654697E-2,4.679165913E0,3.391677805E-1,4.691935648E0
1.479137725E1,-1.240767467E-1,4.383000348E0,5.394044745E-1,4.417809896E0
1.480132025E1,-1.670358746E-1,4.047499393E0,5.754806622E-1,4.091617078E0
1.481126425E1,-3.804366611E-2,3.798833098E0,5.211565204E-1,3.834603545E0
1.482120825E1,2.062134255E-1,3.958363853E0,4.954286985E-1,3.994573564E0
1.483115125E1,3.634643868E-1,3.836155876E0,5.046299136E-1,3.886238492E0
1.484109525E1,4.991665676E-1,3.654143162E0,5.850484246E-1,3.734194849E0
1.485103925E1,8.933995879E-1,3.604669286E0,6.883476752E-1,3.776986366E0
1.486098225E1,1.197401300E0,3.367804427E0,6.204036140E-1,3.627778546E0
1.487092625E1,1.260102163E0,3.090255811E0,3.004188305E-1,3.350789446E0
1.488086975E1,9.575286332E-1,2.745655419E0,3.309873065E-2,2.908019995E0
1.489081375E1,6.690366608E-1,2.626636514E0,1.861753464E-2,2.710567476E0
1.490075675E1,8.299301085E-1,2.796323882E0,2.947593105E-1,2.931739123E0
1.491070075E1,1.238497286E0,3.154616699E0,4.149418116E-1,3.414331376E0
1.492064475E1,1.896716013E0,3.563129497E0,3.541448021E-1,4.052017026E0
1.493058775E1,2.704985988E0,3.672910970E0,5.289087224E-1,4.592054946E0
1.494053175E1,3.264347302E0,3.514042706E0,9.522202384E-1,4.889906219E0
1.495047575E1,3.486505828E0,3.393367285E0,1.029973004E0,4.973078404E0
1.496041875E1,3.639779477E0,3.486956649E0,9.469530666E-1,5.128701729E0
1.497036275E1,3.894303512E0,3.403814505E0,8.018017852E-1,5.233969729E0
1.498030675E1,4.264142826E0,3.195070660E0,7.510211293E-1,5.381024372E0
1.499024975E1,4.463486686E0,3.115091275E0,8.926758488E-1,5.515739046E0
1.500019375E1,4.784610507E0,3.198341593E0,8.988234651E-1,5.824926632E0
1.501013775E1,4.929263021E0,2.992586845E0,7.847164404E-1,5.819707024E0
1.502008075E1,4.927734559E0,2.813888918E0,7.917284945E-1,5.729517670E0
1.503002475E1,4.687081289E0,2.683785446E0,1.064961573E0,5.505050271E0
1.503996875E1,4.435652186E0,2.404612473E0,1.440293030E0,5.247057792E0
1.504991275E1,4.419453352E0,2.164802372E0,1.797712565E0,5.239246864E0
1.505985575E1,4.571353489E0,1.935283955E0,2.086932077E0,5.384968171E0
1.506979975E1,4.569701651E0,1.775595326E0,2.145832396E0,5.351589354E0
1.507974375E1,4.429057111E0,1.703844143E0,2.042161117E0,5.166241746E0
1.508968675E1,4.190322313E0,1.653293794E0,2.088729219E0,4.965377247E0
1.509963075E1,4.095769035E0,1.494380506E0,2.297990542E0,4.928413296E0
1.510957475E1,3.956737157E0,1.296915940E0,2.470033461E0,4.841366045E0
1.511951775E1,3.740583428E0,1.035154222E0,2.442402151E0,4.585720981E0
1.512946175E1,3.611545904E0,7.281543499E-1,2.598882997E0,4.508621231E0
1.513940575E1,3.425509721E0,5.411019212E-1,2.733714528E0,4.415892125E0
1.514934875E1,3.328050962E0,3.791971976E-1,2.692557439E0,4.297624842E0
1.515929275E1,3.284997036E0,2.924391353E-1,2.611392238E0,4.206672747E0
1.516923675E1,3.092307014E0,1.026168805E-1,2.703589380E0,4.108806205E0
1.517917975E1,2.922706770E0,-1.176220053E-1,2.922128188E0,4.134595863E0
1.518912375E1,2.774123173E0,-3.119115329E-1,3.082484862E0,4.158697044E0
1.519906775E1,2.641796005E0,-5.567560869E-1,3.236896671E0,4.215040158E0
1.520901175E1,2.508926216E0,-7.588288432E-1,3.313081798E0,4.224576070E0
1.521895475E1,2.384332283E0,-9.086315846E-1,3.353536636E0,4.213888912E0
1.522889875E1,2.378480389E0,-1.159259035E0,3.416857012E0,4.321569427E0
1.523884275E1,2.281846965E0,-1.543144530E0,3.504990631E0,4.457923276E0
1.524878575E1,1.833616662E0,-1.917250557E0,3.606745048E0,4.477344034E0
1.525872975E1,1.557501491E0,-2.094476155E0,3.502191277E0,4.367835276E0
1.526867375E1,1.412237943E0,-2.211184825E0,3.348324428E0,4.253825433E0
1.527861675E1,1.184693181E0,-2.543103776E0,3.406750392E0,4.413255372E0
1.528856075E1,1.025200433E0,-2.879453747E0,3.495566674E0,4.643412127E0
1.529850475E1,9.045839227E-1,-3.031436330E0,3.403733813E0,4.646857236E0
1.530844775E1,6.704300523E-1,-3.258504764E0,3.342932711E0,4.716198560E0
1.531839175E1,4.738593797E-1,-3.440019879E0,3.142507700E0,4.683335790E0
1.532833575E1,3.260301467E-1,-3.675050467E0,3.050153852E0,4.787037718E0
1.533827875E1,2.289702407E-1,-3.880191257E0,2.982505660E0,4.899352159E0
1.534822275E1,-6.022836775E-2,-4.063568126E0,2.887247500E0,4.985219303E0
1.535816675E1,-2.900857041E-1,-4.123156516E0,2.841093673E0,5.015613884E0
1.536811075E1,-2.470325091E-1,-4.108643727E0,2.720832819E0,4.934056097E0
1.537805375E1,-1.705178916E-1,-4.283693576E0,2.686947035E0,5.059524817E0
1.538799775E1,-1.560588236E-1,-4.430242926E0,2.686541823E0,5.183523291E0
1.539794175E1,-2.732031845E-1,-4.328706611E0,2.453606878E0,4.983224621E0
1.540788475E1,-3.453517592E-1,-4.217133551E0,2.192343342E0,4.765485553E0
1.541782875E1,-3.922219070E-1,-4.154985250E0,1.965645037E0,4.613187712E0
1.542777275E1,-6.705909238E-1,-4.138288525E0,1.766869526E0,4.549390292E0
1.543771575E1,-8.763775391E-1,-4.166103730E0,1.704071599E0,4.585664390E0
1.544765975E1,-9.727410418E-1,-4.260929196E0,1.783921761E0,4.720605850E0
1.545760375E1,-1.040028461E0,-4.270812160E0,1.745722486E0,4.729592234E0
1.546754675E1,-1.109936309E0,-4.176660293E0,1.681487314E0,4.637224321E0
1.547749075E1,-1.210826141E0,-4.139519949E0,1.637049644E0,4.613204623E0
1.548743475E1,-1.328800807E0,-3.965291634E0,1.342042412E0,4.392075496E0
1.549737875E1,-1.632069863E0,-3.857572473E0,1.114593324E0,4.334378352E0
1.550732175E1,-1.906615349E0,-3.709699312E0,1.079553300E0,4.308420407E0
1.551726575E1,-2.118339812E0,-3.495261449E0,1.213475880E0,4.263418800E0
1.552720975E1,-2.181784733E0,-3.127428315E0,1.174781931E0,3.990125947E0
1.553715275E1,-2.211143895E0,-2.826318344E0,9.676451933E-1,3.716661126E0
1.554709675E1,-2.190720155E0,-2.703250242E0,9.522173148E-1,3.607427682E0
1.555704075E1,-2.209197064E0,-2.559037439E0,9.619593608E-1,3.514909685E0
1.556698375E1,-2.276208202E0,-2.393464757E0,8.452755412E-1,3.409441019E0
1.557692775E1,-2.433920472E0,-2.175690472E0,9.010003835E-1,3.386650201E0
1.558687175E1,-2.559944049E0,-1.841799256E0,1.183109828E0,3.368276547E0
1.559681475E1,-2.565174384E0,-1.518282754E0,1.463655726E0,3.320781568E0
1.560675875E1,-2.562620612E0,-1.074435232E0,1.379982655E0,3.102545342E0
1.561670275E1,-2.619631550E0,-5.978532422E-1,1.028725208E0,2.877181522E0
1.562664675E1,-2.731251388E0,-3.792153239E-1,8.642269519E-1,2.889710475E0
1.563658975E1,-2.739845041E0,-3.080991483E-1,9.105026937E-1,2.903565238E0
1.564653375E1,-2.691903135E0,-2.764832532E-1,1.030630816E0,2.895683919E0
1.565647775E1,-2.686290685E0,-2.502093744E-1,1.028782803E0,2.887413450E0
1.566642075E1,-2.875087046E0,2.456766129E-2,9.121001530E-1,3.016397815E0
1.567636475E1,-2.823862513E0,2.571745777E-1,7.878725481E-1,2.942971527E0
1.568630875E1,-2.704699474E0,1.794650817E-1,6.655730626E-1,2.791163640E0
1.569625175E1,-2.816812525E0,2.651478410E-2,5.996293339E-1,2.880050551E0
1.570619575E1,-3.192387665E0,1.141300482E-1,5.419879206E-1,3.240079564E0
1.571613975E1,-3.488478679E0,2.039122903E-1,3.591652215E-1,3.512842634E0
1.572608275E1,-3.322751046E0,4.075953698E-1,-1.553606661E-1,3.351260276E0
1.573602675E1,-3.031683667E0,7.572518492E-1,-6.494442491E-1,3.191600547E0
1.574597075E1,-2.896316532E0,8.199532968E-1,-6.171255188E-1,3.072753939E0
1.575591475E1,-2.820669641E0,1.016996278E0,-5.868403769E-1,3.055297086E0
1.576585775E1,-2.813554164E0,1.205667216E0,-5.313539549E-1,3.106776062E0
1.577580175E1,-2.702980978E0,1.234693964E0,-1.004983612E-1,2.973327306E0
1.578574575E1,-2.352942090E0,1.596472891E0,6.932349242E-2,2.844269312E0
1.579568875E1,-2.068342609E0,1.913528804E0,-7.067525905E-2,2.818621760E0
1.580563275E1,-2.003353439E0,2.053690072E0,6.780555524E-2,2.869784923E0
1.581557675E1,-2.230121618E0,2.274921815E0,1.642062243E-1,3.189933444E0
1.582551975E1,-2.531198845E0,2.575845845E0,2.105243218E-1,3.617494976E0
1.583546375E1,-2.901874310E0,2.856867122E0,2.277350163E-1,4.078532518E0
1.584540775E1,-3.309433427E0,3.178440594E0,8.164114555E-2,4.589280935E0
1.585535175E1,-3.302132009E0,3.482223912E0,8.713557310E-3,4.798961878E0
1.586529475E1,-2.906981561E0,3.680531062E0,1.859156935E-1,4.693763451E0
1.587523875E1,-2.711896227E0,3.994609573E0,1.042189445E-1,4.829301024E0
1.588518287E1,-2.692980777E0,4.365318367E0,-4.344557974E-1,5.147514134E0
1.589512588E1,-2.706781960E0,4.538600603E0,-5.494288679E-1,5.312949849E0
1.590506987E1,-2.404304325E0,4.631566654E0,-3.283819699E-1,5.228759287E0
1.591501387E1,-2.049432129E0,4.714329314E0,-3.065051973E-1,5.149661967E0
1.592495687E1,-1.715450573E0,4.696511094E0,-4.388452291E-1,5.019220284E0
1.593490087E1,-1.535178283E0,4.554164722E0,-1.399425817E-1,4.807990495E0
1.594484487E1,-1.335659883E0,4.674672913E0,3.486175022E-1,4.874226947E0
1.595478787E1,-7.319331130E-1,4.930062920E0,4.902690057E-1,5.008154369E0
1.596473187E1,-4.063904414E-2,4.786822509E0,4.913157304E-1,4.812142185E0
1.597467587E1,2.764776801E-1,4.522458780E0,3.844332330E-1,4.547181790E0
1.598461987E1,2.691297766E-1,4.165605547E0,3.372842827E-1,4.187894590E0
1.599456288E1,1.727673885E-1,3.688273945E0,3.027430987E-1,3.704708713E0
1.600450687E1,2.066938108E-1,3.476459143E0,1.871155056E-1,3.487621355E0
1.601445087E1,7.196121526E-1,3.462810572E0,1.713022956E-1,3.540938178E0
1.602439387E1,1.116141082E0,3.163562354E0,2.987365135E-1,3.367958014E0
1.603433787E1,1.091269658E0,2.804890637E0,2.926893961E-1,3.023896168E0
1.604428188E1,7.730536571E-1,2.557690240E0,2.418460653E-1,2.682886662E0
1.605422487E1,4.378544185E-1,2.432560410E0,2.295371282E-1,2.482288044E0
1.606416887E1,6.743696138E-1,2.667119127E0,2.016809563E-1,2.758436880E0
1.607411287E1,1.960484285E0,2.864135796E0,5.422438459E-1,3.512947605E0
1.608405587E1,3.025988187E0,2.828005266E0,7.430518860E-1,4.207890730E0
1.609399988E1,3.239900970E0,2.736227953E0,7.628189832E-1,4.308804302E0
1.610394387E1,3.304758871E0,2.672646500E0,1.016463597E0,4.370087957E0
1.611388787E1,3.363863696E0,2.591591812E0,1.054759351E0,4.375436478E0
1.612383087E1,3.473597515E0,2.707218747E0,7.425133574E-1,4.466121262E0
1.613377487E1,3.944810007E0,2.968462987E0,7.944611907E-1,5.000446688E0
1.614371888E1,4.701585015E0,3.082151570E0,9.945575881E-1,5.709089661E0
1.615366187E1,5.120095090E0,3.112628428E0,7.987927350E-1,6.044989603E0
1.616360587E1,5.227803726E0,3.155286205E0,7.930555201E-1,6.157491364E0
1.617354987E1,5.259896169E0,2.979165730E0,1.084384927E0,6.141484090E0
1.618349287E1,5.226848291E0,2.814237996E0,1.314842334E0,6.080188231E0
1.619343688E1,5.173797088E0,2.615945465E0,1.368449607E0,5.956844913E0
1.620338087E1,4.957562376E0,2.361309164E0,1.640299380E0,5.730949985E0
1.621332487E1,4.836402512E0,2.152256001E0,1.913685948E0,5.628959856E0
1.622326787E1,4.638506130E0,1.904045205E0,2.077925026E0,5.427605335E0
1.623321187E1,4.415392168E0,1.760841047E0,2.092355955E0,5.193669476E0
1.624315588E1,4.235791139E0,1.652641245E0,2.167452038E0,5.036963171E0
1.625309887E1,4.174231945E0,1.517833688E0,2.323599447E0,5.012698457E0
1.626304287E1,3.998193039E0,1.383041918E0,2.267997834E0,4.800225693E0
