"Time (s)","Linear Acceleration x (m/s^2)","Linear Acceleration y (m/s^2)","Linear Acceleration z (m/s^2)","Absolute acceleration (m/s^2)"
1.879408333E-2,1.007048136E-3,-3.823293317E-3,-2.737549424E-2,2.765952644E-2
2.877208334E-2,9.157776679E-3,-1.582656724E-2,8.999449611E-3,2.037977423E-2
3.875008336E-2,4.640496522E-4,-8.277007844E-4,-8.979802966E-2,8.980304317E-2
4.872808332E-2,-8.175935524E-3,-2.269843892E-2,2.067166150E-2,3.177078280E-2
5.870508333E-2,-2.717173705E-4,-2.249305090E-4,-7.198565662E-2,7.198652084E-2
6.868308334E-2,-1.005715839E-2,-9.133332577E-3,-5.342600942E-2,5.512624312E-2
7.866108336E-2,-2.679836035E-3,-1.596381236E-3,1.273640513E-2,1.311281701E-2
8.863908332E-2,-3.425298929E-3,3.000010378E-2,-3.216904163E-2,4.412013304E-2
9.861708333E-2,-8.191522008E-3,6.571005019E-3,-1.330767810E-2,1.695209239E-2
1.085940833E-1,-1.175912526E-2,-5.586004998E-3,-3.187083364E-2,3.442717699E-2
1.185720834E-1,6.109228015E-3,3.188696830E-3,-4.908679068E-2,4.956816997E-2
1.285500833E-1,2.265694424E-2,1.198507904E-2,-3.890737295E-2,4.659144677E-2
1.385280833E-1,3.235534169E-2,1.154675256E-2,3.369165659E-2,4.811780704E-2
1.485060834E-1,2.245275536E-2,6.391696497E-3,2.261761487E-2,3.250440754E-2
1.584840834E-1,3.634296689E-2,-3.811059846E-4,-3.724091649E-3,3.653526164E-2
1.684610833E-1,-1.905326549E-1,4.583033467E-2,-2.932554066E-2,1.981491850E-1
1.784390833E-1,-1.830045292E-1,7.007040570E-2,-1.414371300E-1,2.416712255E-1
1.884135000E-1,1.138040385E-1,3.345720608E-2,8.324037731E-2,1.449127469E-1
1.983915000E-1,3.113260210E-2,-2.048515816E-2,8.400694728E-3,3.820277857E-2
2.083695000E-1,-1.902417879E-2,5.660378840E-5,-1.167449230E-1,1.182848242E-1
2.183475000E-1,-5.480805365E-2,-3.541279365E-2,3.384017587E-2,7.350609636E-2
2.283245000E-1,1.363293678E-1,-3.086014241E-2,-1.089640331E-1,1.772320666E-1
2.383025000E-1,1.682197714E-1,-5.610910025E-2,5.030418098E-2,1.843275162E-1
2.482805000E-1,3.445859658E-2,-1.875811906E-2,-3.426468372E-2,5.208963870E-2
2.582585000E-1,-1.141526422E-1,2.826510699E-2,-7.603192985E-2,1.400378390E-1
2.682365000E-1,-5.443617987E-2,7.489556917E-3,1.063257694E-2,5.596823058E-2
2.782135000E-1,4.664689377E-2,3.704959834E-2,-5.373415768E-2,8.022446720E-2
2.881915000E-1,-4.051727587E-3,1.582481765E-2,2.844494998E-2,3.280177632E-2
2.981695000E-1,-7.477200106E-2,4.336144836E-2,-8.591255486E-2,1.218689231E-1
3.081475000E-1,-5.368927117E-2,2.166095100E-2,-2.946996689E-4,5.789491760E-2
3.181255000E-1,3.901830560E-2,-2.276416984E-3,-2.065061152E-2,4.420472828E-2
3.281035000E-1,9.794579577E-2,-2.307759431E-2,-1.271886349E-2,1.014284169E-1
3.380805000E-1,2.728145914E-2,-3.578723016E-2,-2.499099970E-2,5.147381782E-2
3.480585000E-1,-2.791282595E-2,-1.084192554E-2,-2.933138788E-2,4.191662578E-2
3.580365000E-1,-2.533482055E-3,6.864101272E-3,-2.990266085E-3,7.904182997E-3
3.680145000E-1,5.638889409E-2,1.170624908E-2,-1.586466551E-2,5.973634786E-2
3.779925000E-1,-2.214481951E-2,1.531824777E-2,-2.694396973E-2,3.809224660E-2
3.879705000E-1,-8.930646155E-2,2.836388382E-2,-3.637435913E-2,1.005149142E-1
3.979475000E-1,-4.725253740E-2,2.471471419E-2,-3.293151855E-2,6.267459057E-2
4.079255000E-1,2.920619122E-2,-2.476738938E-3,-4.490076900E-3,2.965293632E-2
4.179035000E-1,3.873210266E-2,-8.248050422E-3,-9.277192354E-3,4.067274776E-2
4.278815000E-1,5.753226229E-3,-4.579881909E-3,-5.980532169E-3,9.478485922E-3
4.378595000E-1,1.310866949E-2,-5.770607991E-3,-2.349411249E-2,2.751564017E-2
4.478365000E-1,2.177953070E-2,1.825441341E-3,-1.870465815E-2,2.876707198E-2
4.578145000E-1,2.966999191E-2,-1.748578778E-2,-2.837069035E-3,3.455589899E-2
4.677925000E-1,-1.373908385E-2,1.057624267E-2,-2.349060416E-2,2.919636652E-2
4.777705000E-1,-6.306509417E-2,6.276241397E-2,1.662714243E-2,9.051402419E-2
4.877485000E-1,-8.198899093E-2,2.774052495E-2,-4.923355579E-2,9.957747925E-2
4.977265000E-1,-2.186047810E-2,-1.059169211E-2,-8.967874646E-3,2.589376798E-2
5.077035000E-1,-9.666354249E-3,7.744952333E-3,-3.396296740E-2,3.615115275E-2
5.176815000E-1,1.320100068E-2,2.122832099E-2,-4.848394275E-2,5.454906723E-2
5.276595000E-1,1.325510798E-2,-2.480501256E-2,1.393625379E-2,3.138798664E-2
5.376375000E-1,8.550020739E-2,-4.334081865E-2,-5.926094592E-2,1.126968133E-1
5.476155000E-1,8.118871724E-2,-4.857980967E-2,-3.876703978E-3,9.469231515E-2
5.575935000E-1,4.742131180E-2,-9.755394096E-4,-2.049449086E-2,5.166968788E-2
5.675705000E-1,-1.559955138E-2,8.778178180E-3,-2.393791616E-2,2.989023662E-2
5.775485000E-1,-2.717311206E-2,5.114573236E-3,-2.139203846E-2,3.495935051E-2
5.875265000E-1,-3.941178210E-2,1.206166386E-2,-4.100301504E-2,5.813793551E-2
5.975045000E-1,-6.380802403E-2,4.086237580E-2,5.699865818E-3,7.598477583E-2
6.074825000E-1,-5.694677785E-2,5.312227854E-2,-2.169200063E-2,8.084216026E-2
6.174595000E-1,-2.346142519E-2,-1.190888251E-2,-1.989456654E-2,3.298565949E-2
6.274375000E-1,2.999782428E-2,-1.774222929E-2,-3.082067370E-2,4.652494051E-2
6.374155000E-1,6.212465633E-2,-1.848632860E-2,-1.645172596E-2,6.687209101E-2
6.473935000E-1,5.041168295E-2,-7.161276871E-3,-2.543363392E-2,5.691653010E-2
6.573715000E-1,3.599125002E-2,-2.408238350E-2,-1.899760365E-2,4.728890163E-2
6.673495000E-1,2.753227728E-2,-2.839037902E-2,-3.231814563E-2,5.107350047E-2
6.773265000E-1,-5.663635922E-3,2.460672799E-3,-3.546511710E-2,3.599869738E-2
6.873045000E-1,-5.494809447E-2,2.747861080E-2,-3.486636221E-2,7.064014688E-2
6.972825000E-1,-1.449940004E-1,4.686689069E-2,-9.998504877E-2,1.822546997E-1
7.072605000E-1,1.702775664E-2,-3.784244423E-2,1.362272608E-1,1.424073793E-1
7.172385000E-1,3.834991860E-2,6.567308940E-2,-2.276654345E-1,2.400317083E-1
7.272165000E-1,8.173379651E-4,1.551909963E-2,2.856136805E-1,2.860361603E-1
7.371935000E-1,4.032180528E-2,-5.015266500E-3,-2.144893187E-1,2.183040740E-1
7.471715000E-1,2.089395847E-2,-2.997853761E-2,5.599118292E-2,6.686017337E-2
7.571495000E-1,6.236610522E-3,-2.804584554E-2,-3.366475940E-2,4.425811551E-2
7.671275000E-1,1.766106035E-2,5.674195171E-2,-7.184006095E-2,9.323388061E-2
7.771055000E-1,-5.114311025E-2,-1.208373710E-2,7.201196909E-2,8.914795634E-2
7.870835000E-1,-9.568767417E-3,2.303104042E-3,-1.496729332E-1,1.499961751E-1
7.970605000E-1,-5.753218006E-2,-1.352964389E-2,4.072410285E-2,7.177364112E-2
8.070385000E-1,-3.879753209E-3,2.042826658E-2,-4.330447912E-3,2.123957013E-2
8.170165000E-1,5.170414602E-2,2.376168199E-2,-4.489959955E-2,7.248386225E-2
8.269945000E-1,-2.771589356E-3,-3.720398310E-2,-1.929990470E-2,4.200362351E-2
8.369725000E-1,1.774749179E-2,-2.739800145E-2,-2.873263299E-2,4.348779308E-2
8.469495000E-1,2.508441582E-2,-2.073070924E-2,-1.340766549E-3,3.256973868E-2
8.569275000E-1,4.077305958E-2,1.795305796E-2,-2.828649044E-2,5.277196433E-2
8.669055000E-1,-3.305360431E-2,-1.427365640E-2,-5.231503844E-3,3.638195510E-2
8.768835000E-1,-3.578397308E-2,3.115519839E-3,-6.016843379E-2,7.007452902E-2
8.868615000E-1,-3.531141070E-2,8.106036172E-3,1.332755864E-2,3.860346315E-2
8.968395000E-1,-2.714298062E-3,3.261436649E-2,-5.178878903E-2,6.126290056E-2
9.068175000E-1,-3.057163485E-2,-4.039631160E-3,1.227856815E-2,3.319196760E-2
9.167945000E-1,-8.726010052E-3,-2.211977470E-2,-4.010897577E-2,4.662786314E-2
9.267725000E-1,-3.646858153E-4,1.442212086E-2,-2.753570795E-2,3.108610265E-2
9.367505000E-1,-2.573985443E-3,6.328784111E-3,1.976592779E-2,2.091341222E-2
9.467285000E-1,4.608910137E-3,-3.191245850E-3,-4.519839227E-2,4.554471173E-2
9.567065000E-1,-1.692817125E-2,-1.838187814E-2,-1.121788323E-2,2.739155582E-2
9.666835000E-1,-1.087137860E-2,-1.515205437E-4,-4.190524042E-2,4.329271308E-2
9.766615000E-1,1.187051929E-2,3.468317077E-3,-1.791002154E-3,1.249584492E-2
9.866395000E-1,2.638616363E-2,-4.217628627E-3,-3.756543696E-2,4.609967544E-2
9.966175000E-1,-8.728339802E-5,-1.597527838E-2,-2.888407588E-2,3.300768058E-2
1.006595500E0,-7.347734529E-3,-1.157422534E-2,-1.496244013E-2,2.029350905E-2
1.016573500E0,9.766711656E-3,1.121436576E-2,-2.633936763E-2,3.024752788E-2
1.026550500E0,7.751603541E-3,-2.139290641E-3,5.545499325E-3,9.768136192E-3
1.036528500E0,1.058782747E-2,-6.208559875E-3,-4.938967645E-2,5.089192909E-2
1.046506500E0,-3.798967986E-3,-6.706249290E-3,-1.885317743E-2,2.036782356E-2
1.056484500E0,1.317899825E-2,1.562219792E-2,-2.005068719E-2,2.863161050E-2
1.066462500E0,2.430233017E-3,6.597513920E-3,-2.319531977E-2,2.423749331E-2
1.076440500E0,1.360737531E-2,6.447683587E-3,-2.229543328E-2,2.690389622E-2
1.086417500E0,-5.221764576E-3,4.648189265E-3,-1.421282709E-2,1.583909538E-2
1.096395500E0,-1.185926340E-2,-8.562552966E-3,-5.679985285E-3,1.569145228E-2
1.106373500E0,3.937818801E-3,1.227827579E-2,-5.073570549E-2,5.234858437E-2
1.116351500E0,-1.086776520E-2,1.025270435E-2,5.995150208E-3,1.609869849E-2
1.126329500E0,-9.346966082E-3,9.721717788E-3,-5.193438470E-2,5.365685312E-2
1.136307500E0,-5.750156441E-3,3.359088348E-3,-1.855613887E-2,1.971491982E-2
1.146284500E0,-1.184821079E-2,9.097536653E-3,-1.690956295E-2,2.256277002E-2
1.156262500E0,1.460661879E-3,7.777632787E-3,-2.843676388E-2,2.951736176E-2
1.166240500E0,4.741059495E-3,-9.431070057E-3,-7.180965543E-3,1.276671429E-2
1.176218500E0,1.725535038E-2,-5.833086404E-3,-4.954287350E-2,5.278511465E-2
1.186196500E0,2.698165686E-3,1.637229519E-3,-2.692058086E-3,4.148227972E-3
1.196174625E0,-5.797496047E-3,-6.470839474E-3,-2.738952756E-2,2.873445569E-2
1.206151625E0,-4.388531777E-3,-3.883674955E-3,-3.038388669E-2,3.094386390E-2
1.216129625E0,-2.275391438E-3,3.537172610E-3,-1.601260006E-2,1.655573487E-2
1.226107625E0,1.825573588E-2,-3.746617134E-3,-1.047470212E-2,2.137822297E-2
1.236085625E0,-2.150367460E-2,1.370587349E-3,-1.526474118E-2,2.640641692E-2
1.246063625E0,-1.633124591E-2,-1.221168148E-2,-2.394668698E-2,3.145279916E-2
1.256041625E0,-7.282026443E-3,-2.774618031E-3,-3.741867185E-2,3.822150464E-2
1.266018625E0,-3.385334581E-3,4.774151081E-3,1.167922854E-2,1.306359017E-2
1.275996625E0,-2.055008509E-2,1.030380354E-2,-2.394551754E-2,3.319430938E-2
1.285974625E0,-2.751014465E-2,5.033027418E-3,-1.466540158E-2,3.157868628E-2
1.295952625E0,1.153101533E-2,-4.494064883E-3,-1.661077023E-2,2.071421302E-2
1.305930625E0,1.106668474E-2,-4.376549553E-3,-1.975481808E-2,2.306249194E-2
1.315908625E0,1.433138852E-2,-6.575463521E-3,-1.571263790E-2,2.226010798E-2
1.325885625E0,2.894983878E-3,-2.658934523E-3,-2.753687739E-2,2.781601124E-2
1.335863625E0,5.731200955E-3,-1.226661333E-2,-2.903317988E-2,3.203501211E-2
1.345841625E0,6.886124262E-3,2.652150840E-3,-2.873263299E-2,2.966507728E-2
1.355819625E0,-5.599743670E-3,1.054728982E-2,-2.603765130E-2,2.864544880E-2
1.365797625E0,-3.231758375E-3,9.782062881E-3,-2.019920647E-2,2.267467659E-2
1.375775625E0,-1.347905634E-2,6.603594110E-3,-3.187609613E-2,3.523319343E-2
1.385752625E0,-2.328402158E-2,7.896664739E-3,-1.645757318E-2,2.958639366E-2
1.395730625E0,-3.217247687E-4,7.567799971E-3,-3.980959833E-2,4.052381056E-2
1.405708625E0,-8.010178381E-3,-9.808055582E-3,-2.244570673E-2,2.577150873E-2
1.415686625E0,1.803696094E-2,-1.054572752E-2,-2.813387811E-2,3.504367884E-2
1.425664625E0,3.676768031E-2,-1.189815652E-2,-2.559033930E-2,4.634969158E-2
1.435642625E0,1.281099825E-2,5.122736497E-3,-2.828415155E-2,3.146994335E-2
1.445619625E0,-1.707280076E-2,1.415442802E-2,-1.316676021E-2,2.579131506E-2
1.455597625E0,-8.493423345E-4,-2.088078625E-2,-3.936170161E-2,4.456536963E-2
1.465575625E0,4.623069079E-4,-2.821878151E-2,-4.609827876E-2,5.405150009E-2
1.475553625E0,3.764812024E-3,-2.520556510E-3,-6.581041217E-3,7.989813402E-3
1.485531625E0,-3.770113804E-2,4.200191134E-2,-2.499099970E-2,6.172589758E-2
1.495509625E0,-3.583326328E-2,1.031307229E-2,-8.824617863E-3,3.831783002E-2
1.505486625E0,-3.947644865E-3,-9.206509567E-3,-3.397173822E-2,3.541783048E-2
1.515464625E0,1.420035150E-3,-7.392557091E-3,-1.316500604E-2,1.516521626E-2
1.525442625E0,1.025354946E-3,8.826975022E-3,-1.511154413E-2,1.753070469E-2
1.535420625E0,4.525603303E-3,-5.052953633E-4,-3.038037837E-2,3.071976234E-2
1.545398625E0,2.888024321E-2,-1.903962595E-2,-2.813387811E-2,4.458801298E-2
1.555376625E0,3.578249985E-2,-1.255050022E-2,-3.292333245E-2,5.021800644E-2
1.565353625E0,8.822838573E-3,1.210143863E-2,-7.476834655E-3,1.673888747E-2
1.575331625E0,-3.423460254E-3,2.614418940E-2,-2.439166009E-2,3.591923999E-2
1.585309625E0,-1.423564036E-2,2.572893659E-3,-2.588796258E-2,2.965568824E-2
1.595287625E0,-1.100305059E-2,7.240693937E-3,-2.618675530E-2,2.931281160E-2
1.605265625E0,-7.228919563E-3,1.668731850E-2,-2.738426507E-2,3.287281323E-2
1.615243625E0,-1.847036753E-2,1.927687216E-2,-2.543772697E-2,3.687587599E-2
1.625220625E0,-1.314076751E-2,-3.364277752E-3,-3.157613397E-2,3.436641342E-2
1.635198625E0,2.615685684E-2,-1.616592502E-2,-1.945251703E-2,3.638569376E-2
1.645176625E0,1.736206663E-2,4.925580262E-3,-1.062205195E-2,2.094112429E-2
1.655154625E0,3.034165883E-3,7.300066017E-4,-2.139847040E-2,2.162483775E-2
1.665132625E0,-3.411311293E-3,-1.299473329E-2,-1.900345087E-2,2.327297323E-2
1.675109625E0,-3.673371621E-3,-1.984213346E-2,-1.032092035E-2,2.266550939E-2
1.685087625E0,-4.968100484E-4,1.281954066E-2,-2.633819818E-2,2.929655486E-2
1.695065625E0,-1.530035210E-2,2.269282924E-2,-9.123995304E-3,2.884982779E-2
1.705043625E0,-1.244492372E-2,3.850597073E-3,-3.531952143E-2,3.764534258E-2
1.715021625E0,-1.320596624E-2,-3.300410626E-3,-2.484131098E-2,2.832633026E-2
1.724999625E0,1.117516658E-2,2.219982217E-3,-1.406430781E-2,1.810020506E-2
1.734976625E0,5.912055792E-3,6.172256889E-3,-1.406547725E-2,1.645863935E-2
1.744954625E0,-2.978484859E-3,-1.527970183E-2,-2.603940547E-2,3.033795143E-2
1.754932625E0,6.357698136E-3,-8.832922736E-3,-3.995928705E-2,4.141479773E-2
1.764910625E0,1.005098227E-2,6.870706799E-3,-1.481158197E-2,1.917320570E-2
1.774888625E0,-2.841408765E-3,1.921111382E-2,-3.472076654E-2,3.978281196E-2
1.784866625E0,-1.233841303E-2,-5.794403418E-3,-3.127792597E-2,3.411920573E-2
1.794843625E0,-8.585190370E-3,3.616484609E-3,-1.765508294E-2,1.996212434E-2
1.804821625E0,-1.021867173E-3,1.242954052E-2,-1.017064691E-2,1.609284774E-2
1.814799625E0,-1.611228139E-2,1.555190342E-2,-2.424314082E-2,3.300298757E-2
1.824777625E0,-1.176079492E-2,-4.136841120E-3,-2.094940424E-2,2.437841852E-2
1.834755625E0,1.167981327E-3,9.531610189E-3,-2.588913202E-2,2.761273130E-2
1.844733625E0,1.273950233E-2,-7.684406242E-3,-2.424431026E-2,2.844523860E-2
1.854710625E0,1.096677729E-2,8.558679186E-4,-2.514302731E-2,2.744402551E-2
1.864688625E0,2.309047417E-2,-4.546849709E-3,-2.963368893E-2,3.784176739E-2
1.874666625E0,7.593486607E-3,-5.873802211E-3,-1.631080806E-2,1.892630579E-2
1.884644625E0,-3.284444986E-4,1.145948287E-2,-1.960454464E-2,2.271047763E-2
1.894622625E0,-7.641264754E-3,3.937971834E-3,-2.095174313E-2,2.264667943E-2
1.904600625E0,-1.892645720E-2,1.177333217E-2,-2.169960201E-2,3.110779420E-2
1.914577625E0,-1.414084695E-2,2.306040897E-2,-7.180965543E-3,2.798771660E-2
1.924555625E0,-1.215234595E-2,1.531210820E-2,-2.738894284E-2,3.364958186E-2
1.934533625E0,-1.072283420E-2,1.734074942E-2,-2.185221434E-2,2.988645237E-2
1.944511625E0,-3.841408265E-3,-9.593316587E-4,-2.290062010E-2,2.324037727E-2
1.954489625E0,-1.531584493E-3,7.790638274E-4,-3.233042479E-2,3.237605687E-2
1.964467625E0,-4.143110889E-3,-3.843105328E-3,-9.278361797E-3,1.086383100E-2
1.974444625E0,1.859604155E-2,-7.776879044E-3,-1.945544064E-2,2.801440307E-2
1.984422625E0,3.100192140E-2,-1.536222066E-2,-1.017649412E-2,3.606491351E-2
1.994400625E0,-5.862146609E-3,6.209012121E-5,-2.304796994E-2,2.378187411E-2
2.004378625E0,-1.035090560E-2,2.358193036E-2,-3.382731199E-2,4.251512346E-2
2.014356625E0,-1.823504222E-2,6.070752880E-3,-2.050501585E-2,2.810385170E-2
2.024334625E0,-2.164995549E-3,-9.392012483E-3,-3.068384886E-2,3.216202240E-2
2.034311625E0,-1.418045727E-2,-1.127594425E-3,-1.107579589E-2,1.802859096E-2
2.044289625E0,-3.455492261E-2,1.332912551E-2,-3.577385008E-2,5.149249084E-2
2.054267625E0,-1.134688742E-3,-3.937003389E-3,-3.098498046E-2,3.125470410E-2
2.064245625E0,4.033393369E-3,-8.885387792E-3,-2.304972410E-2,2.503014501E-2
2.074223625E0,1.030814555E-2,-5.497150160E-3,-2.349820554E-2,2.624199284E-2
2.084201625E0,4.272811725E-3,-5.713958521E-3,-1.796030760E-2,1.932560196E-2
2.094178625E0,-1.779474917E-2,9.262715927E-3,-1.511680663E-2,2.511909327E-2
2.104156625E0,2.442608101E-3,-1.258962175E-2,-7.182719707E-3,1.469885616E-2
2.114134625E0,4.092301782E-3,-1.345258855E-2,-2.304913938E-2,2.699966479E-2
2.124112625E0,-1.002729876E-2,6.289068726E-3,-3.816770017E-2,3.996088640E-2
2.134090625E0,-2.380054314E-2,2.292723407E-2,-1.721127927E-2,3.726059648E-2
2.144068625E0,-1.058902889E-2,-1.049004192E-2,-3.248011351E-2,3.573690370E-2
2.154045625E0,6.522034588E-3,-9.977757311E-3,-2.050443113E-2,2.371759415E-2
2.164023625E0,6.730672836E-3,4.617486815E-3,-1.002622068E-2,1.292858238E-2
2.174001625E0,5.094423182E-3,-1.150453384E-3,-1.107404172E-2,1.224381847E-2
2.183979625E0,-1.744990734E-2,-8.269867846E-3,-2.080322385E-2,2.838422278E-2
2.193960708E0,2.719078618E-3,-1.056898390E-2,-1.032384396E-2,1.502260175E-2
2.203938708E0,9.913296327E-3,-2.996510728E-3,-2.349703610E-2,2.567806897E-2
2.213915708E0,-1.724056788E-2,9.250034778E-3,5.093509555E-3,2.021742229E-2
2.223893708E0,-1.794054127E-2,6.411252692E-3,-8.377305865E-3,2.081217037E-2
2.233871708E0,-1.770081685E-2,3.450181573E-3,-4.205668330E-2,4.576010577E-2
2.243849708E0,-8.769507855E-3,-1.705820099E-3,-3.382438838E-2,3.498432992E-2
2.253827708E0,-1.024138679E-2,5.600321540E-3,-2.948341548E-2,3.170995732E-2
2.263805708E0,4.267259154E-3,-5.460248748E-4,-2.304855466E-2,2.344660990E-2
2.273782708E0,9.398051561E-4,-6.238860330E-3,-3.023361325E-2,3.088491512E-2
2.283760708E0,7.975949328E-3,-2.783740601E-3,-2.649139524E-2,2.780573683E-2
2.293738708E0,-3.382321894E-3,-1.008503088E-3,-2.409637570E-2,2.435349055E-2
2.303716708E0,-9.357009132E-3,1.084759003E-2,-1.541559935E-2,2.104434681E-2
2.313694708E0,-1.330898002E-2,-1.264062957E-3,-2.649373412E-2,2.967565925E-2
2.323672708E0,-1.059673077E-2,4.241478872E-3,-3.158315063E-2,3.358238004E-2
2.333649708E0,-1.682472350E-3,4.411345054E-3,-9.279531240E-3,1.041155024E-2
2.343627708E0,-1.259855703E-2,2.998392801E-3,-1.990743041E-2,2.374910070E-2
2.353605708E0,-9.044379524E-3,-1.277031898E-3,-3.367996216E-2,3.489658239E-2
2.363583708E0,-4.921126328E-3,-4.844536940E-3,-3.442957520E-2,3.511527689E-2
2.373561708E0,3.617982958E-3,9.554144810E-3,-3.098614991E-2,3.262687496E-2
2.383539708E0,1.901283154E-2,-3.738773642E-3,-1.961097658E-2,2.756912392E-2
2.393516708E0,1.061848881E-2,-8.653577669E-3,-4.191401124E-2,4.409558991E-2
2.403494708E0,1.216754871E-2,-1.268598660E-2,-3.128611207E-2,3.588599039E-2
2.413472708E0,1.347158515E-2,-1.226088032E-5,-1.796381593E-2,2.245400720E-2
2.423450708E0,-8.619672954E-3,1.176986952E-2,-8.683115244E-3,1.697719296E-2
2.433428708E0,-5.611088639E-3,2.754641566E-3,-1.317377687E-2,1.458152128E-2
2.443406708E0,-8.621310631E-3,-6.151599772E-3,-2.275443971E-2,2.509848010E-2
2.453383708E0,4.962668968E-3,1.642766101E-3,-1.407366335E-2,1.501315303E-2
2.463361708E0,-1.326454347E-2,2.419696609E-3,-3.428281009E-2,3.683902975E-2
2.473339708E0,3.931133333E-4,7.128390851E-3,-3.233744144E-2,3.311613826E-2
2.483317708E0,1.047443717E-2,1.047819218E-2,-2.395487309E-2,2.816633256E-2
2.493295708E0,1.056783730E-3,9.660710315E-3,-1.976475835E-2,2.202479939E-2
2.503273708E0,4.182625276E-3,1.915757982E-3,-8.688377738E-3,9.831194768E-3
2.513250708E0,-1.072552940E-4,-5.788930790E-3,-1.856841803E-2,1.945017664E-2
2.523228708E0,-7.469132775E-3,3.588367724E-3,-2.470624030E-2,2.605883031E-2
2.533206708E0,-8.489449066E-3,5.192921357E-3,-2.231239021E-2,2.443112634E-2
2.543184708E0,-4.735237404E-3,6.985316793E-3,-2.680305183E-2,2.810019059E-2
2.553162708E0,-9.352982319E-3,1.859562128E-2,-1.288375497E-2,2.447992139E-2
2.563139708E0,-1.198457654E-2,4.292587191E-3,-1.961916268E-2,2.338734538E-2
2.573117708E0,-1.302709398E-2,-7.386495173E-3,-2.605460823E-2,3.005175699E-2
2.583095708E0,-4.209552160E-3,1.553902128E-3,-2.919865608E-2,2.954143629E-2
2.593073708E0,-4.078542553E-3,3.790809293E-3,-3.623461068E-2,3.665994756E-2
2.603051708E0,-1.720937208E-2,-5.696837143E-3,-3.398927987E-2,3.852126149E-2
2.613029708E0,-3.586300642E-3,-4.103886578E-3,-2.410865486E-2,2.471701188E-2
2.623007708E0,-4.660836153E-3,1.100816005E-3,-2.815083504E-2,2.855529203E-2
2.632984708E0,-1.017976262E-2,-3.257799041E-3,-3.084581673E-2,3.264514101E-2
2.642962708E0,-4.447129557E-3,8.179564909E-3,-2.725387216E-2,2.880027415E-2
2.652940708E0,2.037229319E-4,2.546010171E-3,-2.246383309E-2,2.260857068E-2
2.662918708E0,-9.825677171E-3,-1.216111220E-3,-1.932036996E-2,2.170943467E-2
2.672896708E0,-8.794191785E-3,4.773954651E-3,-1.887188852E-2,2.136063268E-2
2.682874708E0,7.978966583E-3,-6.765607665E-3,-2.665570199E-2,2.863501010E-2
2.692851708E0,-4.180964758E-4,-1.148310928E-3,-7.045894861E-3,7.151087822E-3
2.702829708E0,-3.597748394E-3,3.482693005E-3,-2.605519295E-2,2.653198115E-2
2.712807708E0,4.489065057E-3,-1.083635241E-2,-1.168566048E-2,1.655695925E-2
2.722785708E0,2.205750186E-3,-8.213716303E-3,-2.186507821E-2,2.346086347E-2
2.732763708E0,-8.210265075E-3,-2.646600553E-3,-3.204332650E-2,3.318414863E-2
2.742740708E0,6.454161205E-4,2.181486525E-3,-2.096636117E-2,2.108942261E-2
2.752718708E0,-9.086559420E-3,1.756070066E-2,-2.336079597E-2,3.060507406E-2
2.762696708E0,-6.280003258E-3,-4.522930942E-3,-1.363161385E-2,1.567533864E-2
2.772674708E0,-5.034336189E-3,3.669644021E-3,-1.872103035E-2,1.973037774E-2
2.782652708E0,-5.705701613E-3,2.956064441E-3,-2.201301277E-2,2.293177008E-2
2.792630708E0,6.253992284E-3,1.456863473E-2,-2.021616340E-2,2.569145383E-2
2.802607708E0,-3.178612667E-3,3.806012054E-3,-2.410865486E-2,2.461334080E-2
2.812585708E0,1.465523290E-2,9.195980011E-4,-2.171422005E-2,2.621314297E-2
2.822563708E0,1.554879709E-3,1.304416968E-2,-2.066639900E-2,2.448812082E-2
2.832541708E0,2.742903738E-3,7.413227912E-3,-3.952659309E-2,4.030919287E-2
2.842519708E0,-1.224856919E-3,-2.440312612E-3,-2.335962653E-2,2.351866390E-2
2.852497708E0,-1.246399797E-2,-8.688126490E-3,-1.048756599E-2,1.846141457E-2
2.862475708E0,-9.665420065E-3,8.751979913E-3,-1.527702034E-2,2.008494082E-2
2.872452708E0,-2.620421929E-2,-1.619372671E-3,-9.888811111E-3,2.805480461E-2
2.882430708E0,-1.533892545E-2,1.303197732E-2,-2.740297616E-2,3.400056130E-2
2.892408708E0,-9.040272769E-3,-3.930242546E-3,-2.321110725E-2,2.521762951E-2
2.902386708E0,1.494895499E-3,9.372935942E-3,-2.500795662E-2,2.674854268E-2
2.912364708E0,8.189998535E-3,-1.837857538E-3,-1.991912484E-2,2.161539569E-2
2.922341708E0,6.383948936E-3,-1.788646366E-2,-2.800290048E-2,3.383552603E-2
2.932319708E0,4.947125881E-3,7.348122820E-4,-2.381103158E-2,2.433062327E-2
2.942297708E0,7.715935525E-3,-7.276923833E-3,-1.857134163E-2,2.138653809E-2
2.952275708E0,-5.399401160E-4,2.805818408E-3,-1.482853889E-2,1.510131511E-2
2.962253708E0,2.774252580E-3,1.176887367E-2,-2.500737190E-2,2.777717614E-2
2.972231708E0,-7.323464015E-3,-6.983676832E-4,-2.396013558E-2,2.506409662E-2
2.982208708E0,-6.393578569E-3,-2.432916798E-3,-2.066698372E-2,2.176973007E-2
2.992186708E0,-4.901725450E-3,1.162316836E-4,-3.369165659E-2,3.404655850E-2
3.002164708E0,-5.478948418E-3,7.598739965E-3,-1.662714243E-2,1.908459039E-2
3.012142708E0,2.075104430E-2,2.166580693E-3,-3.129722178E-2,3.761403997E-2
3.022120708E0,-8.068173167E-3,-1.267648945E-2,-1.902333140E-2,2.424202839E-2
3.032098708E0,-8.864330964E-3,-6.252546469E-3,-1.528111339E-2,1.873988066E-2
3.042075708E0,-1.615453209E-4,4.900154010E-3,-1.827605724E-2,1.892225871E-2
3.052053708E0,1.622854505E-2,-3.204306155E-3,-3.698656261E-2,4.051714533E-2
3.062031708E0,-2.882154265E-3,-1.863872166E-2,-2.471091807E-2,3.108598125E-2
3.072009708E0,3.477736576E-3,4.728424028E-3,-3.908103526E-2,3.951936186E-2
3.081987708E0,-2.051824974E-2,2.379492433E-3,-2.665745616E-2,3.372359005E-2
3.091965708E0,-5.559964331E-3,2.253471231E-3,-2.366368175E-2,2.441231594E-2
3.101942708E0,4.031607227E-3,4.560590666E-3,-2.216620982E-2,2.298681582E-2
3.111920708E0,-3.174167869E-3,-5.152360867E-3,-2.351340830E-2,2.427967327E-2
3.121898708E0,-2.014662721E-3,1.934140166E-3,-6.897960305E-3,7.441882856E-3
3.131876708E0,-7.442482263E-3,6.202794886E-3,-1.408360362E-2,1.709424165E-2
3.141854708E0,-1.850881982E-2,4.570403025E-3,-2.875251353E-2,3.449886997E-2
3.151832708E0,-5.208941814E-3,-5.180555410E-3,-1.767613292E-2,1.914201933E-2
3.161809708E0,1.073146798E-3,9.834815729E-3,-2.186683238E-2,2.400070004E-2
3.171787708E0,-1.140129165E-2,-1.496530892E-3,-1.782640636E-2,2.121343489E-2
3.181765708E0,-4.564841317E-3,-4.848707649E-3,-2.635924816E-2,2.718745493E-2
3.191745083E0,-1.906603435E-4,-4.820846580E-4,-2.530967295E-2,2.531498177E-2
3.201723083E0,4.143654497E-3,1.120842719E-2,-1.917243540E-2,2.259161331E-2
3.211701083E0,-6.623470075E-3,5.426988141E-3,-3.054760873E-2,3.172505249E-2
3.221678083E0,-9.471276517E-3,8.252600287E-3,-2.515939951E-2,2.812127085E-2
3.231656083E0,8.203029146E-3,-5.691008200E-3,-1.288492441E-2,1.630026192E-2
3.241634083E0,5.180489172E-3,1.886531040E-3,-2.276379526E-2,2.342193079E-2
3.251612083E0,7.896797215E-3,-1.033547443E-2,-1.048873544E-2,1.670912951E-2
3.261590083E0,-1.164048389E-2,-1.458854724E-2,-1.752585948E-2,2.560238907E-2
3.271568083E0,-1.278124140E-2,1.720885816E-3,-3.638663828E-2,3.860452079E-2
3.281545083E0,-6.678029622E-3,-3.450761726E-3,-1.423387706E-2,1.609680379E-2
3.291523083E0,1.874227448E-2,4.985770038E-3,-1.992263317E-2,2.780363408E-2
3.301501083E0,2.619388159E-3,-1.290279496E-2,-2.231706798E-2,2.591128780E-2
3.311479083E0,-1.089537046E-2,-3.769763885E-3,-2.635866344E-2,2.876976461E-2
3.321457083E0,2.501815727E-3,-4.598921905E-3,-2.381337047E-2,2.438207903E-2
3.331435083E0,6.884913705E-4,2.905120575E-3,-2.261703014E-2,2.281323735E-2
3.341412083E0,8.943282079E-3,-6.842434597E-3,-2.635807872E-2,2.866268514E-2
3.351390083E0,8.982403607E-3,-1.946720359E-2,-1.602897227E-2,2.676907810E-2
3.361368083E0,-4.644751742E-3,1.031164703E-2,-3.443951547E-2,3.624891735E-2
3.371346083E0,-1.320101210E-2,6.322731329E-3,-3.877990365E-2,4.145026633E-2
3.381324083E0,-2.964052971E-2,2.466191109E-3,-5.778978646E-2,6.499463454E-2
3.391302083E0,-3.828165007E-2,7.868525013E-3,-3.902431726E-3,3.927629554E-2
3.401279083E0,-2.147931273E-2,9.549686308E-3,-1.842223763E-2,2.986530133E-2
3.411257083E0,-7.106911470E-3,-4.146868181E-3,-2.695390999E-2,2.818187308E-2
3.421235083E0,5.291753006E-4,-1.950346090E-2,-2.351106942E-2,3.055217502E-2
3.431213083E0,2.157162336E-2,-1.262907675E-2,-2.126573861E-2,3.281859461E-2
3.441191083E0,2.026678064E-2,-3.108777269E-2,-5.398734212E-3,3.750117784E-2
3.451169083E0,2.850598943E-2,-2.502962330E-2,-1.917009652E-2,4.250371839E-2
3.461146083E0,1.604807393E-2,-1.439352432E-2,-2.156453133E-2,3.049169118E-2
3.471124083E0,-8.107262717E-3,-2.920195428E-3,-1.437947273E-2,1.676378496E-2
3.481102083E0,-3.155654579E-2,2.047148115E-2,-3.608433723E-2,5.212462486E-2
3.491080083E0,-2.544511137E-2,1.068818945E-2,-1.437830329E-2,3.111955481E-2
3.501058083E0,-4.055451533E-2,1.246797682E-2,-2.126339972E-2,4.745789004E-2
3.511036083E0,-2.519605881E-2,-5.160473878E-3,-1.602429450E-2,3.030263824E-2
3.521013083E0,-7.531944662E-5,1.298413522E-2,-2.365841925E-2,2.698729779E-2
3.530991083E0,1.046871101E-2,-5.662087323E-3,-2.635223150E-2,2.891527707E-2
3.540969083E0,3.761729217E-2,-2.004647080E-2,-2.440686285E-2,4.911839387E-2
3.550947083E0,5.067671257E-2,-2.750402335E-2,-2.695215583E-2,6.364761740E-2
3.560925083E0,1.943282836E-2,-1.701489962E-2,-1.871869147E-2,3.189876232E-2
3.570903083E0,9.986169536E-3,-9.492589161E-5,-2.829876959E-2,3.000921448E-2
3.580880083E0,-3.230870558E-2,-3.730212953E-3,-3.009503424E-2,4.431115019E-2
3.590858083E0,-2.184632372E-2,1.878894485E-2,-2.605285406E-2,3.884633205E-2
3.600836083E0,-4.083935696E-2,2.555253340E-2,-3.084230840E-2,5.720168728E-2
3.610814083E0,-3.815558547E-2,2.162080164E-2,-2.096226811E-2,4.860786408E-2
3.620792083E0,-1.353442445E-2,-8.862003498E-4,-1.572316289E-2,2.076496683E-2
3.630770083E0,1.753565813E-2,2.747186366E-4,-2.889518559E-2,3.380098411E-2
3.640747083E0,2.622001591E-2,-8.427788350E-3,-2.230946660E-2,3.544332308E-2
3.650725083E0,1.389538951E-2,-1.824285602E-2,-2.245857060E-2,3.209783543E-2
3.660703083E0,2.888351172E-2,-1.956345881E-2,-2.904428959E-2,4.539335775E-2
3.670681083E0,1.931580867E-2,-1.233833309E-2,-2.290822148E-2,3.240557884E-2
3.680659083E0,7.595297873E-3,2.484756019E-3,-2.215919316E-2,2.355615426E-2
3.690637083E0,-1.443306612E-2,1.412629286E-2,-4.057090580E-2,4.531957574E-2
3.700614083E0,-2.747182484E-2,1.620951419E-2,-2.021323979E-2,3.776274054E-2
3.710592083E0,-3.703554675E-2,1.247257237E-2,-2.964304447E-2,4.905004454E-2
3.720570083E0,-2.558106370E-2,8.831145731E-3,-1.826611698E-2,3.265012993E-2
3.730548083E0,-8.091153181E-3,9.851717837E-3,-1.811642826E-2,2.215238310E-2
3.740526083E0,6.451769785E-3,-7.351622013E-3,-2.350697637E-2,2.546074660E-2
3.750504083E0,1.896927892E-2,-6.706696968E-3,-3.323674321E-2,3.885221263E-2
3.760481083E0,1.037098485E-2,-2.335073694E-2,-2.051320195E-2,3.276592279E-2
3.770459083E0,2.210051315E-2,-1.190486255E-2,-2.290997565E-2,3.398566489E-2
3.780437083E0,-6.807543165E-3,1.160084845E-2,-1.437830329E-2,1.968903081E-2
3.790415083E0,-2.043185256E-2,1.072751654E-2,-3.383900642E-2,4.095874224E-2
3.800393083E0,-3.884578533E-2,1.421559538E-2,-2.156394660E-2,4.664849389E-2
3.810371083E0,-3.605583206E-2,1.907089028E-2,-1.363161385E-2,4.300631091E-2
3.820348083E0,-2.522633186E-2,2.368321510E-2,-1.722297370E-2,3.865091616E-2
3.830326083E0,-1.452948579E-2,3.059167298E-3,-2.335904181E-2,2.767867945E-2
3.840304083E0,1.034408994E-2,2.130437591E-3,-3.638254523E-2,3.788441050E-2
3.850282083E0,1.851811827E-2,-1.857167511E-2,-2.700244188E-3,2.636511216E-2
3.860260083E0,3.835512171E-2,-1.004440187E-2,-1.303110480E-2,4.173505795E-2
3.870238083E0,-6.998584948E-3,-1.541105405E-2,-9.285963178E-3,1.930569580E-2
3.880215083E0,-1.132084904E-3,1.003017212E-2,-6.242896736E-2,6.323971801E-2
3.890193083E0,-4.489241844E-2,-1.462893871E-2,4.190524042E-2,6.312989985E-2
3.900171083E0,-1.330779688E-2,3.498770108E-2,-1.332305628E-1,1.383893766E-1
3.910149083E0,-4.088630827E-2,-1.225626650E-2,7.992383659E-2,9.060753792E-2
3.920127083E0,-3.150233114E-4,1.201210414E-2,-6.018305182E-2,6.137091830E-2
3.930105083E0,-2.600958695E-2,3.888562862E-3,-4.686309457E-2,5.373796765E-2
3.940082083E0,-2.450500243E-2,-1.171406973E-2,1.196808100E-2,2.968079407E-2
3.950060083E0,2.569340333E-2,1.041955557E-2,-5.569531381E-2,6.221483821E-2
3.960038083E0,2.651324007E-3,-1.160810265E-2,3.636441886E-2,3.826419378E-2
3.970016083E0,6.032666035E-3,-8.634875715E-4,-9.491317391E-2,9.510861818E-2
3.979994083E0,-1.331183054E-2,-2.524747776E-2,3.920791984E-2,4.849640135E-2
3.989972083E0,2.198320339E-2,6.113446690E-4,-6.332826912E-2,6.703808353E-2
3.999949083E0,-3.660404964E-3,-1.763313304E-2,-2.845079720E-2,3.367155783E-2
4.009927083E0,-2.206508268E-2,-1.003272571E-2,-5.973398566E-2,6.446450575E-2
4.019905083E0,-1.049725273E-2,-2.544982340E-3,1.008785033E-1,1.014551215E-1
4.029883083E0,-3.691746953E-3,1.796330886E-2,-1.546360499E-1,1.557196756E-1
4.039861083E0,7.970376201E-3,5.143608316E-3,5.462176502E-2,5.543934358E-2
4.049839083E0,-1.588581370E-2,-2.343801120E-2,1.435432971E-2,3.174501893E-2
4.059816083E0,7.821663920E-3,6.456112714E-2,-1.027168679E-1,1.215733216E-1
4.069794083E0,-3.178161792E-2,8.110211450E-3,8.693640232E-2,9.291816193E-2
4.079772083E0,2.409887904E-2,1.485359513E-2,-1.420873404E-1,1.448799418E-1
4.089750083E0,1.830649200E-1,-2.170715771E-2,3.605627060E-2,1.878404117E-1
4.099728083E0,-6.399941071E-2,-7.194257909E-2,6.647056282E-2,1.170042520E-1
4.109706083E0,-1.141355847E-1,3.609224011E-2,-2.108938658E-1,2.424990807E-1
4.119683083E0,-4.210814794E-2,-5.868971863E-2,1.256326908E-1,1.449177428E-1
4.129661083E0,1.707251936E-1,4.781300216E-2,-1.608346832E-1,2.393762107E-1
4.139639083E0,-8.086162948E-2,2.714325015E-2,-4.357754409E-2,9.578288730E-2
4.149617083E0,7.173734638E-2,2.621697810E-2,1.221717238E-2,7.734879513E-2
4.159595083E0,-3.877751908E-2,7.948951637E-2,-3.176681167E-1,3.297503776E-1
4.169573083E0,2.265981897E-1,2.738734947E-1,-5.371345854E-1,6.441016950E-1
4.179550083E0,6.354767858E-1,6.589305525E-1,-1.688791655E0,1.920947025E0
4.189528083E0,1.107177300E0,8.844890159E-1,-1.598897731E0,2.136500959E0
4.199501458E0,2.547466310E-1,5.589929027E-1,1.831059090E0,1.931358667E0
4.209479458E0,-2.326089045E0,5.459766718E-1,4.230020229E0,4.858173722E0
4.219457458E0,-4.598140754E-1,2.112098347E-2,-1.038761954E0,1.136178453E0
4.229435458E0,-2.381960141E-1,2.172142674E-1,4.404000038E-1,5.457760918E-1
4.239412458E0,1.451340686E-1,1.252371851E0,1.554958829E0,2.001848174E0
4.249390458E0,-7.021069776E-2,2.305629637E0,1.238502840E0,2.618157148E0
4.259368458E0,-3.046688061E-1,2.640374255E0,2.670347375E-1,2.671274385E0
4.269346458E0,-3.542015201E-1,1.874056590E0,-1.496857971E-1,1.913100274E0
4.279324458E0,-9.846711159E-2,2.251415569E-1,-6.016597795E-1,6.499069034E-1
4.289302458E0,-9.265410215E-2,-2.476080359E0,-7.322397995E-1,2.583744153E0
4.299279458E0,-1.177988544E0,-4.232991784E0,-7.137485647E-1,4.451439483E0
4.309257458E0,-3.432498606E0,-5.106571065E0,-1.804084715E0,6.412007204E0
4.319235458E0,-2.775842255E0,-4.836494898E0,-1.558863600E0,5.790253781E0
4.329213458E0,1.059505244E-1,-3.122441517E0,-2.832362026E-1,3.137051050E0
4.339191458E0,1.847548238E0,-1.099181087E0,1.104244337E0,2.416813834E0
4.349169458E0,1.919097108E0,-1.492114052E-1,3.355963815E0,3.868810009E0
4.359146458E0,8.729338215E-1,-4.423838179E-1,5.177242268E0,5.268923457E0
4.369124458E0,-4.649925157E-2,-4.949096484E-1,5.337958252E0,5.361053632E0
4.379102458E0,-2.283010268E-1,-4.270974420E-1,4.399792382E0,4.426364940E0
4.389080458E0,-6.500584991E-1,-1.039600591E0,2.988433567E0,3.230182754E0
4.399058458E0,-1.539725225E0,-1.249920406E0,1.523330070E0,2.500717755E0
4.409036458E0,-2.264903196E0,-1.308894838E0,2.689625645E-1,2.629702083E0
4.419013458E0,-2.502278809E0,-1.595001732E0,-6.489684319E-1,3.037530211E0
4.428991458E0,-2.123322078E0,-1.936520641E0,-1.134946312E0,3.089775392E0
4.438969458E0,-1.514917096E0,-2.188143141E0,-1.185768557E0,2.913587357E0
4.448947458E0,-1.045140754E0,-2.032683803E0,-1.095682844E0,2.534688055E0
4.458925458E0,-8.909603488E-1,-1.566664663E0,-8.954361731E-1,2.012474708E0
4.468903458E0,-1.240580356E0,-1.256483613E0,-5.397722644E-1,1.846386955E0
4.478880458E0,-1.963233207E0,-9.862770537E-1,-1.508581638E-4,2.197049629E0
4.488858458E0,-2.898676468E0,-8.983054018E-1,4.915175325E-1,3.074226300E0
4.498836458E0,-3.417966228E0,-9.666239771E-1,7.234338927E-1,3.624942986E0
4.508814458E0,-3.558251749E0,-9.978909396E-1,9.017780632E-1,3.803964447E0
4.518792458E0,-3.435793220E0,-6.629551180E-1,9.820696896E-1,3.634370016E0
4.528770458E0,-3.208224556E0,-2.306622787E-1,9.624785936E-1,3.357420875E0
4.538747458E0,-3.087135445E0,1.444332433E-1,1.229057833E0,3.325935864E0
4.548725458E0,-3.132718291E0,3.617008665E-1,1.737225897E0,3.600375706E0
4.558703458E0,-3.066492434E0,4.368258932E-1,2.364797028E0,3.896980587E0
4.568681458E0,-2.817654232E0,3.574017012E-1,2.984926992E0,4.120279177E0
4.578659458E0,-2.452733889E0,3.542164305E-1,3.523727449E0,4.307902964E0
4.588637458E0,-1.915138396E0,6.560137421E-1,4.239955233E0,4.698439048E0
4.598614458E0,-1.333286645E0,9.111555353E-1,5.108748568E0,5.357907205E0
4.608592458E0,-4.750180055E-1,1.024899375E0,6.024984457E0,6.129967254E0
4.618570458E0,4.780095507E-1,9.835423109E-1,6.849031389E0,6.935782550E0
4.628548458E0,1.371745390E0,7.271006817E-1,7.506719774E0,7.665585599E0
4.638526458E0,2.107951356E0,3.990522954E-1,7.927860219E0,8.213018282E0
4.648504458E0,2.687517431E0,1.197951230E-1,8.124678667E0,8.558475580E0
4.658481458E0,3.187978572E0,-8.064655244E-2,8.323693330E0,8.913673872E0
4.668459458E0,3.664449757E0,-3.219199196E-1,8.378693410E0,9.150646300E0
4.678437458E0,4.173395793E0,-5.598913640E-1,8.211484677E0,9.228173783E0
4.688415458E0,4.502517143E0,-9.106862962E-1,7.868594595E0,9.111355062E0
4.698393458E0,4.946380745E0,-1.408034672E0,7.329956691E0,8.954189478E0
4.708371458E0,5.356209167E0,-1.849256794E0,6.636542403E0,8.726535532E0
4.718348458E0,5.510717162E0,-2.248080171E0,6.004876467E0,8.454608772E0
4.728326458E0,5.557332335E0,-2.639811460E0,5.440872756E0,8.213138473E0
4.738304458E0,5.609171995E0,-3.048808993E0,4.952995116E0,8.080235600E0
4.748282458E0,5.649946384E0,-3.339843627E0,4.592074560E0,8.010218371E0
4.758260458E0,5.719317750E0,-3.551337417E0,4.283783038E0,7.979560771E0
4.768238458E0,5.839223093E0,-3.808868675E0,4.092921733E0,8.084306725E0
4.778215458E0,5.920942025E0,-4.242716289E0,3.943548177E0,8.283101364E0
4.788193458E0,6.139426746E0,-5.018014399E0,3.731922240E0,8.763576490E0
4.798171458E0,6.375902765E0,-5.893837257E0,3.226743858E0,9.262900713E0
4.808149458E0,6.304343956E0,-6.803292714E0,2.389778087E0,9.578130495E0
4.818127458E0,5.700241794E0,-7.435479637E0,1.199396662E0,9.445510378E0
4.828105458E0,4.702800944E0,-7.822624955E0,-9.001905441E-2,9.127864007E0
4.838083458E0,3.674033343E0,-8.097915376E0,-1.334696262E0,8.992005814E0
4.848060458E0,3.414495029E0,-7.452902586E0,-2.281337087E0,8.509349691E0
4.858038458E0,3.691375600E0,-6.246644801E0,-2.558360331E0,7.693635855E0
4.868016458E0,3.777055144E0,-5.769233091E0,-2.435747873E0,7.313211588E0
4.877994458E0,3.394125961E0,-6.036191815E0,-2.155301231E0,7.252656483E0
4.887972458E0,2.846387742E0,-6.471262082E0,-1.971781252E0,7.339419419E0
4.897949458E0,2.324399053E0,-6.638083144E0,-1.956873191E0,7.300433650E0
4.907927458E0,1.791286475E0,-6.537780592E0,-2.002799561E0,7.068414842E0
4.917905458E0,1.266824706E0,-6.303922956E0,-1.990997395E0,6.731148498E0
4.927883458E0,8.608885572E-1,-6.171781145E0,-1.943739029E0,6.527643757E0
4.937861458E0,5.741961385E-1,-6.142555591E0,-1.851772851E0,6.441254000E0
4.947839458E0,4.666648925E-1,-6.138896404E0,-1.778638217E0,6.408383500E0
4.957817458E0,4.243085760E-1,-6.126661690E0,-1.754677497E0,6.387089662E0
4.967794458E0,1.091152567E-1,-6.141365098E0,-1.850835543E0,6.415127716E0
4.977772458E0,-8.288209648E-1,-5.555220906E0,-1.710688308E0,5.871445988E0
4.987750458E0,-1.221145819E0,-6.468859461E0,-2.006930473E0,6.882231452E0
4.997728458E0,-1.155253254E0,-6.583677142E0,-2.134578699E0,7.016825565E0
5.007706458E0,-1.148451699E0,-6.341700062E0,-2.110598098E0,6.781646210E0
5.017684458E0,-1.125949494E0,-6.317360442E0,-2.219239365E0,6.789832736E0
5.027661458E0,-1.297126440E0,-6.288458825E0,-2.308028165E0,6.823067155E0
5.037639458E0,-1.693053983E0,-6.265187491E0,-2.473033082E0,6.945134895E0
5.047617458E0,-2.268160095E0,-6.187837599E0,-2.769242502E0,7.148607445E0
5.057595458E0,-2.814932061E0,-6.021062729E0,-2.920010619E0,7.259717688E0
5.067573458E0,-3.022211178E0,-5.994254415E0,-3.233481020E0,7.451190905E0
5.077551458E0,-2.911887082E0,-5.859756176E0,-3.268905791E0,7.314477007E0
5.087528458E0,-2.863722690E0,-5.839661635E0,-2.946744089E0,7.140438108E0
5.097506458E0,-3.038279619E0,-6.061095691E0,-2.384266502E0,7.186984818E0
5.107484458E0,-3.369399255E0,-6.316370509E0,-1.839894817E0,7.391522217E0
5.117462458E0,-3.479099160E0,-6.409831819E0,-1.525418111E0,7.450971435E0
5.127440458E0,-3.340355843E0,-6.493610725E0,-1.385987746E0,7.432759880E0
5.137417458E0,-2.933175040E0,-6.792099974E0,-1.257634491E0,7.504517466E0
5.147395458E0,-2.581025308E0,-7.063056439E0,-1.067229269E0,7.595224567E0
5.157373458E0,-2.686257064E0,-6.855380881E0,-9.439224547E-1,7.423153887E0
5.167351458E0,-3.057907845E0,-6.232633118E0,-1.016123874E0,7.016339765E0
5.177329458E0,-3.360364430E0,-5.569649495E0,-1.268253327E0,6.627330617E0
5.187307458E0,-3.560168467E0,-5.181722404E0,-1.385158610E0,6.437679004E0
5.197285458E0,-3.473610671E0,-4.995253528E0,-1.188822557E0,6.199340931E0
5.207262458E0,-3.358959344E0,-4.773093832E0,-8.459897786E-1,5.897519081E0
5.217240458E0,-3.561045841E0,-4.371107696E0,-4.951132777E-1,5.659749741E0
5.227218458E0,-4.108599873E0,-3.571889795E0,-2.025425801E-1,5.447936593E0
5.237196458E0,-4.928207599E0,-2.413522460E0,2.975978413E-1,5.495533212E0
5.247174458E0,-5.834414343E0,-1.400581226E0,1.061864303E0,6.093404163E0
5.257152458E0,-6.734548169E0,-5.864535105E-1,2.131300165E0,7.088053834E0
5.267129458E0,-7.553978140E0,9.258715153E-2,3.296146507E0,8.242313991E0
5.277107458E0,-8.178842595E0,8.667275137E-1,4.351645238E0,9.304918004E0
5.287085458E0,-8.345652548E0,1.675816099E0,4.891359615E0,9.817518777E0
5.297063458E0,-8.292203150E0,2.554229858E0,5.069936505E0,1.004932731E1
5.307041458E0,-8.246939269E0,3.535419542E0,5.245045996E0,1.039334913E1
5.317018458E0,-8.082157715E0,4.221961597E0,5.401611042E0,1.059828453E1
5.326996458E0,-7.679489794E0,4.715709842E0,5.495670522E0,1.055532459E1
5.336974458E0,-7.168907415E0,5.466672426E0,5.589006118E0,1.060729609E1
5.346952458E0,-6.711487920E0,5.970776090E0,5.546810855E0,1.055752565E1
5.356930458E0,-6.253094280E0,6.210580344E0,5.441488468E0,1.035771659E1
5.366908458E0,-5.608975528E0,6.300698801E0,5.586436266E0,1.011769154E1
5.376886458E0,-4.584385471E0,6.167654180E0,6.111846600E0,9.818921381E0
5.386863458E0,-3.340694396E0,5.964186863E0,6.763555037E0,9.616519158E0
5.396841458E0,-2.058073291E0,5.890873303E0,7.087560951E0,9.443070167E0
5.406819458E0,-7.125004765E-1,6.001563435E0,6.954087144E0,9.213346221E0
5.416797458E0,4.413343158E-1,6.062031246E0,6.284101480E0,8.742592877E0
5.426775458E0,1.128787952E0,5.797817205E0,5.291192806E0,7.930042112E0
5.436753458E0,1.231315735E0,5.353158090E0,4.708912454E0,7.235074047E0
5.446730458E0,9.162573040E-1,4.633726031E0,4.904621100E0,6.809276945E0
5.456708458E0,7.492895494E-1,3.660144745E0,5.319743006E0,6.500596898E0
5.466686458E0,7.338390861E-1,2.826079777E0,5.556309657E0,6.276768573E0
5.476664458E0,9.689641059E-1,2.173991856E0,5.772580622E0,6.244022667E0
5.486642458E0,1.419154615E0,1.610781028E0,6.168099153E0,6.531007771E0
5.496620458E0,1.742632817E0,1.191517539E0,6.578388335E0,6.908811495E0
5.506597458E0,1.962671436E0,9.101758343E-1,6.791183131E0,7.127458701E0
5.516575458E0,2.011401108E0,6.790453398E-1,6.829910409E0,7.152238334E0
5.526553458E0,1.827516554E0,5.607766324E-1,6.656745118E0,6.925788241E0
5.536531458E0,1.675051868E0,6.276284337E-1,6.166487660E0,6.420692040E0
5.546509458E0,1.728907502E0,9.210896623E-1,5.572490072E0,5.906790408E0
5.556486458E0,1.851843164E0,1.178846623E0,5.210242199E0,5.653815193E0
5.566464458E0,1.926845545E0,1.268687922E0,5.020119397E0,5.524844030E0
5.576442458E0,1.893823249E0,1.272666952E0,4.773500213E0,5.290798801E0
5.586420458E0,2.136085819E0,1.294636695E0,4.490532398E0,5.138465531E0
5.596398458E0,2.869738598E0,1.337391536E0,4.238165108E0,5.290185179E0
5.606376458E0,3.550074418E0,1.409497061E0,4.067977511E0,5.580156931E0
5.616354458E0,3.992579420E0,1.558967680E0,4.080571244E0,5.917950011E0
5.626331458E0,4.358827958E0,1.627879456E0,4.402935260E0,6.405873211E0
5.636309458E0,4.702867602E0,1.412881429E0,4.771705703E0,6.847070390E0
5.646287458E0,5.065199091E0,1.052974196E0,4.719141573E0,7.002520523E0
5.656265458E0,5.420356046E0,8.401022172E-1,4.073698427E0,6.832353202E0
5.666243458E0,5.711531013E0,6.628631705E-1,3.042855942E0,6.505378266E0
5.676221458E0,5.925447890E0,5.187854379E-1,1.978360977E0,6.268491300E0
5.686198458E0,6.182258186E0,4.910608649E-1,1.199988693E0,6.316757864E0
5.696176458E0,6.469447691E0,3.408049643E-1,8.711842614E-1,6.536731864E0
5.706154458E0,6.830192245E0,1.697610426E-1,1.197356861E0,6.936426196E0
5.716132458E0,7.084424504E0,-1.063403875E-1,2.062764950E0,7.379388733E0
5.726110458E0,7.068873249E0,-4.680070478E-1,3.096036661E0,7.731328645E0
5.736088458E0,6.646821223E0,-1.054702048E0,3.624472051E0,7.643914340E0
5.746065458E0,6.139973461E0,-1.667927620E0,3.425557669E0,7.226043315E0
5.756043458E0,5.625101565E0,-2.216533858E0,2.746099223E0,6.640470683E0
5.766021458E0,5.249230263E0,-2.687956265E0,1.962865271E0,6.215494132E0
5.775999458E0,5.151171872E0,-3.127209629E0,1.267436910E0,6.157954859E0
5.785977458E0,5.314253640E0,-3.504466136E0,6.725483523E-1,6.401163639E0
5.795955458E0,5.459613667E0,-3.905443043E0,3.666957043E-1,6.722673017E0
5.805932458E0,5.346686976E0,-4.273973749E0,3.194168727E-1,6.852440468E0
5.815910458E0,4.997974237E0,-4.584366176E0,2.918842345E-1,6.788324986E0
5.825888458E0,4.421547532E0,-4.708466896E0,2.617060968E-1,6.464381886E0
5.835866458E0,3.844442258E0,-4.759006720E0,1.326271302E-1,6.119270478E0
5.845844458E0,3.445002584E0,-4.854064904E0,-5.003981374E-2,5.952519877E0
5.855822458E0,3.066612010E0,-5.002923905E0,-2.068995597E-1,5.871640678E0
5.865799458E0,2.635163801E0,-5.200207207E0,-2.880981624E-1,5.836886482E0
5.875777458E0,2.125619595E0,-5.294180149E0,-3.479338896E-1,5.715562973E0
5.885755458E0,1.492812867E0,-5.350252023E0,-4.690045828E-1,5.574374608E0
5.895733458E0,9.937260409E-1,-5.287197989E0,-6.385329062E-1,5.417534337E0
5.905711458E0,6.963862080E-1,-5.113640934E0,-7.233397526E-1,5.211285614E0
5.915689458E0,6.467358919E-1,-4.988197108E0,-6.702043498E-1,5.074401597E0
5.925666458E0,8.166057658E-1,-4.930200915E0,-5.840526438E-1,5.031385846E0
5.935644458E0,1.163026981E0,-4.903452242E0,-5.544072604E-1,5.069895764E0
5.945622458E0,1.550086198E0,-4.841771718E0,-5.099263215E-1,5.109358614E0
5.955600458E0,1.758389894E0,-4.655536146E0,-5.174715686E-1,5.003371728E0
5.965578458E0,1.680729076E0,-4.369021409E0,-6.861076069E-1,4.731167081E0
5.975556458E0,1.352434522E0,-4.150406295E0,-9.384488761E-1,4.464934248E0
5.985533458E0,8.611888848E-1,-4.136131487E0,-1.163300119E0,4.382065397E0
5.995511458E0,2.720264324E-1,-4.283322278E0,-1.361493759E0,4.502722884E0
6.005489458E0,-1.679169770E-1,-4.356046438E0,-1.400925043E0,4.578856588E0
6.015467458E0,-2.712250349E-1,-4.375953283E0,-1.108730321E0,4.522368083E0
6.025445458E0,-8.412513413E-2,-4.370195530E0,-7.605075788E-1,4.436671927E0
6.035423458E0,2.154411358E-1,-4.319262189E0,-5.071734524E-1,4.354269818E0
6.045400458E0,3.371563748E-1,-4.433013337E0,-4.076643304E-1,4.464467704E0
6.055378458E0,1.335978410E-1,-4.571214033E0,-3.993426096E-1,4.590568662E0
6.065356458E0,-3.825356653E-1,-4.638128400E0,-2.142349283E-1,4.658805125E0
6.075334458E0,-1.049794846E0,-4.814382191E0,2.298541204E-1,4.932867119E0
6.085312458E0,-1.555321064E0,-5.098850402E0,5.941379213E-1,5.363795196E0
6.095290458E0,-1.636392417E0,-5.333181662E0,6.478773415E-1,5.616079757E0
6.105267458E0,-1.292434926E0,-5.406215140E0,5.127271378E-1,5.582153643E0
6.115245458E0,-7.129391639E-1,-5.248129817E0,1.303052191E-1,5.297936228E0
6.125223458E0,-3.715590528E-1,-5.075205431E0,-4.785793618E-1,5.111242951E0
6.135201458E0,-4.602035730E-1,-4.899822291E0,-1.001086589E0,5.022172853E0
6.145179458E0,-8.616131734E-1,-4.717217839E0,-1.209708812E0,4.945494597E0
6.155157458E0,-1.677997841E0,-4.667848628E0,-9.615518099E-1,5.052629954E0
6.165134458E0,-2.578676774E0,-4.646062487E0,-3.444904643E-1,5.324860958E0
6.175112458E0,-2.871496856E0,-4.479843687E0,4.667884880E-1,5.341571412E0
6.185090458E0,-2.201152027E0,-4.492513434E0,1.046456305E0,5.111048620E0
6.195068375E0,-5.853235361E-1,-4.455053832E0,1.089242721E0,4.623478992E0
6.205046375E0,9.956930443E-1,-4.486633474E0,3.563900598E-1,4.609587665E0
6.215024375E0,1.348258002E0,-4.568630149E0,-6.192306626E-1,4.803501607E0
6.225001375E0,3.517812844E-1,-4.040166984E0,-1.379322504E0,4.283600110E0
6.234979375E0,-1.413806459E0,-3.402763760E0,-1.644676752E0,4.035171809E0
6.244957375E0,-3.141466603E0,-3.149929571E0,-1.089963244E0,4.580271672E0
6.254935375E0,-4.219431506E0,-3.064624541E0,5.711150944E-2,5.215245684E0
6.264913375E0,-4.507818814E0,-3.019478774E0,1.160045924E0,5.548278027E0
6.274891375E0,-4.304404998E0,-3.126696829E0,1.792630019E0,5.614058945E0
6.284868375E0,-3.974337276E0,-3.562605001E0,1.745488597E0,5.615535738E0
6.294846375E0,-4.223178402E0,-3.920566866E0,1.085189431E0,5.863762995E0
6.304824375E0,-4.822838434E0,-3.764501756E0,-4.858743846E-3,6.118109810E0
6.314802375E0,-5.360880507E0,-3.373069845E0,-9.313412932E-1,6.401877584E0
6.324780375E0,-5.683312935E0,-2.656454975E0,-1.391336486E0,6.425933097E0
6.334758375E0,-5.488176731E0,-2.074506159E0,-1.482255427E0,6.051507315E0
6.344735375E0,-4.960143921E0,-1.626715860E0,-1.385055115E0,5.400704573E0
6.354713375E0,-4.527140645E0,-1.365120787E0,-1.085529739E0,4.851487607E0
6.364691375E0,-4.687944338E0,-1.595098211E0,-4.963999575E-1,4.976703059E0
6.374669375E0,-5.127246820E0,-2.045537884E0,2.872345287E-1,5.527692906E0
6.384647375E0,-5.360148436E0,-2.451334065E0,1.256601142E0,6.026547634E0
6.394625375E0,-5.408334755E0,-1.992697765E0,2.310463530E0,6.209603122E0
6.404602375E0,-5.178274301E0,-6.577983123E-1,3.204946023E0,6.125267534E0
6.414580375E0,-4.692422136E0,7.972725320E-1,4.150434362E0,6.315106839E0
6.424558375E0,-4.240147607E0,2.071832812E0,5.149318305E0,6.984756397E0
6.434536375E0,-4.280161273E0,2.958419809E0,6.024300917E0,7.960165189E0
6.444514375E0,-4.686225549E0,3.508664437E0,6.775971014E0,8.954619993E0
6.454492375E0,-5.109571272E0,3.730991364E0,7.380060897E0,9.720767150E0
6.464469375E0,-5.503274242E0,3.610531120E0,7.902506107E0,1.028453038E1
6.474447375E0,-5.667675726E0,3.409973962E0,8.248721500E0,1.057316778E1
6.484425375E0,-5.334727081E0,3.606347437E0,8.286704428E0,1.049449976E1
6.494403375E0,-4.510279322E0,3.960080010E0,8.304016864E0,1.024605043E1
6.504381375E0,-3.418453594E0,4.160038413E0,8.395888317E0,9.974100721E0
6.514359375E0,-2.548149923E0,4.103966539E0,8.403808370E0,9.693276252E0
6.524336375E0,-1.994391265E0,3.873127236E0,8.090694650E0,9.189017957E0
6.534314375E0,-1.587185612E0,3.529590452E0,7.481315961E0,8.423019378E0
6.544292375E0,-1.078223277E0,3.125497565E0,6.889445590E0,7.641711915E0
6.554270375E0,-1.684573328E-1,2.922770505E0,6.686570596E0,7.299396662E0
6.564248375E0,8.202976978E-1,2.866423227E0,6.699057325E0,7.332573864E0
6.574226375E0,1.254762924E0,2.783982164E0,6.518415783E0,7.198244995E0
6.584203375E0,1.011466347E0,2.760645926E0,6.088841899E0,6.761525403E0
6.594181375E0,5.644657870E-1,2.786592361E0,5.662436036E0,6.336158180E0
6.604159375E0,1.606061850E-1,2.549079630E0,5.393319690E0,5.967537062E0
6.614137375E0,-1.846216864E-1,2.107687939E0,5.094945631E0,5.516783900E0
6.624115375E0,-4.264201152E-1,1.674675892E0,4.674914988E0,4.984095063E0
6.634093375E0,-4.019998403E-1,1.325083147E0,4.433622617E0,4.644831400E0
6.644070375E0,-8.351978285E-2,9.249809843E-1,4.430967981E0,4.527255529E0
6.654048375E0,2.138338824E-1,5.881813627E-1,4.386456637E0,4.430878476E0
6.664026375E0,5.466816998E-1,4.304597372E-1,4.314014897E0,4.369768987E0
6.674004375E0,8.447191787E-1,2.836016536E-1,4.150250759E0,4.244827647E0
6.683982375E0,9.671380205E-1,2.605478364E-1,3.872739565E0,4.000169105E0
6.693960375E0,9.808844590E-1,1.810292119E-1,3.736107092E0,3.866962904E0
6.703937375E0,1.041774147E0,8.386076689E-3,3.886112732E0,4.023336410E0
6.713915375E0,1.289829846E0,-2.718896806E-2,4.081778694E0,4.280808052E0
6.723893375E0,1.732249478E0,1.258928919E-1,4.207609021E0,4.551978795E0
6.733871375E0,2.191006376E0,2.840553975E-1,4.062454816E0,4.624363258E0
6.743849375E0,2.534128300E0,4.830981266E-1,3.653831506E0,4.472770362E0
6.753827375E0,2.723916056E0,5.985578316E-1,3.112218246E0,4.178982241E0
6.763804375E0,3.063158060E0,5.392752510E-1,2.588201889E0,4.046300052E0
6.773782375E0,3.656217754E0,3.357570630E-1,2.218049456E0,4.289569263E0
6.783760375E0,4.439045910E0,6.357736051E-2,1.948540177E0,4.848296556E0
6.793738375E0,5.253120416E0,-2.667166489E-1,1.813429442E0,5.563716224E0
6.803716375E0,5.788941132E0,-5.817084950E-1,2.028237142E0,6.161490900E0
6.813694375E0,6.123252178E0,-6.716497815E-1,2.410889459E0,6.614961727E0
6.823671375E0,6.386379222E0,-6.625778264E-1,2.735096517E0,6.978939884E0
6.833649375E0,6.402262598E0,-7.185397732E-1,2.843226153E0,7.041960007E0
6.843627375E0,6.384998109E0,-6.675081986E-1,2.673260458E0,6.954141897E0
6.853605375E0,6.423345319E0,-5.557322395E-1,2.201561770E0,6.812861193E0
6.863583375E0,6.376058886E0,-4.675363469E-1,1.758371183E0,6.630579641E0
6.873561375E0,6.045052101E0,-3.077962625E-1,1.612623193E0,6.264020036E0
6.883538375E0,5.488097209E0,-2.022528505E-1,1.819652926E0,5.785434639E0
6.893516375E0,4.872678931E0,-1.578625435E-1,2.207387936E0,5.351680301E0
6.903494375E0,4.464234545E0,-2.059202242E-1,2.423222114E0,5.083679635E0
6.913472375E0,4.297553231E0,-2.801593977E-1,2.414060989E0,4.937118949E0
6.923450375E0,4.276860812E0,-3.085031909E-1,2.138739285E0,4.791755248E0
6.933428375E0,4.318879781E0,-2.532107502E-1,1.760644580E0,4.670835855E0
6.943405375E0,4.124515994E0,-2.642994100E-1,1.517424967E0,4.402733797E0
6.953383375E0,3.793475879E0,-4.174338949E-1,1.460082200E0,4.086141253E0
6.963361375E0,3.591999539E0,-6.838248539E-1,1.443405357E0,3.931093505E0
6.973339375E0,3.574593840E0,-9.916164386E-1,1.406950014E0,3.967434010E0
6.983317375E0,3.735184110E0,-1.352267438E0,1.445551577E0,4.227274171E0
6.993295375E0,3.962047306E0,-1.733776624E0,1.668959069E0,4.635647162E0
7.003272375E0,4.126340910E0,-2.117235273E0,1.923559118E0,5.020901730E0
7.013250375E0,4.302928576E0,-2.454042495E0,2.103967355E0,5.381839605E0
7.023228375E0,4.340086462E0,-2.742470441E0,2.102369311E0,5.547742905E0
7.033206375E0,4.218973377E0,-3.145137777E0,1.937506920E0,5.607634177E0
7.043184375E0,4.096191496E0,-3.675573792E0,1.655920217E0,5.747234051E0
7.053162375E0,4.000403871E0,-4.315829288E0,1.377702826E0,6.043813254E0
7.063139375E0,3.811038576E0,-4.750905402E0,1.181757367E0,6.204165346E0
7.073117375E0,3.541454453E0,-4.916065271E0,9.895623118E-1,6.139122980E0
7.083095375E0,3.290044645E0,-5.070437027E0,8.082161808E-1,6.098109445E0
7.093073375E0,2.958875015E0,-5.324963985E0,6.320553607E-1,6.124514411E0
7.103051375E0,2.599430004E0,-5.549426900E0,3.850748187E-1,6.140151291E0
7.113029375E0,2.247131753E0,-5.528690334E0,1.659977746E-1,5.970223881E0
7.123006375E0,1.749206695E0,-5.310551183E0,3.177844763E-2,5.591304660E0
7.132984375E0,1.215232238E0,-5.125056453E0,-3.237131875E-2,5.267261237E0
7.142962375E0,7.901011413E-1,-5.085241007E0,-4.851946458E-3,5.146256839E0
7.152940375E0,4.238797923E-1,-5.272758874E0,2.194810867E-2,5.289814925E0
7.162918375E0,3.516961344E-2,-5.413364530E0,1.016269469E-1,5.414432609E0
7.172896375E0,-2.467388327E-1,-5.399886113E0,2.098987428E-1,5.409594030E0
7.182873375E0,-4.352339157E-1,-5.284115921E0,2.874748492E-1,5.309797682E0
7.192851833E0,-5.816740695E-1,-4.911957017E0,2.881051060E-1,4.954661544E0
7.202829833E0,-7.174787229E-1,-4.528461531E0,1.183814856E-1,4.586475088E0
7.212807833E0,-9.101484255E-1,-4.399048616E0,-4.318541519E-2,4.492422939E0
7.222785833E0,-1.151852367E0,-4.434440643E0,1.995296560E-2,4.581640078E0
7.232763833E0,-1.456188686E0,-4.412155734E0,3.092486378E-1,4.656526434E0
7.242740833E0,-1.655063746E0,-4.288209965E0,6.053237180E-1,4.636205077E0
7.252718833E0,-1.614935913E0,-4.133462818E0,5.656232433E-1,4.473640858E0
7.262696833E0,-1.546215926E0,-3.949622265E0,2.304611345E-1,4.247753767E0
7.272674833E0,-1.570825395E0,-3.817404440E0,-7.701959766E-2,4.128680310E0
7.282652833E0,-1.674255916E0,-3.754921094E0,-2.213732457E-1,4.117228607E0
7.292630833E0,-1.745580837E0,-3.690172536E0,-2.964316873E-1,4.092957066E0
7.302607833E0,-1.919943054E0,-3.618892638E0,-3.103843132E-1,4.108394294E0
7.312585833E0,-2.208885408E0,-3.531991319E0,-2.424782590E-1,4.172880675E0
7.322563833E0,-2.685216844E0,-3.364998933E0,9.271454774E-3,4.305077616E0
7.332541833E0,-3.495312612E0,-3.415676166E0,3.947444323E-1,4.903047736E0
7.342519833E0,-4.225465541E0,-3.604566960E0,8.121466792E-1,5.613113595E0
7.352497833E0,-4.565981360E0,-3.785586816E0,1.023192573E0,6.018785290E0
7.362475833E0,-4.511945194E0,-3.955387035E0,8.551611364E-1,6.060861044E0
7.372452833E0,-3.967275594E0,-3.839448443E0,3.718162572E-1,5.533433592E0
7.382430833E0,-3.186988346E0,-3.420828733E0,-2.223339432E-1,4.680640589E0
7.392408833E0,-2.929695655E0,-3.281869653E0,-6.675918138E-1,4.449658850E0
7.402386833E0,-3.195850094E0,-3.350487898E0,-8.659439868E-1,4.710529266E0
7.412364833E0,-3.585018256E0,-3.542728561E0,-8.923353946E-1,5.118549014E0
7.422341833E0,-3.951750359E0,-3.929837041E0,-6.137162266E-1,5.606834908E0
7.432319833E0,-4.050099065E0,-4.298701040E0,-2.675358438E-1,5.912166142E0
7.442297833E0,-3.974234950E0,-4.517517883E0,-5.854860887E-2,6.017137126E0
7.452275833E0,-3.818252871E0,-4.665411508E0,8.302212998E-2,6.029262990E0
7.462253833E0,-3.166003859E0,-4.424127324E0,2.126274191E-1,5.444418557E0
7.472231833E0,-2.242164105E0,-3.911924681E0,3.990110725E-1,4.526551051E0
7.482209833E0,-2.401363029E0,-3.150334198E0,4.732107773E-1,3.989370677E0
7.492186833E0,-2.969078114E0,-2.389422576E0,5.136585993E-1,3.845596215E0
7.502164833E0,-3.804450811E0,-1.874333163E0,7.770245013E-1,4.311697793E0
7.512142833E0,-4.769137898E0,-1.634923012E0,1.245386183E0,5.193133571E0
7.522120833E0,-5.140254536E0,-1.413838034E0,1.625859827E0,5.573560339E0
7.532098833E0,-5.067667785E0,-1.014891865E0,1.741863908E0,5.453929973E0
7.542076833E0,-4.644070048E0,-3.581542379E-1,1.552914643E0,4.909908854E0
7.552053833E0,-3.968204424E0,6.045564902E-1,1.335941427E0,4.230469761E0
7.562031833E0,-3.372894136E0,1.598566194E0,1.296020731E0,3.951138882E0
7.572009833E0,-3.318896561E0,2.298702441E0,1.393074571E0,4.270803678E0
7.581987833E0,-3.972789811E0,2.770891417E0,1.736527739E0,5.145524921E0
7.591965833E0,-4.823346557E0,3.196105617E0,2.527931128E0,6.314285305E0
7.601943833E0,-5.594410699E0,3.372863438E0,3.453504143E0,7.389203591E0
7.611920833E0,-6.163625448E0,3.456480961E0,4.346231009E0,8.296219819E0
7.621898833E0,-6.329004003E0,3.505043256E0,4.840443231E0,8.704683255E0
7.631876833E0,-6.278172403E0,3.646449396E0,4.782873300E0,8.694131292E0
7.641854833E0,-6.153485207E0,3.821812071E0,4.378852333E0,8.464394571E0
7.651832833E0,-5.894245393E0,3.905260025E0,3.972098377E0,8.109916777E0
7.661809833E0,-5.535927433E0,3.968311720E0,3.755820980E0,7.778186272E0
7.671787833E0,-4.816683947E0,4.099817939E0,3.941597546E0,7.452861370E0
7.681765833E0,-3.762655498E0,4.083477895E0,4.518530036E0,7.158874339E0
7.691743833E0,-2.785274983E0,3.997563002E0,5.115429012E0,7.064409435E0
7.701721833E0,-2.032840509E0,3.858359508E0,5.650853872E0,7.138033910E0
7.711699833E0,-1.537763630E0,3.491958942E0,6.084433683E0,7.181840118E0
7.721677833E0,-1.203261379E0,2.958822682E0,6.266613627E0,7.033698598E0
7.731654833E0,-9.545570782E-1,2.635085741E0,6.357223835E0,6.947600375E0
7.741632833E0,-6.525533599E-1,2.428791879E0,6.392787185E0,6.869685865E0
7.751610833E0,-1.751602519E-1,2.310982178E0,6.222996322E0,6.640557429E0
7.761588833E0,5.280265237E-1,2.312448660E0,5.977420281E0,6.430846292E0
7.771566833E0,1.346597685E0,2.292749391E0,5.679847291E0,6.271418527E0
7.781544833E0,2.021213759E0,2.364579511E0,5.150554991E0,6.017038976E0
7.791521833E0,2.171526816E0,2.374803953E0,4.434755223E0,5.479258747E0
7.801499833E0,1.915686134E0,2.196899493E0,3.789720798E0,4.781025462E0
7.811477833E0,1.555279841E0,2.052021861E0,3.328238658E0,4.207952194E0
7.821455833E0,1.321508598E0,1.897448961E0,3.000984031E0,3.788482901E0
7.831433833E0,1.193559533E0,1.746851583E0,2.638746098E0,3.382167320E0
7.841411833E0,1.211908023E0,1.735553008E0,2.206654403E0,3.057807867E0
7.851388833E0,1.425380876E0,1.768747067E0,1.774728768E0,2.882679141E0
7.861366833E0,1.660348898E0,1.819114982E0,1.433059586E0,2.849490754E0
7.871344833E0,1.759051506E0,1.817234518E0,1.423967458E0,2.902462199E0
7.881322833E0,1.778268965E0,1.635921131E0,1.871406632E0,3.056246267E0
7.891300833E0,1.779883528E0,1.407447612E0,2.581084365E0,3.436697638E0
7.901278833E0,1.741206389E0,1.125896577E0,3.358548577E0,3.947061101E0
7.911255833E0,1.792316608E0,8.596517980E-1,3.880670729E0,4.360161160E0
7.921233833E0,2.082475330E0,7.734638393E-1,3.962345514E0,4.542590867E0
7.931211833E0,2.501610180E0,8.165373534E-1,3.623368097E0,4.478122721E0
7.941189833E0,2.805827946E0,7.595983368E-1,2.975505958E0,4.159723044E0
7.951167833E0,2.990841451E0,6.777215302E-1,2.346482379E0,3.861401120E0
7.961145833E0,2.939844082E0,6.332353288E-1,1.911832819E0,3.563534052E0
7.971122833E0,2.786648202E0,5.353646332E-1,1.755103174E0,3.336526733E0
7.981100833E0,2.701455731E0,4.475780457E-1,1.887613360E0,3.325849271E0
7.991078833E0,2.578037966E0,3.603206313E-1,2.224956188E0,3.424403707E0
8.001056833E0,2.605531574E0,2.448808068E-1,2.609564983E0,3.695753075E0
8.011034833E0,2.781703796E0,1.281405616E-1,2.785222943E0,3.938497538E0
8.021012833E0,3.135649793E0,2.173468530E-2,2.700521346E0,4.138307331E0
8.030989833E0,3.499858823E0,-7.216224253E-2,2.478461930E0,4.289171564E0
8.040967833E0,3.775096911E0,-1.978563291E-1,2.323995742E0,4.437506059E0
8.050945833E0,4.016890973E0,-3.153859484E-1,2.241723663E0,4.610879132E0
8.060923833E0,4.164589886E0,-5.511942154E-1,2.161529685E0,4.724387216E0
8.070901833E0,4.296191999E0,-7.563127863E-1,2.026364864E0,4.809930279E0
8.080879833E0,4.413410839E0,-8.618784177E-1,1.847692080E0,4.861583658E0
8.090856833E0,4.659647323E0,-9.261574441E-1,1.669545984E0,5.035619582E0
8.100834833E0,4.977656332E0,-9.744256246E-1,1.493870044E0,5.287552890E0
8.110812833E0,5.290860100E0,-9.692099082E-1,1.345199031E0,5.544558492E0
8.120790833E0,5.468233632E0,-9.419151056E-1,1.244745913E0,5.686666467E0
8.130768833E0,5.518799769E0,-9.194056642E-1,1.319190908E0,5.748279944E0
8.140746833E0,5.447429824E0,-9.422478122E-1,1.623103596E0,5.761665376E0
8.150723833E0,5.242128235E0,-1.013274525E0,1.949062772E0,5.683790935E0
8.160701833E0,4.944226631E0,-1.118210412E0,2.060892672E0,5.472024315E0
8.170679833E0,4.609995691E0,-1.221852894E0,1.970918787E0,5.160378439E0
8.180657833E0,4.247064863E0,-1.339340998E0,1.817867187E0,4.809993281E0
8.190635833E0,3.905457076E0,-1.445703020E0,1.768802615E0,4.524523719E0
8.200616458E0,3.605515378E0,-1.586317447E0,1.742606505E0,4.307298645E0
8.210593458E0,3.338502860E0,-1.742374955E0,1.647398631E0,4.110400720E0
8.220571458E0,3.102931113E0,-1.905791768E0,1.454199024E0,3.921086400E0
8.230549458E0,2.886540572E0,-2.027765272E0,1.200304735E0,3.726215228E0
8.240527458E0,2.576951553E0,-2.220832731E0,9.521103108E-1,3.532604050E0
8.250505458E0,2.159468249E0,-2.380349452E0,7.000461996E-1,3.289290397E0
8.260483458E0,1.763344824E0,-2.455731756E0,5.027178741E-1,3.064755894E0
8.270460458E0,1.406374940E0,-2.544835137E0,4.571973002E-1,2.943315429E0
8.280438458E0,1.204702279E0,-2.687318333E0,5.777855249E-1,3.001137038E0
8.290416458E0,1.199131491E0,-2.844762801E0,8.251087868E-1,3.195527536E0
8.300394458E0,1.217449794E0,-2.978860506E0,1.087233617E0,3.396744155E0
8.310372458E0,1.342025747E0,-3.025741727E0,1.195482097E0,3.519278839E0
8.320350458E0,1.404753069E0,-3.122113196E0,1.207164688E0,3.630174731E0
8.330327458E0,1.370597874E0,-3.245748478E0,1.191041576E0,3.719139921E0
8.340305458E0,1.296029210E0,-3.373101420E0,1.170608042E0,3.798398095E0
8.350283458E0,1.214427222E0,-3.447431225E0,1.152585608E0,3.832501678E0
8.360261458E0,1.053760208E0,-3.540106085E0,1.203077484E0,3.884605141E0
8.370239458E0,8.428802294E-1,-3.660551126E0,1.378611044E0,4.001331033E0
8.380217458E0,6.435458703E-1,-3.755606972E0,1.552624182E0,4.114532399E0
8.390194458E0,5.383737566E-1,-3.796306517E0,1.645655284E0,4.172525708E0
8.400172458E0,5.314876369E-1,-3.851090249E0,1.671427764E0,4.231671772E0
8.410150458E0,5.052953998E-1,-3.909414471E0,1.638957152E0,4.269077827E0
8.420128458E0,4.791962796E-1,-4.030898563E0,1.580863895E0,4.356248725E0
8.430106458E0,4.687586343E-1,-4.170175731E0,1.379882375E0,4.417485219E0
8.440084458E0,4.033255868E-1,-4.137381037E0,1.035994467E0,4.284142611E0
8.450061458E0,1.239997827E-1,-4.025591045E0,6.497855803E-1,4.079580923E0
8.460039458E0,-4.273759156E-1,-4.096704882E0,4.059800765E-1,4.138896095E0
8.470017458E0,-9.364534407E-1,-4.193652302E0,3.079886359E-1,4.307960269E0
8.479995458E0,-1.300195936E0,-4.291110769E0,3.622069430E-1,4.498370257E0
8.489973458E0,-1.533820999E0,-4.310849215E0,4.590828811E-1,4.598563352E0
8.499951458E0,-1.462806126E0,-4.110006713E0,5.359701124E-1,4.395363569E0
8.509928458E0,-1.319138137E0,-3.887141258E0,5.636658879E-1,4.143393756E0
8.519906458E0,-1.404369637E0,-3.828417671E0,4.297146557E-1,4.100450052E0
8.529884458E0,-1.616853069E0,-3.873103847E0,1.043985271E-1,4.198338517E0
8.539862458E0,-1.926710913E0,-4.015487056E0,-3.066525471E-1,4.464346204E0
8.549840458E0,-2.214802205E0,-4.213189019E0,-6.321394144E-1,4.801657085E0
8.559818458E0,-2.057082334E0,-4.170844068E0,-8.202370329E-1,4.722321120E0
8.569795458E0,-1.664065242E0,-3.980879141E0,-7.969045959E-1,4.387660972E0
8.579773458E0,-1.437080277E0,-4.046092553E0,-5.652256326E-1,4.330767216E0
8.589751458E0,-1.368623562E0,-4.246449736E0,-2.668796401E-1,4.469529120E0
8.599729458E0,-1.359377652E0,-4.428377080E0,5.699982762E-2,4.632675268E0
8.609707458E0,-1.601618295E0,-4.596923071E0,3.014648974E-1,4.877270135E0
8.619685458E0,-1.902307705E0,-4.522909015E0,4.066084329E-1,4.923495809E0
8.629662458E0,-1.958597973E0,-4.179219035E0,4.241266179E-1,4.634852872E0
8.639640458E0,-1.915219088E0,-3.762376878E0,4.408122325E-1,4.244744910E0
8.649618458E0,-1.923876476E0,-3.294908359E0,4.454478685E-1,3.841372878E0
8.659596458E0,-2.046714928E0,-2.992108542E0,2.417390978E-1,3.633207029E0
8.669574458E0,-2.215044865E0,-3.019827268E0,-4.020545483E-2,3.745316670E0
8.679552458E0,-2.459642374E0,-3.214451256E0,-3.097118104E-1,4.059366809E0
8.689529458E0,-2.698714264E0,-3.094905517E0,-4.646519154E-1,4.132481124E0
8.699507458E0,-2.919432914E0,-2.755046048E0,-3.961301494E-1,4.033644303E0
8.709485458E0,-3.142228203E0,-2.184223314E0,-1.057047951E-1,3.828263714E0
8.719463458E0,-3.494550428E0,-1.634800220E0,2.430336714E-1,3.865684909E0
8.729441458E0,-3.985117788E0,-1.399715254E0,4.755056633E-1,4.250467293E0
8.739419458E0,-4.530373571E0,-1.330365522E0,6.290522307E-1,4.763387851E0
8.749396458E0,-5.062486567E0,-1.349501120E0,7.368140763E-1,5.290823991E0
8.759374458E0,-5.573369493E0,-1.383317907E0,7.818043077E-1,5.795449415E0
8.769352458E0,-5.849732294E0,-1.114851186E0,8.555979234E-1,6.016170616E0
8.779330458E0,-5.817750363E0,-9.281338030E-1,9.873368615E-1,5.973481876E0
8.789308458E0,-5.549196519E0,-7.893711895E-1,9.932437187E-1,5.692382802E0
8.799286458E0,-5.250126057E0,-4.877630353E-1,9.567073917E-1,5.358826870E0
8.809263458E0,-5.107521822E0,-1.371540445E-1,9.741739020E-1,5.201404156E0
8.819241458E0,-5.022595693E0,1.427615243E-1,9.800103003E-1,5.119303521E0
8.829219458E0,-5.038038774E0,3.415621787E-1,1.091298894E0,5.166181635E0
8.839197458E0,-5.109221023E0,6.666714621E-1,1.416325439E0,5.343647448E0
8.849175458E0,-5.277441909E0,9.175368941E-1,1.991977388E0,5.715001398E0
8.859153458E0,-5.484878901E0,9.589223170E-1,2.685459211E0,6.181837894E0
8.869130458E0,-5.599962046E0,8.991409689E-1,3.262438186E0,6.543052217E0
8.879108458E0,-5.580818262E0,8.162917703E-1,3.571372901E0,6.675819734E0
8.889086458E0,-5.471230330E0,9.520793205E-1,3.591056383E0,6.613357869E0
8.899064458E0,-5.201650300E0,1.333286791E0,3.541846216E0,6.432689494E0
8.909042458E0,-4.945627039E0,1.692327467E0,3.509829495E0,6.296197435E0
8.919020458E0,-4.811653295E0,2.100145031E0,3.531840461E0,6.327441317E0
8.928997458E0,-4.526760284E0,2.488845708E0,3.671243345E0,6.337502609E0
8.938975458E0,-4.076914688E0,2.720092562E0,3.881148446E0,6.251675790E0
8.948953458E0,-3.600148804E0,2.839010310E0,4.032934563E0,6.106194571E0
8.958931458E0,-3.355221511E0,2.916689985E0,4.010866002E0,5.987623731E0
8.968909458E0,-3.513545108E0,2.906976591E0,3.812061839E0,5.943679634E0
8.978887458E0,-3.880993495E0,2.913161775E0,3.600882044E0,6.042762078E0
8.988864458E0,-3.912680141E0,3.046077758E0,3.694576074E0,6.183651669E0
8.998842458E0,-3.315989326E0,2.967090061E0,4.371034606E0,6.237415503E0
9.008820458E0,-2.541794584E0,2.753758491E0,5.139893762E0,6.361007265E0
9.018798458E0,-1.561856351E0,2.665806427E0,5.807556912E0,6.578270020E0
9.028776458E0,-5.154528174E-1,2.636508368E0,6.303328879E0,6.851921113E0
9.038754458E0,3.716020299E-1,2.748391916E0,6.495937917E0,7.063211423E0
9.048731458E0,8.642816234E-1,2.898082391E0,6.268409892E0,6.959800776E0
9.058709458E0,1.106037093E0,2.863839927E0,5.689082383E0,6.464561512E0
9.068687458E0,1.398808351E0,2.724756301E0,4.993130404E0,5.857671289E0
9.078665458E0,1.774793526E0,2.637722835E0,4.439490298E0,5.460453088E0
9.088643458E0,2.125757736E0,2.654398509E0,3.996945536E0,5.247880621E0
9.098621458E0,2.308439224E0,2.636395517E0,3.654169475E0,5.062847768E0
9.108598458E0,2.312160831E0,2.429975941E0,3.430523124E0,4.797849485E0
9.118576458E0,2.263044366E0,2.103893096E0,3.387462181E0,4.585044819E0
9.128554458E0,2.200584700E0,1.698096914E0,3.488175501E0,4.460210138E0
9.138532458E0,2.282318104E0,1.343149289E0,3.513778704E0,4.399962127E0
9.148510458E0,2.566191215E0,1.067121534E0,3.396497299E0,4.388653509E0
9.158488458E0,2.978958154E0,8.169647849E-1,3.170724024E0,4.426636870E0
9.168465458E0,3.299354874E0,5.999196482E-1,2.828121040E0,4.386788665E0
9.178443458E0,3.375009659E0,4.957187569E-1,2.446230615E0,4.197674535E0
9.188421458E0,3.464861190E0,3.325457722E-1,1.998275424E0,4.013596197E0
9.198399583E0,3.592478718E0,1.597453469E-1,1.596638367E0,3.934549020E0
9.208377583E0,3.755474825E0,-3.301045597E-2,1.250127690E0,3.958219308E0
9.218355583E0,3.861293056E0,-1.047189546E-1,1.052194762E0,4.003456499E0
9.228332583E0,3.835438130E0,-1.039301652E-1,1.019708217E0,3.970036773E0
9.238310583E0,3.779649261E0,-1.578023171E-1,1.069456912E0,3.931206964E0
9.248288583E0,3.624919948E0,-1.816554487E-1,1.105011199E0,3.793954808E0
9.258266583E0,3.366584990E0,-3.625916898E-2,1.221120238E0,3.581388538E0
9.268244583E0,3.176468621E0,8.362687826E-2,1.459139629E0,3.496574725E0
9.278222583E0,2.971317890E0,2.247541058E-1,1.767960909E0,3.464813153E0
9.288199583E0,2.556806433E0,2.933436996E-1,2.043688117E0,3.286330900E0
9.298177583E0,2.114480065E0,3.495985919E-1,2.239555223E0,3.099814949E0
9.308155583E0,1.907933165E0,4.411478627E-1,2.281999285E0,3.007048575E0
9.318133583E0,1.814410313E0,4.587357026E-1,2.204261430E0,2.891589818E0
9.328111583E0,1.866162703E0,4.288710487E-1,2.074803490E0,2.823349630E0
9.338089583E0,2.242499589E0,4.487124056E-1,1.882649658E0,2.962181116E0
9.348066583E0,2.782794009E0,5.539529318E-1,1.747217619E0,3.332202839E0
9.358044583E0,3.473435255E0,6.378756791E-1,1.756581058E0,3.944263539E0
9.368022583E0,4.097345152E0,6.876044941E-1,1.954519248E0,4.591424912E0
9.378000583E0,4.356594322E0,5.765296161E-1,2.254711937E0,4.939233382E0
9.387978583E0,4.518071614E0,5.092778653E-1,2.633547338E0,5.254322662E0
9.397956583E0,4.588110148E0,3.215506679E-1,2.880640147E0,5.426991544E0
9.407933583E0,4.556041971E0,1.639442325E-2,3.055902835E0,5.486012154E0
9.417911583E0,4.628906171E0,-1.624759966E-1,3.101032814E0,5.574008908E0
9.427889583E0,4.713302251E0,-4.365040040E-1,2.943028768E0,5.573793339E0
9.437867583E0,4.798803454E0,-8.035828471E-1,2.691992598E0,5.560672992E0
9.447845583E0,4.928128077E0,-1.167202477E0,2.317181250E0,5.569392867E0
9.457823583E0,4.978307712E0,-1.524846838E0,1.894514828E0,5.540567840E0
9.467800583E0,4.945283808E0,-1.825375012E0,1.505080472E0,5.482070147E0
9.477778583E0,4.772825444E0,-1.913665044E0,1.274595364E0,5.297789158E0
9.487756583E0,4.351930290E0,-2.179252596E0,1.136477186E0,4.998001553E0
9.497734583E0,4.088621983E0,-2.439614491E0,1.295419638E0,4.934233540E0
9.507712583E0,3.739470996E0,-2.614367886E0,1.627081895E0,4.844167448E0
9.517690583E0,3.190306349E0,-2.815581102E0,1.796330722E0,4.618696310E0
9.527667583E0,2.786483310E0,-3.064444447E0,1.895817003E0,4.555154346E0
9.537645583E0,2.349881658E0,-3.346270886E0,1.846239046E0,4.486431908E0
9.547623583E0,1.945779268E0,-3.621665388E0,1.657674528E0,4.432877393E0
9.557601583E0,1.597843040E0,-3.665786723E0,1.402627167E0,4.237742046E0
9.567579583E0,1.380182045E0,-3.501979900E0,1.146037896E0,3.934738690E0
9.577557583E0,1.295935362E0,-3.264404604E0,9.760377020E-1,3.645330641E0
9.587534583E0,1.255567355E0,-3.136047696E0,1.015035707E0,3.527257011E0
9.597512583E0,1.150172973E0,-3.154025545E0,1.069142332E0,3.523328020E0
9.607490583E0,1.093708239E0,-3.266570998E0,1.030429087E0,3.595617874E0
9.617468583E0,9.843645756E-1,-3.345779135E0,8.589080322E-1,3.591787110E0
9.627446583E0,6.857011523E-1,-3.338609279E0,5.981058419E-1,3.460379833E0
9.637424583E0,3.688858155E-1,-3.433538826E0,3.048224052E-1,3.466725012E0
9.647401583E0,2.077937086E-1,-3.741237440E0,4.883832056E-2,3.747321842E0
9.657379583E0,1.777949342E-1,-4.033653771E0,-1.138043948E-1,4.039173829E0
9.667357583E0,3.483398326E-1,-4.050039423E0,-2.366427012E-1,4.071874229E0
9.677335583E0,9.063993370E-1,-3.777289617E0,-3.241274993E-1,3.898016835E0
9.687313583E0,1.537298630E0,-3.540411310E0,-4.417676675E-1,3.884965636E0
9.697291583E0,1.794148249E0,-3.464188176E0,-4.251943195E-1,3.924328970E0
9.707268583E0,1.711429443E0,-3.443874949E0,-3.635074003E-1,3.862823194E0
9.717246583E0,1.356406389E0,-3.434415323E0,-3.272722049E-1,3.707041138E0
9.727224583E0,7.959959386E-1,-3.563697846E0,-4.028474307E-1,3.673668184E0
9.737202583E0,3.146718572E-1,-3.779747787E0,-4.817872174E-1,3.823301012E0
9.747180583E0,-3.910264255E-2,-3.962556891E0,-3.985660629E-1,3.982742904E0
9.757158583E0,-2.029421459E-1,-3.995493087E0,-2.629796569E-1,4.009277843E0
9.767135583E0,-3.954589256E-1,-4.014643888E0,-2.317543741E-1,4.040725603E0
9.777113583E0,-8.537851404E-1,-4.092907700E0,-2.417005245E-1,4.187990168E0
9.787091583E0,-1.398573000E0,-3.923253077E0,-1.247070674E-1,4.166950083E0
9.797069583E0,-1.961585315E0,-3.705608016E0,9.196149945E-2,4.193781663E0
9.807047583E0,-2.330979656E0,-3.616867747E0,2.487651122E-1,4.310113982E0
9.817025583E0,-2.420002052E0,-3.551954298E0,2.222830725E-1,4.303742445E0
9.827002583E0,-2.648626723E0,-3.589294032E0,-3.124051292E-2,4.460855427E0
9.836980583E0,-2.932073133E0,-3.670674410E0,-3.583928043E-1,4.711618500E0
9.846958583E0,-3.161726913E0,-3.798311527E0,-5.762735446E-1,4.975517935E0
9.856936583E0,-3.318970529E0,-3.861468472E0,-6.152756059E-1,5.128846674E0
9.866914583E0,-2.862852624E0,-3.475463946E0,-5.964282757E-1,4.542081184E0
9.876892583E0,-2.138159972E0,-2.944190025E0,-6.215495952E-1,3.691382786E0
9.886869583E0,-2.048799461E0,-2.774015585E0,-5.596872962E-1,3.493707424E0
9.896847583E0,-2.507001897E0,-2.949475324E0,-3.485519403E-1,3.886637577E0
9.906825583E0,-3.217104138E0,-3.216303070E0,-2.814074859E-2,4.549192936E0
9.916803583E0,-3.940502948E0,-3.457534629E0,2.561844979E-1,5.248594068E0
9.926781583E0,-4.263961854E0,-3.551339171E0,4.146023807E-1,5.564645158E0
9.936759583E0,-4.143580840E0,-3.623822426E0,3.857441787E-1,5.518165431E0
9.946736583E0,-3.531141426E0,-3.354786186E0,1.261928540E-1,4.872317186E0
9.956714583E0,-3.123478521E0,-2.952506520E0,-2.006928134E-1,4.302753819E0
9.966692583E0,-3.334703924E0,-2.624360193E0,-4.807124627E-1,4.270667530E0
9.976670583E0,-3.593883804E0,-2.295183586E0,-6.497813411E-1,4.313477053E0
9.986648583E0,-3.875382507E0,-2.188783557E0,-6.914385134E-1,4.504159217E0
9.996626583E0,-4.145881135E0,-1.922013699E0,-6.041758364E-1,4.609500568E0
1.000660358E1,-4.318919249E0,-1.439428373E0,-4.225165871E-1,4.572038691E0
1.001658158E1,-4.596147438E0,-1.068588601E0,-6.869572073E-2,4.719234257E0
1.002655958E1,-4.762116269E0,-8.347590315E-1,4.504154071E-1,4.855661442E0
1.003653758E1,-4.899549226E0,-6.467985302E-1,1.033077583E0,5.048879108E0
1.004651558E1,-5.009352919E0,-3.399138486E-1,1.515444223E0,5.244590478E0
1.005649358E1,-4.887760946E0,5.619232714E-2,1.832623805E0,5.220332811E0
1.006647058E1,-4.435426483E0,5.487038863E-1,2.098541432E0,4.937404195E0
1.007644858E1,-4.160254468E0,1.155925537E0,2.476162805E0,4.977475597E0
1.008642658E1,-4.315581951E0,1.678426881E0,3.001461164E0,5.518163960E0
1.009640458E1,-4.543047411E0,2.096101096E0,3.492733113E0,6.101811549E0
1.010638258E1,-4.609623808E0,2.293979060E0,3.924144192E0,6.473783996E0
1.011636058E1,-4.419801553E0,2.423252227E0,4.370152261E0,6.671208879E0
1.012633858E1,-4.090650090E0,2.576056929E0,4.642932472E0,6.702709109E0
1.013631558E1,-3.666166207E0,2.637575485E0,4.459560866E0,6.347067214E0
1.014629358E1,-3.339378481E0,2.739034617E0,3.894206448E0,5.815376439E0
1.015627158E1,-3.202930487E0,2.726301135E0,3.188176793E0,5.277873895E0
1.016624958E1,-3.243749315E0,2.666184742E0,2.649966905E0,4.965156120E0
1.017622758E1,-3.210769557E0,2.672543004E0,2.461572540E0,4.848800535E0
1.018620558E1,-2.843126750E0,2.722290530E0,2.745784643E0,4.799330032E0
1.019617983E1,-2.016358670E0,2.733631790E0,3.350379725E0,4.771109865E0
1.020615783E1,-1.132145423E0,2.785397190E0,3.835547765E0,4.873563114E0
1.021613583E1,-3.254881098E-1,2.990668958E0,4.071535542E0,5.062355676E0
1.022611383E1,1.450546561E-1,3.111902204E0,4.130716966E0,5.173760608E0
1.023609183E1,2.053099941E-1,2.986941943E0,4.096370421E0,5.073876722E0
1.024606883E1,1.219653171E-1,2.750730218E0,4.054440622E0,4.901008165E0
1.025604683E1,-4.102757335E-2,2.529340600E0,4.120832248E0,4.835339238E0
1.026602483E1,-1.730464469E-1,2.362706063E0,4.111449805E0,4.745139041E0
1.027600283E1,-3.900127923E-1,2.147843108E0,3.756036158E0,4.344323608E0
1.028598083E1,-4.794444939E-1,2.086283036E0,3.182699706E0,3.835625288E0
1.029595883E1,-4.851700875E-1,2.180506239E0,2.689677100E0,3.496335278E0
1.030593583E1,-5.684328304E-1,2.187667324E0,2.478041515E0,3.354056343E0
1.031591383E1,-7.180776970E-1,2.166743647E0,2.506261347E0,3.389949786E0
1.032589183E1,-8.436383209E-1,2.143655916E0,2.687515969E0,3.539735638E0
1.033586983E1,-8.205404303E-1,1.930630741E0,2.889242863E0,3.570482597E0
1.034584783E1,-5.750892276E-1,1.795416217E0,2.914736431E0,3.471301697E0
1.035582583E1,-2.869454569E-1,1.729227490E0,2.622912422E0,3.154716308E0
1.036580283E1,-4.827490479E-2,1.715564302E0,2.351833751E0,2.911462404E0
1.037578083E1,7.938998580E-2,1.686876692E0,2.265141177E0,2.825370825E0
1.038575883E1,-4.673606381E-3,1.626133477E0,2.324755587E0,2.837044319E0
1.039573683E1,-2.224804160E-1,1.606371642E0,2.363551571E0,2.866409499E0
1.040571483E1,-3.943420708E-1,1.639248197E0,2.391155691E0,2.925793202E0
1.041569283E1,-3.823888271E-1,1.704040024E0,2.524362865E0,3.069589792E0
1.042566983E1,-2.451475860E-1,1.718774423E0,2.598861655E0,3.125438331E0
1.043564783E1,4.368869601E-2,1.810981506E0,2.687011647E0,3.240616347E0
1.044562583E1,5.294487128E-1,1.981248917E0,2.875939278E0,3.532235827E0
1.045560383E1,1.266294510E0,2.188177786E0,3.304707708E0,4.160855302E0
1.046558183E1,1.964144934E0,2.377119450E0,3.985794895E0,5.039357414E0
1.047555983E1,2.578090006E0,2.452970701E0,4.770219340E0,5.951353283E0
1.048553683E1,3.082407971E0,2.475021721E0,5.357637641E0,6.658171860E0
1.049551483E1,3.363550578E0,2.412300977E0,5.576328185E0,6.944645744E0
1.050549283E1,3.466642837E0,2.307772642E0,5.544131076E0,6.934033207E0
1.051547083E1,3.597511709E0,2.151141522E0,5.343190341E0,6.791110614E0
1.052544883E1,3.890196135E0,1.999606251E0,4.982542266E0,6.630066256E0
1.053542683E1,4.191451702E0,1.784807029E0,4.575868709E0,6.456963524E0
1.054540383E1,4.784068178E0,1.580018241E0,4.360106452E0,6.662904340E0
1.055538183E1,5.595854377E0,1.300261717E0,4.302650834E0,7.177539337E0
1.056535983E1,6.429903556E0,1.029013476E0,4.290266431E0,7.798007087E0
1.057533783E1,7.174807840E0,7.791145885E-1,4.162524357E0,8.331356199E0
1.058531583E1,7.694893699E0,5.268627816E-1,3.985296713E0,8.681679752E0
1.059529383E1,7.961857100E0,1.777226114E-1,3.848958939E0,8.845181667E0
1.060527083E1,7.939436536E0,-3.826260048E-1,3.782617015E0,8.802797661E0
1.061524883E1,7.599000531E0,-9.898973572E-1,3.753642892E0,8.533143666E0
1.062522683E1,7.166543970E0,-1.510709440E0,3.648417569E0,8.182453559E0
1.063520483E1,6.770901479E0,-1.936382062E0,3.400715480E0,7.820457026E0
1.064518283E1,6.381179293E0,-2.282284044E0,3.075799740E0,7.442366133E0
1.065516083E1,6.005856460E0,-2.561440644E0,2.689767732E0,7.061596169E0
1.066513783E1,5.701298386E0,-2.740909234E0,2.190299156E0,6.694385491E0
1.067511583E1,5.459646996E0,-2.888158497E0,1.668921647E0,6.398007838E0
1.068509383E1,5.347614344E0,-3.063537544E0,1.201405765E0,6.278982184E0
1.069507183E1,5.250862221E0,-3.281172080E0,7.741222358E-1,6.239944673E0
1.070504983E1,5.099654979E0,-3.665125988E0,4.431604743E-1,6.295714464E0
1.071502783E1,4.776606254E0,-4.014531037E0,2.323285890E-1,6.243909298E0
1.072500483E1,4.347682873E0,-4.186656693E0,1.200550318E-1,6.036957333E0
1.073498283E1,3.951669083E0,-4.304613744E0,1.425212768E-1,5.845143312E0
1.074496083E1,3.591517729E0,-4.432170753E0,1.665099176E-1,5.707088814E0
1.075493883E1,3.300755867E0,-4.543440344E0,2.322993529E-1,5.620658542E0
1.076491683E1,3.085812220E0,-4.545532477E0,3.365516996E-1,5.504304643E0
1.077489483E1,2.801348102E0,-4.611273308E0,3.618676583E-1,5.407618784E0
1.078487283E1,2.471171329E0,-4.752589985E0,2.313756390E-1,5.361654035E0
1.079484983E1,2.044035295E0,-4.813002833E0,4.527513698E-2,5.229256773E0
1.080482783E1,1.466844798E0,-4.807008267E0,-1.184854929E-1,5.027225970E0
1.081480583E1,8.118798269E-1,-4.904843295E0,-7.699715897E-2,4.972179116E0
1.082478383E1,1.902133239E-1,-5.059912038E0,1.458051462E-1,5.065584871E0
1.083476183E1,-1.823748389E-1,-5.117454488E0,4.249746104E-1,5.138307546E0
1.084473983E1,-1.522797316E-1,-5.068682862E0,6.378460045E-1,5.110927763E0
1.085471683E1,2.040164439E-1,-5.000276286E0,7.524651723E-1,5.060690613E0
1.086469483E1,3.637712194E-1,-4.989651310E0,6.979141586E-1,5.051339810E0
1.087467283E1,2.132207653E-1,-5.013920764E0,4.969374628E-1,5.042996268E0
1.088465083E1,1.846752432E-1,-5.004715492E0,2.437857695E-1,5.014051616E0
1.089462883E1,2.955435683E-1,-5.064523737E0,4.482241631E-2,5.073337731E0
1.090460683E1,3.379996164E-1,-5.108636302E0,-3.657301828E-2,5.119936151E0
1.091458383E1,6.662946090E-2,-5.069799680E0,-1.005417037E-1,5.071234260E0
1.092456183E1,-4.246702628E-1,-4.866929364E0,-1.791421692E-1,4.888705164E0
1.093453983E1,-1.255205120E0,-4.703861629E0,-1.592687988E-1,4.871059501E0
1.094451783E1,-2.170338223E0,-4.587512562E0,-4.263087988E-2,5.075180480E0
1.095449583E1,-2.818393613E0,-4.546306064E0,1.508686888E-1,5.351168353E0
1.096447383E1,-3.164488553E0,-4.545217313E0,2.104623413E-1,5.542317441E0
1.097445083E1,-2.957045129E0,-4.518628854E0,7.003093243E-2,5.400650604E0
1.098442883E1,-2.197986636E0,-4.459030523E0,-9.271111250E-2,4.972192053E0
1.099440683E1,-9.596980964E-1,-4.087859799E0,-3.895157790E-1,4.217029845E0
1.100438483E1,-2.083409715E-1,-3.809559231E0,-9.133421016E-1,3.923052547E0
1.101436283E1,-3.638574658E-1,-3.670735806E0,-1.380230577E0,3.938493374E0
1.102434083E1,-9.646344620E-1,-3.405285664E0,-1.448545936E0,3.824235274E0
1.103431783E1,-1.365285825E0,-3.128394275E0,-1.149552072E0,3.601711550E0
1.104429583E1,-1.503096219E0,-3.192099690E0,-5.770009017E-1,3.575154362E0
1.105427383E1,-1.318615250E0,-3.178637645E0,1.441806436E-2,3.441321162E0
1.106425183E1,-9.130108568E-1,-3.065379417E0,4.358742589E-1,3.228022020E0
1.107422983E1,-5.605665712E-1,-3.214618487E0,5.803010702E-1,3.314325909E0
1.108420783E1,-4.237225753E-1,-3.433562799E0,4.629480368E-1,3.490446275E0
1.109418483E1,-6.221346822E-1,-3.537781817E0,1.077074299E-1,3.593682323E0
1.110416283E1,-9.683781418E-1,-3.176811560E0,-2.182566798E-1,3.328291437E0
1.111414083E1,-1.118845419E0,-2.470779566E0,-2.752670324E-1,2.726231588E0
1.112411883E1,-1.225978397E0,-2.086895240E0,9.827064514E-2,2.422356681E0
1.113409683E1,-1.528637880E0,-1.966777058E0,7.037164968E-1,2.588467244E0
1.114407483E1,-2.256865174E0,-2.083423163E0,1.253810851E0,3.317549418E0
1.115405183E1,-3.035568265E0,-2.470783074E0,1.581753695E0,4.221538634E0
1.116402983E1,-3.600956304E0,-2.888160836E0,1.698110948E0,4.918530279E0
1.117400783E1,-3.680432829E0,-2.909194440E0,1.452840862E0,4.911185668E0
1.118398583E1,-3.074170998E0,-2.687107249E0,9.827745715E-1,4.199633145E0
1.119396383E1,-2.480622184E0,-2.448704572E0,4.878792487E-1,3.519611720E0
1.120394133E1,-2.433921642E0,-1.969966714E0,1.168343854E-1,3.133431615E0
1.121391833E1,-2.853989415E0,-1.290458860E0,-9.415771365E-2,3.133593037E0
1.122389633E1,-3.578621694E0,-1.030065975E0,3.899215758E-3,3.723920561E0
1.123387433E1,-4.053270594E0,-9.656086081E-1,4.574504846E-1,4.191737521E0
1.124385233E1,-4.214135098E0,-5.142088223E-1,1.017737705E0,4.365676967E0
1.125383033E1,-4.264657381E0,-4.796763361E-2,1.663908537E0,4.578012133E0
1.126380833E1,-4.401761724E0,2.507286072E-1,2.163635852E0,4.911180226E0
1.127378533E1,-4.691168785E0,5.208571064E-1,2.383499347E0,5.287667334E0
1.128376333E1,-5.123013436E0,6.524200433E-1,2.494490025E0,5.735276720E0
1.129374133E1,-5.211516307E0,6.885868263E-1,2.622015752E0,5.874437900E0
1.130371933E1,-4.688093442E0,7.713559180E-1,2.743051946E0,5.486122862E0
1.131369733E1,-3.860355163E0,1.016058969E0,2.822135831E0,4.888677578E0
1.132367533E1,-3.179123841E0,1.436148085E0,2.850519969E0,4.504976561E0
1.133365233E1,-2.790992975E0,1.780948452E0,2.825671057E0,4.352681484E0
1.134363033E1,-2.751655832E0,1.928417569E0,3.052923386E0,4.539905873E0
1.135360833E1,-2.769873417E0,2.016504704E0,3.465119637E0,4.872939982E0
1.136358633E1,-2.675595251E0,1.845643800E0,3.923535497E0,5.095031087E0
1.137356433E1,-2.523444268E0,1.783313650E0,4.227594219E0,5.236461728E0
1.138354233E1,-2.533911368E0,1.907630133E0,4.092677904E0,5.177815367E0
1.139351933E1,-2.706069477E0,1.972849976E0,3.610848624E0,4.924751448E0
1.140349733E1,-2.804418182E0,1.916349501E0,2.963838424E0,4.507936885E0
1.141347533E1,-2.756043583E0,1.785365438E0,2.330880838E0,4.026948157E0
1.142345333E1,-2.665517867E0,1.661443643E0,1.874509165E0,3.657754104E0
1.143343133E1,-2.462251986E0,1.581207565E0,1.751646300E0,3.410449672E0
1.144340933E1,-2.131676726E0,1.591720859E0,2.003715089E0,3.330539763E0
1.145338633E1,-1.992124153E0,1.745003278E0,2.290077213E0,3.501149629E0
1.146336433E1,-1.946307710E0,1.846553627E0,2.565688646E0,3.712227395E0
1.147334233E1,-2.040796376E0,1.876798934E0,2.783635424E0,3.928848465E0
1.148332033E1,-2.552128661E0,1.871350499E0,2.956258094E0,4.330678389E0
1.149329833E1,-3.178172499E0,1.856096867E0,3.156679012E0,4.848762564E0
1.150327633E1,-3.456512536E0,1.662535318E0,3.269760069E0,5.040122370E0
1.151325333E1,-3.176753965E0,1.456964757E0,3.350268627E0,4.841364677E0
1.152323133E1,-2.394050355E0,1.390124066E0,3.456932366E0,4.428803834E0
1.153320933E1,-1.401911176E0,1.376567881E0,3.383728150E0,3.912788042E0
1.154318733E1,-5.564279851E-1,1.459244587E0,3.101378385E0,3.472398991E0
1.155316533E1,7.423661537E-2,1.735585168E0,2.897238053E0,3.378128962E0
1.156314333E1,4.531016180E-1,2.105809228E0,2.786045061E0,3.521616201E0
1.157312033E1,5.538828383E-1,2.525161595E0,2.585510707E0,3.656240268E0
1.158309833E1,3.639605961E-1,2.979289691E0,2.412003939E0,3.850506120E0
1.159307633E1,-1.974043576E-1,3.345162839E0,2.561328378E0,4.217758404E0
1.160305433E1,-8.696271479E-1,3.507599659E0,2.988441169E0,4.689380275E0
1.161303233E1,-1.293747480E0,3.325623198E0,3.624473221E0,5.086291215E0
1.162300933E1,-1.120722302E0,2.902980604E0,4.357057421E0,5.354181939E0
1.163298733E1,-3.854659975E-1,2.507931020E0,5.069638882E0,5.669174581E0
1.164296533E1,5.760152073E-1,2.412878682E0,5.559784657E0,6.088101715E0
1.165294333E1,1.564500316E0,2.486752405E0,5.743259175E0,6.451094846E0
1.166292133E1,2.429175311E0,2.442295439E0,5.625616704E0,6.596458368E0
1.167289933E1,2.732865804E0,2.272129185E0,5.531888761E0,6.575174507E0
1.168287733E1,2.540569008E0,2.031893991E0,5.538959799E0,6.423640691E0
1.169285433E1,2.507902953E0,1.792373326E0,5.496901946E0,6.302230587E0
1.170283233E1,2.860776570E0,1.645499455E0,5.264379230E0,6.213324369E0
1.171281033E1,3.460200375E0,1.638415554E0,4.843646043E0,6.174001875E0
1.172278833E1,4.122159858E0,1.617927495E0,4.227144569E0,6.121980274E0
1.173276633E1,4.590113404E0,1.513862259E0,3.476108310E0,5.953507284E0
1.174274433E1,4.653313327E0,1.311919311E0,2.798870929E0,5.586424229E0
1.175272133E1,4.531145403E0,1.060109553E0,2.439806864E0,5.254309514E0
1.176269933E1,4.503659981E0,8.366587919E-1,2.561354105E0,5.248188832E0
1.177267733E1,4.455053540E0,5.762805247E-1,3.409886838E0,5.639763252E0
1.178265533E1,4.400968257E0,4.037052172E-1,4.631383637E0,6.401657120E0
1.179263333E1,4.577240466E0,2.968707401E-1,5.473118981E0,7.141028911E0
1.180261133E1,4.728383682E0,8.516352654E-2,5.513389925E0,7.263768549E0
1.181258833E1,4.812276316E0,-1.381287754E-1,4.793690356E0,6.793861209E0
1.182256633E1,4.884692328E0,-3.954694140E-1,3.704312273E0,6.143170566E0
1.183254433E1,5.041352391E0,-6.934435236E-1,2.523686927E0,5.680237104E0
1.184252233E1,5.317345648E0,-8.716245568E-1,1.458396156E0,5.582187157E0
1.185250033E1,5.731201047E0,-9.622967452E-1,5.782071823E-1,5.840120205E0
1.186247833E1,6.299362128E0,-1.236202546E0,1.509830019E-1,6.421289264E0
1.187245533E1,6.716894841E0,-1.623440250E0,5.684949571E-1,6.933644140E0
1.188243333E1,6.756364716E0,-2.044925095E0,1.628589161E0,7.244479655E0
1.189241133E1,6.674077435E0,-2.429583008E0,2.443443248E0,7.511098328E0
1.190238933E1,6.534734777E0,-2.794198419E0,2.738044099E0,7.616245066E0
1.191236733E1,6.368530596E0,-3.129005309E0,2.644917834E0,7.572611605E0
1.192234533E1,6.351176645E0,-3.374125852E0,2.301046443E0,7.550959195E0
1.193232233E1,6.438950368E0,-3.656581451E0,1.840540204E0,7.630088990E0
1.194230033E1,6.615255615E0,-4.020264816E0,1.323900840E0,7.853460987E0
1.195227833E1,6.795793660E0,-4.261791075E0,7.561595893E-1,8.057136710E0
1.196225633E1,6.846863242E0,-4.484429659E0,2.397651509E-1,8.188231368E0
1.197223433E1,6.665096111E0,-4.751858498E0,-2.519265555E-2,8.185615434E0
1.198221233E1,6.263612836E0,-5.092539502E0,-7.234763581E-2,8.072920074E0
1.199218933E1,5.768691639E0,-5.326591265E0,-2.948107660E-2,7.851830797E0
1.200216733E1,5.319483390E0,-5.430755904E0,1.114268438E-1,7.602790880E0
1.201214533E1,4.945524128E0,-5.552561592E0,4.054044181E-1,7.446710809E0
1.202212333E1,4.665978688E0,-5.793634692E0,7.083960235E-1,7.472575526E0
1.203210133E1,4.484863230E0,-6.048923542E0,7.942670631E-1,7.571943897E0
1.204207933E1,4.262876611E0,-6.267138122E0,5.935496914E-1,7.602725727E0
1.205205633E1,3.867550161E0,-6.490481880E0,2.138783212E-1,7.558441851E0
1.206203433E1,3.339308022E0,-6.759734466E0,-2.263982698E-1,7.542959916E0
1.207201233E1,2.828239154E0,-6.980845757E0,-6.488900793E-1,7.559907574E0
1.208199033E1,2.357926403E0,-7.120099536E0,-9.516998363E-1,7.560513667E0
1.209196833E1,2.042114924E0,-7.271546515E0,-1.098054475E0,7.632256921E0
1.210194633E1,1.938936564E0,-7.349740160E0,-1.101843543E0,7.680638946E0
1.211192333E1,1.899670026E0,-7.318748163E0,-1.105219653E0,7.641618373E0
1.212190133E1,1.664636954E0,-7.302910979E0,-1.203444763E0,7.586290547E0
1.213187933E1,1.217298790E0,-7.228160759E0,-1.227610062E0,7.432035439E0
1.214185733E1,6.334232437E-1,-6.928327235E0,-1.064410838E0,7.038175453E0
1.215183533E1,-8.533302270E-2,-6.548811364E0,-7.326162871E-1,6.590215371E0
1.216181333E1,-7.924228513E-1,-6.311353598E0,-3.367352291E-1,6.369812307E0
1.217179033E1,-1.267177586E0,-6.094952239E0,4.386818726E-2,6.225440246E0
1.218176833E1,-1.665885334E0,-5.891021823E0,1.687857270E-1,6.124361247E0
1.219174633E1,-1.946266049E0,-5.499558921E0,1.349891860E-2,5.833805111E0
1.220172796E1,-2.119447128E0,-4.896765366E0,-1.272856621E-1,5.337281032E0
1.221170596E1,-2.391823736E0,-4.442235566E0,-2.103360415E-1,5.049605812E0
1.222168396E1,-2.582656682E0,-4.072416133E0,-3.086920559E-1,4.832181648E0
1.223166096E1,-2.866781076E0,-3.573112448E0,-4.454724634E-1,4.602609262E0
1.224163896E1,-3.185623606E0,-2.983132482E0,-5.121108413E-1,4.394261562E0
1.225161696E1,-3.593808083E0,-2.529574488E0,-3.203280151E-1,4.406451369E0
1.226159496E1,-4.146180805E0,-2.234422245E0,1.815542918E-1,4.713429749E0
1.227157296E1,-4.542741017E0,-2.059051968E0,6.776899552E-1,5.033433682E0
1.228155096E1,-4.329025869E0,-1.797539341E0,1.075628648E0,4.809219235E0
1.229152796E1,-3.750146257E0,-1.476681569E0,1.158766115E0,4.193676706E0
1.230150596E1,-3.179075017E0,-1.538000734E0,1.045661595E0,3.683119927E0
1.231148396E1,-2.793088033E0,-1.781113928E0,9.060189756E-1,3.434323509E0
1.232146196E1,-2.427291922E0,-1.809511515E0,7.263241714E-1,3.113458656E0
1.233143996E1,-2.214473592E0,-1.410290528E0,6.647896819E-1,2.708275832E0
1.234141796E1,-2.655991291E0,-1.039032095E0,8.340882097E-1,2.971461017E0
1.235139496E1,-3.156424365E0,-8.292755127E-1,1.216432525E0,3.482875355E0
1.236137296E1,-3.299967955E0,-6.432422537E-1,1.648620699E0,3.744529251E0
1.237135096E1,-3.080888279E0,-5.949594551E-1,1.920447814E0,3.678854326E0
1.238132896E1,-2.510041280E0,-5.259985632E-1,1.852970361E0,3.163934398E0
1.239130696E1,-1.943061190E0,-5.419708174E-1,1.403208965E0,2.457277875E0
1.240128496E1,-1.736058646E0,-4.961976439E-1,7.384914963E-1,1.950764316E0
1.241126196E1,-2.019052043E0,-3.242053038E-1,2.342207479E-1,2.058285595E0
1.242123996E1,-2.424990458E0,-1.620830637E-1,1.147749960E-1,2.433109727E0
1.243121796E1,-2.827974860E0,-3.806654334E-2,4.887266564E-1,2.870147142E0
1.244119596E1,-3.107242850E0,7.758085728E-2,1.113547257E0,3.301660856E0
1.245117396E1,-3.206547283E0,8.413207769E-2,1.765790422E0,3.661562439E0
1.246115196E1,-3.146099060E0,2.762791854E-1,2.179746101E0,3.837390069E0
1.247112896E1,-3.317497615E0,2.987997365E-1,2.361421430E0,4.083060479E0
1.248110696E1,-3.685679535E0,5.196128190E-2,2.283540903E0,4.336068803E0
1.249108496E1,-3.921564108E0,-9.055115104E-2,2.000307624E0,4.403191474E0
1.250106296E1,-3.717899155E0,-2.008822632E-1,1.674416276E0,4.082498950E0
1.251104096E1,-3.070047834E0,-2.966672570E-1,1.401294002E0,3.387747045E0
1.252101896E1,-2.186472738E0,-2.664295506E-1,1.221719577E0,2.518778764E0
1.253099596E1,-1.290165768E0,-3.806537390E-2,1.058671431E0,1.669359722E0
1.254097396E1,-8.245044771E-1,2.514191633E-1,9.555841416E-1,1.286918910E0
1.255095196E1,-1.092255060E0,5.308944368E-1,9.405173287E-1,1.536047807E0
1.256092996E1,-1.808106868E0,5.866751200E-1,1.025420362E0,2.159843759E0
1.257090796E1,-2.629325064E0,4.559781557E-1,1.132068897E0,2.898766351E0
1.258088596E1,-3.214551829E0,3.540822369E-1,1.191977423E0,3.446669097E0
1.259086296E1,-3.484770667E0,1.980060178E-1,1.130537804E0,3.668916558E0
1.260084096E1,-3.359783217E0,1.253982174E-1,9.852222160E-1,3.503502646E0
1.261081896E1,-2.952584873E0,1.682992387E-1,7.988840246E-1,3.063380118E0
1.262079696E1,-2.547920712E0,2.704138434E-1,5.918282712E-1,2.629692816E0
1.263077496E1,-2.276095059E0,5.236514908E-1,3.947697946E-1,2.368683768E0
1.264075296E1,-2.205253994E0,6.279962236E-1,3.785940573E-1,2.323974590E0
1.265072996E1,-2.238113300E0,8.524836963E-1,5.930497545E-1,2.467303712E0
1.266070796E1,-2.486684285E0,1.053605111E0,9.749796483E-1,2.871283298E0
1.267068596E1,-2.949242020E0,1.103658446E0,1.401933103E0,3.446956176E0
1.268066396E1,-3.434531975E0,1.197529061E0,1.671563127E0,4.003024985E0
1.269064196E1,-3.942533101E0,1.158797105E0,1.638940634E0,4.424082321E0
1.270061996E1,-4.371560270E0,1.079893607E0,1.424176496E0,4.722815695E0
1.271059696E1,-4.489815237E0,1.024806989E0,1.226556394E0,4.765827400E0
1.272057496E1,-4.327091903E0,1.074148718E0,1.160445727E0,4.606967993E0
1.273055296E1,-3.835498649E0,1.371399527E0,1.254931177E0,4.262234016E0
1.274053096E1,-3.122588575E0,1.759556998E0,1.491894270E0,3.882312294E0
1.275050896E1,-2.445932992E0,2.315571073E0,1.822570102E0,3.829650033E0
1.276048696E1,-2.101415338E0,2.788408506E0,2.432201976E0,4.255205620E0
1.277046396E1,-2.363654043E0,2.855246859E0,3.222190631E0,4.911395680E0
1.278044196E1,-2.884877624E0,2.533736537E0,3.868742409E0,5.450642858E0
1.279041996E1,-3.391327191E0,2.103029462E0,4.319319491E0,5.880506263E0
1.280039796E1,-3.645968170E0,1.913361574E0,4.352865552E0,5.991783952E0
1.281037596E1,-3.486245627E0,2.136366777E0,3.986443352E0,5.710490537E0
1.282035396E1,-2.998008675E0,2.344108409E0,3.467356782E0,5.148345686E0
1.283033096E1,-2.276443845E0,2.608807184E0,3.111851918E0,4.655286657E0
1.284030896E1,-1.839706099E0,2.911273710E0,3.051715643E0,4.601412991E0
1.285028696E1,-1.662125867E0,3.097360763E0,3.435445603E0,4.915139121E0
1.286026496E1,-1.429456531E0,2.927438337E0,4.460612780E0,5.523613633E0
1.287024296E1,-6.806638491E-1,2.781314079E0,5.733705409E0,6.408930410E0
1.288022096E1,4.242943599E-1,2.509007492E0,6.959059031E0,7.409699515E0
1.289019796E1,1.364646870E0,2.198776449E0,7.695202432E0,8.118683355E0
1.290017596E1,1.899582318E0,2.008528517E0,7.760726330E0,8.238414469E0
1.291015396E1,2.093381118E0,1.856275207E0,7.213267901E0,7.736875077E0
1.292013196E1,2.163606909E0,1.621642231E0,6.303821214E0,6.859233214E0
1.293010996E1,2.474386713E0,1.340995760E0,5.516355633E0,6.192821546E0
1.294008796E1,3.175599140E0,1.233115801E0,4.984147326E0,6.037112641E0
1.295006496E1,4.145315124E0,1.221101527E0,4.696102666E0,6.381857619E0
1.296004296E1,5.105988098E0,1.148367426E0,4.578944930E0,6.953890916E0
1.297002096E1,5.933579028E0,1.142887416E0,4.521006039E0,7.546724278E0
1.297999896E1,6.331753364E0,1.064725930E0,4.387190462E0,7.776386186E0
1.298997696E1,6.145831786E0,7.676996541E-1,4.223207931E0,7.496405561E0
1.299995496E1,5.703509803E0,3.417492896E-1,4.095763772E0,7.030085172E0
1.300993196E1,5.474648613E0,5.010069788E-2,3.886725813E0,6.714233021E0
1.301990996E1,5.394733547E0,-1.699686188E-1,3.711852550E0,6.550564000E0
1.302988796E1,5.266926861E0,-3.481894130E-1,3.721960924E0,6.458695499E0
1.303986596E1,5.248114614E0,-4.469892311E-1,3.879019767E0,6.541353127E0
1.304984396E1,5.344804173E0,-5.116208446E-1,3.912206809E0,6.643346269E0
1.305982196E1,5.558910499E0,-5.236386269E-1,3.674382130E0,6.684068176E0
1.306979896E1,5.839295599E0,-6.613119042E-1,3.249097471E0,6.715008630E0
1.307977696E1,6.214126680E0,-8.159532166E-1,2.868670896E0,6.892780481E0
1.308975496E1,6.528896332E0,-9.145454586E-1,2.652284156E0,7.106158734E0
1.309973296E1,6.652654406E0,-1.185564489E0,2.634858576E0,7.252989282E0
1.310971096E1,6.598242556E0,-1.386872429E0,2.787653630E0,7.295973734E0
1.311968896E1,6.359585525E0,-1.546615437E0,2.963250779E0,7.184511295E0
1.312966596E1,5.961256238E0,-1.847634777E0,3.100076795E0,6.968558412E0
1.313964396E1,5.582719191E0,-2.078085825E0,3.070626124E0,6.701786259E0
1.314962196E1,5.205674354E0,-2.208286945E0,2.933815311E0,6.370466936E0
1.315959996E1,4.881135174E0,-2.373808172E0,2.811947057E0,6.112895556E0
1.316957796E1,4.532463073E0,-2.596728591E0,2.780841624E0,5.917710793E0
1.317955596E1,4.283451501E0,-2.840293189E0,2.674216477E0,5.793673785E0
1.318953296E1,4.201623811E0,-3.065816204E0,2.454320238E0,5.751222433E0
1.319950821E1,4.058715229E0,-3.187768657E0,2.120258868E0,5.579474526E0
1.320948621E1,3.934682337E0,-3.286487199E0,1.709052258E0,5.404033940E0
1.321946421E1,3.733265053E0,-3.363883869E0,1.317721503E0,5.195129700E0
1.322944221E1,3.481616679E0,-3.586476844E0,9.163592649E-1,5.081750206E0
1.323942021E1,3.227453125E0,-3.774339697E0,5.804168451E-1,4.999897753E0
1.324939721E1,3.039219851E0,-3.891056553E0,4.586111569E-1,4.958578687E0
1.325937521E1,2.928363951E0,-3.933888577E0,4.227291699E-1,4.922346465E0
1.326935321E1,2.854801885E0,-3.958817596E0,4.762147478E-1,4.903968908E0
1.327933121E1,2.646120898E0,-3.950476543E0,5.476022708E-1,4.786239544E0
1.328930921E1,2.341591037E0,-3.933144811E0,5.417000914E-1,4.609350896E0
1.329928721E1,1.964906095E0,-3.928897394E0,5.194515089E-1,4.423451205E0
1.330926421E1,1.512567685E0,-3.919382220E0,5.255337461E-1,4.233863922E0
1.331924221E1,1.113632407E0,-3.930750377E0,5.988145975E-1,4.129110629E0
1.332922021E1,9.561490557E-1,-3.923993334E0,6.116012887E-1,4.084850161E0
1.333919821E1,9.736038715E-1,-3.921577849E0,5.329386234E-1,4.075622763E0
1.334917621E1,1.006172205E0,-3.973015221E0,4.290721198E-1,4.120841581E0
1.335915421E1,9.325480854E-1,-4.050886100E0,2.395207373E-1,4.163735620E0
1.336913121E1,8.069714548E-1,-4.087843426E0,-7.414269447E-2,4.167392944E0
1.337910921E1,6.764330231E-1,-3.965248364E0,-4.712166575E-1,4.050037205E0
1.338908721E1,5.875434315E-1,-3.823335856E0,-7.733352005E-1,3.944762563E0
1.339906521E1,4.770280590E-1,-3.758764468E0,-8.655761969E-1,3.886526502E0
1.340904321E1,2.873053531E-1,-3.723681759E0,-7.767008579E-1,3.814657840E0
1.341902121E1,2.044378454E-1,-3.753199089E0,-6.158579886E-1,3.808881633E0
1.342899821E1,2.367602303E-1,-3.800397813E0,-4.665761610E-1,3.836244552E0
1.343897621E1,1.330287973E-1,-3.867298731E0,-4.915647487E-1,3.900683535E0
1.344895421E1,-1.551503125E-1,-3.938636516E0,-6.348333728E-1,3.992485772E0
1.345893221E1,-3.169673644E-1,-3.773985355E0,-7.540347111E-1,3.861606158E0
1.346891021E1,-3.780146713E-1,-3.617999184E0,-7.523377030E-1,3.714676998E0
1.347888821E1,-5.027663328E-1,-3.577687309E0,-6.146137011E-1,3.664746986E0
1.348886521E1,-5.102248219E-1,-3.552411550E0,-4.283225799E-1,3.614334991E0
1.349884321E1,-4.648820034E-1,-3.520695083E0,-2.822556245E-1,3.562453843E0
1.350882121E1,-5.427139255E-1,-3.579315174E0,-2.600923383E-1,3.629556935E0
1.351879921E1,-7.794614015E-1,-3.505615114E0,-2.837080729E-1,3.602414145E0
1.352877721E1,-1.191595380E0,-3.199995770E0,-3.019958428E-1,3.427983951E0
1.353875421E1,-1.923462493E0,-2.967508137E0,-2.250967526E-1,3.543512530E0
1.354873221E1,-2.579656183E0,-2.815667056E0,-6.325985670E-2,3.819241914E0
1.355871021E1,-2.728069626E0,-2.599215996E0,2.295382794E-1,3.775046424E0
1.356868821E1,-2.403859352E0,-2.535769029E0,5.318516260E-1,3.534335935E0
1.357866621E1,-1.885245530E0,-2.473968637E0,6.504922163E-1,3.177705406E0
1.358864421E1,-1.602736428E0,-2.239488273E0,6.055440118E-1,2.819708377E0
1.359862221E1,-1.859813358E0,-2.042487391E0,4.566266119E-1,2.799851484E0
1.360859921E1,-2.462137381E0,-1.899268615E0,2.029627025E-1,3.116173232E0
1.361857721E1,-3.243908067E0,-1.895005410E0,-4.012710214E-2,3.757072695E0
1.362855521E1,-3.955341719E0,-2.007949643E0,-6.991055287E-2,4.436381112E0
1.363853321E1,-4.205756623E0,-2.161722059E0,8.037231803E-2,4.729470450E0
1.364851121E1,-3.784319724E0,-2.322436289E0,3.113729312E-1,4.451037991E0
1.365848921E1,-2.955266991E0,-2.252728708E0,4.748318448E-1,3.746178706E0
1.366846621E1,-2.032522274E0,-1.967130815E0,3.492313137E-1,2.850037359E0
1.367844421E1,-1.663785307E0,-1.534584206E0,-4.834638700E-2,2.263949559E0
1.368842221E1,-2.032076424E0,-1.239040784E0,-4.914890273E-1,2.430250629E0
1.369840021E1,-2.848998524E0,-1.163364950E0,-6.615105633E-1,3.147666885E0
1.370837821E1,-3.631926666E0,-1.248365924E0,-3.312640625E-1,3.854743139E0
1.371835521E1,-4.026475144E0,-1.537673290E0,2.921154919E-1,4.319985265E0
1.372833321E1,-3.646985293E0,-1.798185459E0,7.778672312E-1,4.139933587E0
1.373831121E1,-2.784921811E0,-1.822377144E0,7.951130091E-1,3.421849302E0
1.374828921E1,-1.557807300E0,-1.450172047E0,5.847939245E-1,2.207203318E0
1.375826721E1,-7.831081637E-1,-1.083908306E0,4.939564061E-1,1.425520446E0
1.376824521E1,-1.124532787E0,-9.756763440E-1,5.981906265E-1,1.604478215E0
1.377822221E1,-2.297514287E0,-1.025500469E0,7.354730174E-1,2.621286644E0
1.378820021E1,-3.447868889E0,-9.459982163E-1,9.414192617E-1,3.697158737E0
1.379817821E1,-4.084070218E0,-8.427790725E-1,1.326705750E0,4.376077497E0
1.380815621E1,-4.301100152E0,-9.110499930E-1,1.744767051E0,4.730083157E0
1.381813421E1,-3.977051846E0,-8.557271469E-1,1.930744761E0,4.502997409E0
1.382811221E1,-3.323257415E0,-4.857404834E-1,1.825003713E0,3.822384363E0
1.383808921E1,-2.902425995E0,-1.780079556E-1,1.512012784E0,3.277490831E0
1.384806721E1,-2.888321342E0,1.054673982E-1,1.126267875E0,3.101935343E0
1.385804521E1,-3.194316954E0,6.002494311E-1,7.956224477E-1,3.346188169E0
1.386802321E1,-3.670494024E0,7.361276132E-1,7.124148148E-1,3.810766998E0
1.387800121E1,-3.957821523E0,7.721844685E-1,1.080342381E0,4.174656839E0
1.388797921E1,-4.038262838E0,8.942404175E-1,1.722288015E0,4.480346938E0
1.389795621E1,-3.970151255E0,1.025426794E0,2.201930145E0,4.654255843E0
1.390793421E1,-3.722163822E0,1.044593967E0,2.395149924E0,4.547793227E0
1.391791221E1,-3.600665113E0,9.395428902E-1,2.380955223E0,4.417745791E0
1.392789021E1,-3.598734654E0,1.060715325E0,2.268955901E0,4.384537489E0
1.393786821E1,-3.541753830E0,1.560542920E0,2.227368749E0,4.465477124E0
1.394784621E1,-3.326676282E0,1.924946662E0,2.289460917E0,4.473681484E0
1.395782321E1,-3.006579524E0,2.124795722E0,2.461125813E0,4.428478019E0
1.396780121E1,-2.685961779E0,2.298405402E0,2.804463206E0,4.512435257E0
1.397777921E1,-2.385716904E0,2.542895615E0,3.300673129E0,4.801292155E0
1.398775721E1,-2.267367797E0,2.593274640E0,3.833635726E0,5.153910454E0
1.399773521E1,-2.323896339E0,2.444441367E0,4.166441699E0,5.360505967E0
1.400771321E1,-2.564803086E0,2.259168831E0,4.205138572E0,5.418971221E0
1.401769021E1,-2.821654020E0,2.140049939E0,4.050770325E0,5.380546940E0
1.402766821E1,-2.804536004E0,2.157665260E0,4.005413473E0,5.344555984E0
1.403764621E1,-2.472500986E0,2.278897921E0,4.113780506E0,5.313174843E0
1.404762421E1,-1.929688900E0,2.564298179E0,4.208425877E0,5.292463771E0
1.405760221E1,-1.223912868E0,2.912383511E0,4.287056894E0,5.325297854E0
1.406758021E1,-4.986339228E-1,3.271787884E0,4.375314183E0,5.486037362E0
1.407755721E1,7.765891761E-2,3.572072228E0,4.424667022E0,5.687126617E0
1.408753521E1,3.904265559E-1,3.776521878E0,4.534887037E0,5.914368168E0
1.409751321E1,1.956363606E-1,3.751109878E0,4.702450111E0,6.018482861E0
1.410749121E1,-4.627381948E-1,3.519278888E0,4.865521939E0,6.022686632E0
1.411746921E1,-1.066284725E0,3.232285264E0,5.044194138E0,6.085106872E0
1.412744721E1,-1.433182670E0,2.757237584E0,5.467783982E0,6.289120235E0
1.413742421E1,-1.456046014E0,2.404949273E0,5.984051024E0,6.611559397E0
1.414740221E1,-9.802279629E-1,2.247149879E0,6.360872498E0,6.816980884E0
1.415738021E1,6.924740553E-2,2.142604002E0,6.553285654E0,6.895005437E0
1.416735821E1,1.374725277E0,1.883988671E0,6.671681830E0,7.067575351E0
1.417733621E1,2.501370444E0,1.610110352E0,6.712962003E0,7.342558703E0
1.418731421E1,3.605956551E0,1.438719106E0,6.703915191E0,7.746955157E0
1.419729121E1,4.842371935E0,1.260272024E0,6.601222882E0,8.283296147E0
1.420727246E1,5.921634336E0,1.108808089E0,6.277362564E0,8.700602815E0
1.421725046E1,6.162330875E0,9.768393552E-1,5.695102676E0,8.447646502E0
1.422722846E1,5.638666520E0,8.968494451E-1,4.978266782E0,7.575093346E0
1.423720646E1,4.942047958E0,7.331964040E-1,4.287956196E0,6.583918539E0
1.424718446E1,4.246187196E0,2.983600259E-1,3.815785638E0,5.716585033E0
1.425716146E1,4.003934128E0,-1.086254793E-1,3.485943326E0,5.309904789E0
1.426713946E1,4.559127839E0,-3.274598640E-1,3.204631735E0,5.582341907E0
1.427711746E1,5.536216285E0,-5.950360537E-1,3.116397251E0,6.380884773E0
1.428709546E1,6.632607227E0,-8.327832574E-1,3.281326739E0,7.446617470E0
1.429707346E1,7.705577146E0,-9.912240905E-1,3.421460524E0,8.489101041E0
1.430705146E1,8.561474447E0,-1.154544425E0,3.308654871E0,9.250892638E0
1.431702846E1,8.830932271E0,-1.361889616E0,3.125397870E0,9.466161838E0
1.432700646E1,8.510849254E0,-1.694728333E0,2.970848651E0,9.172382507E0
1.433698446E1,8.007783471E0,-2.011080827E0,2.732224365E0,8.696786314E0
1.434696246E1,7.457748173E0,-2.176133106E0,2.590392548E0,8.189242741E0
1.435694046E1,6.897008379E0,-2.303831618E0,2.415335974E0,7.662258973E0
1.436691846E1,6.394774654E0,-2.467763572E0,2.030393157E0,7.148810831E0
1.437689546E1,6.057131864E0,-2.663579223E0,1.446469005E0,6.773165676E0
1.438687346E1,5.613695986E0,-2.839982702E0,9.056177835E-1,6.356038699E0
1.439685146E1,5.282799128E0,-2.972375359E0,5.535693544E-1,6.086823550E0
1.440682946E1,5.011646782E0,-3.057418433E0,4.293423343E-1,5.886318525E0
1.441680746E1,4.699866519E0,-3.075424349E0,6.736331570E-1,5.656921588E0
1.442678546E1,4.298004636E0,-3.062971534E0,1.220655969E0,5.417069269E0
1.443676246E1,4.041132360E0,-3.206742287E0,1.679768232E0,5.425455571E0
1.444674046E1,3.761010384E0,-3.468720353E0,1.776726177E0,5.416084924E0
1.445671846E1,3.396894325E0,-3.700945446E0,1.571362608E0,5.263560458E0
1.446669646E1,3.136925363E0,-3.805359761E0,1.216418930E0,5.079442750E0
1.447667446E1,2.981303180E0,-3.882890332E0,8.159437879E-1,4.962939678E0
1.448665246E1,2.952098969E0,-3.923372945E0,4.387931889E-1,4.929531727E0
1.449662946E1,3.036855822E0,-3.872409198E0,1.332645132E-1,4.922987478E0
1.450660746E1,3.130512722E0,-3.829024027E0,4.595385253E-2,4.946073863E0
1.451658546E1,2.961094911E0,-3.869369815E0,1.709684744E-1,4.875380606E0
1.452656346E1,2.628026690E0,-3.958740998E0,3.753117228E-1,4.766446628E0
1.453654146E1,2.222874579E0,-4.041498980E0,6.247001481E-1,4.654582223E0
1.454651846E1,1.973944721E0,-4.121397673E0,7.796560407E-1,4.635756690E0
1.455649646E1,1.830043721E0,-4.065227566E0,9.137198317E-1,4.550826201E0
1.456647446E1,1.717555571E0,-3.990846305E0,9.575201547E-1,4.449010701E0
1.457645246E1,1.633574936E0,-3.977901154E0,9.246541250E-1,4.398550888E0
1.458643046E1,1.550497988E0,-4.034317430E0,7.973450375E-1,4.394942576E0
1.459640846E1,1.507093230E0,-4.136189960E0,6.878442299E-1,4.455617473E0
1.460638546E1,1.500362500E0,-4.317869967E0,6.002821755E-1,4.610360872E0
1.461636346E1,1.521438788E0,-4.473026419E0,4.960450315E-1,4.750663322E0
1.462634146E1,1.419699867E0,-4.520680057E0,3.485806648E-1,4.751168737E0
1.463631946E1,1.096107352E0,-4.539491134E0,2.380296242E-1,4.676012103E0
1.464629746E1,8.062630646E-1,-4.625032391E0,2.017195845E-1,4.699114335E0
1.465627546E1,6.739256640E-1,-4.846443059E0,2.543668178E-1,4.899682500E0
1.466625346E1,6.377080833E-1,-5.127377213E0,4.020357641E-1,5.182499536E0
1.467623046E1,8.300953654E-1,-5.277297483E0,5.641954994E-1,5.371893856E0
1.468620846E1,1.299154839E0,-5.301081617E0,6.291930755E-1,5.494101704E0
1.469618646E1,1.684847416E0,-5.306584432E0,6.183956802E-1,5.601871327E0
1.470616446E1,1.569211417E0,-5.319381064E0,5.434870005E-1,5.572577276E0
1.471614246E1,8.766641989E-1,-5.396878306E0,5.505106028E-1,5.495261367E0
1.472612046E1,-1.979539959E-1,-5.438653738E0,7.731387341E-1,5.496897649E0
1.473609746E1,-1.243693560E0,-5.472200968E0,1.088653321E0,5.716373253E0
1.474607546E1,-1.763292346E0,-5.670527998E0,1.172812296E0,6.053063386E0
1.475605346E1,-1.552598455E0,-5.823655466E0,1.005224152E0,6.110319185E0
1.476603146E1,-7.909987620E-1,-5.954446571E0,7.103525019E-1,6.048612542E0
1.477600946E1,5.837997517E-1,-5.833095796E0,2.728614879E-1,5.868584336E0
1.478598646E1,1.811486120E0,-5.616601467E0,-1.651346890E-1,5.903809234E0
1.479596446E1,2.070832939E0,-5.315241235E0,-4.886962509E-1,5.725291475E0
1.480594246E1,1.345546648E0,-4.961579998E0,-4.512986290E-1,5.160566084E0
1.481592046E1,-3.438752642E-1,-4.601843503E0,-3.132529755E-2,4.614780070E0
1.482589846E1,-2.321093768E0,-4.405372379E0,7.766026247E-1,5.039632300E0
1.483587646E1,-3.826448328E0,-4.262115011E0,1.670717327E0,5.966458545E0
1.484585346E1,-4.384957411E0,-3.827282726E0,2.119632631E0,6.194254358E0
1.485583146E1,-4.113580239E0,-3.120187123E0,1.951312927E0,5.519486589E0
1.486580946E1,-3.518693581E0,-2.052095536E0,1.403101961E0,4.308247407E0
1.487578746E1,-3.982702595E0,-1.525063185E0,8.041020799E-1,4.339852283E0
1.488576546E1,-5.306096190E0,-1.376115891E0,2.706172534E-1,5.488313531E0
1.489574346E1,-6.579374176E0,-1.114946496E0,-1.350741899E-1,6.674542327E0
1.490572046E1,-7.530777558E0,-1.127727925E0,-1.091606458E-1,7.615529985E0
1.491569846E1,-7.750805944E0,-9.578271335E-1,4.010938507E-1,7.820057665E0
1.492567646E1,-6.910259339E0,-5.431502008E-1,8.441654474E-1,6.982786805E0
1.493565446E1,-5.692254497E0,-3.142159206E-1,1.012217641E0,5.790084409E0
1.494563246E1,-4.739636356E0,-1.389181495E-1,8.448640434E-1,4.816351969E0
1.495561046E1,-4.463939261E0,-2.232852852E-1,3.732593501E-1,4.485078883E0
1.496558746E1,-4.915738412E0,-1.096113199E-1,-1.180523604E-2,4.916974490E0
1.497556546E1,-5.614813389E0,2.836987174E-1,-1.605361828E-1,5.624267616E0
1.498554346E1,-6.179939765E0,3.185364282E-1,-8.993280798E-2,6.188797045E0
1.499552146E1,-6.117365202E0,5.091340238E-1,1.768925992E-1,6.141063870E0
1.500549946E1,-5.724608311E0,8.678408235E-1,5.004070544E-1,5.811600058E0
1.501547746E1,-5.282692124E0,1.057588819E0,8.227965054E-1,5.449983879E0
1.502545446E1,-4.717426877E0,1.065010105E0,9.656773129E-1,4.931621998E0
1.503543246E1,-4.156316076E0,8.607183301E-1,1.127530289E0,4.391710819E0
1.504541046E1,-3.663471518E0,6.278020960E-1,1.539155560E0,4.022953998E0
1.505538846E1,-3.372915478E0,8.842358315E-1,2.297872429E0,4.175960911E0
1.506536646E1,-3.198698857E0,1.339361463E0,2.992580413E0,4.580513185E0
1.507534446E1,-3.058790482E0,1.559303311E0,3.117438347E0,4.637461361E0
1.508532146E1,-2.613501914E0,1.865558832E0,2.642775414E0,4.158721426E0
1.509529946E1,-2.418566853E0,2.094942763E0,2.157592463E0,3.859204068E0
1.510527746E1,-2.617429488E0,1.977000330E0,1.931745805E0,3.806718966E0
1.511525546E1,-2.993503396E0,1.609784077E0,1.706855751E0,3.803396365E0
1.512523346E1,-3.498589100E0,1.381257348E0,1.502692030E0,4.050442061E0
1.513521146E1,-3.896271100E0,1.463325359E0,1.522408549E0,4.431701409E0
1.514518846E1,-4.164600703E0,1.537044130E0,1.912188622E0,4.833515181E0
1.515516646E1,-4.233318351E0,1.338447543E0,2.195478327E0,4.953034542E0
1.516514446E1,-4.102327564E0,1.501559717E0,2.239594400E0,4.909129872E0
1.517512246E1,-3.923528773E0,1.907127857E0,2.392483594E0,4.975459018E0
1.518510046E1,-3.577785543E0,1.991267536E0,2.649369027E0,4.876971604E0
1.519507846E1,-3.322433542E0,2.049164327E0,2.793582122E0,4.800181263E0
1.520505650E1,-3.244870811E0,2.240830209E0,2.686376055E0,4.771490638E0
1.521503450E1,-3.431947213E0,2.356027374E0,2.362671857E0,4.786579673E0
1.522501250E1,-3.646685916E0,2.448613356E0,2.062739807E0,4.852723055E0
1.523499050E1,-3.453590975E0,2.575440633E0,2.027183474E0,4.761266418E0
1.524496850E1,-2.849162246E0,2.687754536E0,2.281632664E0,4.532945793E0
1.525494650E1,-2.058245053E0,2.939722753E0,2.698458449E0,4.489991153E0
1.526492350E1,-1.411587733E0,3.199588219E0,3.160599570E0,4.713738892E0
1.527490150E1,-1.092740379E0,3.303629481E0,3.554080930E0,4.973885860E0
1.528487950E1,-1.134028446E0,3.422631429E0,3.931321065E0,5.334389537E0
1.529485750E1,-1.469579833E0,3.389087123E0,4.254280912E0,5.634224213E0
1.530483550E1,-1.830745679E0,3.213470678E0,4.569149966E0,5.878363289E0
1.531481350E1,-1.853597767E0,3.259960136E0,5.231133716E0,6.436452806E0
1.532479050E1,-1.385326133E0,3.355385526E0,6.184998191E0,7.171606734E0
1.533476850E1,-5.388380255E-1,3.429809471E0,7.286928785E0,8.071757587E0
1.534474650E1,2.611084748E-1,3.348336123E0,8.491417787E0,9.131468034E0
1.535472450E1,9.256442048E-1,3.218809771E0,9.395745821E0,9.974848022E0
1.536470250E1,1.412013264E0,2.889430851E0,9.791561390E0,1.030617614E1
1.537468050E1,1.751948455E0,2.421084664E0,9.483564568E0,9.943287749E0
1.538465750E1,2.107739979E0,2.038361011E0,8.587806798E0,9.074574868E0
1.539463550E1,2.371396780E0,1.703823093E0,7.473937359E0,8.024105899E0
1.540461350E1,2.750152805E0,1.540209813E0,6.374678943E0,7.111407621E0
1.541459150E1,3.149209194E0,1.261491753E0,5.304392896E0,6.296464403E0
1.542456950E1,3.707341130E0,9.334079915E-1,4.380216196E0,5.813942093E0
1.543454750E1,4.495563342E0,7.032703543E-1,3.604152977E0,5.804704784E0
1.544452450E1,5.391743281E0,4.791495019E-1,3.060844901E0,6.218460530E0
1.545450250E1,6.230455030E0,2.995078343E-1,2.758661089E0,6.820446160E0
1.546448050E1,6.825670009E0,1.234358919E-1,2.643529412E0,7.320741441E0
1.547445850E1,7.152933991E0,-2.682913041E-1,2.666431202E0,7.638474996E0
1.548443650E1,7.379533478E0,-7.743029147E-1,2.831849810E0,7.942067281E0
1.549441350E1,7.625841590E0,-1.247664843E0,3.032273651E0,8.300892182E0
1.550439150E1,7.905178285E0,-1.613666044E0,3.231611080E0,8.691321648E0
1.551436950E1,8.141847262E0,-1.817963081E0,3.280482986E0,8.964163944E0
1.552434750E1,8.198012692E0,-2.004027330E0,3.184237524E0,9.020138926E0
1.553432550E1,8.083137124E0,-2.248158524E0,2.899878071E0,8.876971068E0
1.554430350E1,7.864366474E0,-2.554308795E0,2.475569605E0,8.631407667E0
1.555428050E1,7.613128574E0,-2.967450834E0,2.152043309E0,8.449661623E0
1.556425850E1,7.321966470E0,-3.298040712E0,2.008951417E0,8.277931585E0
1.557423650E1,7.026103790E0,-3.576506172E0,2.074083406E0,8.152260597E0
1.558421450E1,6.791112964E0,-3.932684051E0,2.351028004E0,8.192225083E0
1.559419250E1,6.537905138E0,-4.290429568E0,2.752158692E0,8.290136726E0
1.560417050E1,6.146168001E0,-4.538926878E0,3.050127540E0,8.226816900E0
1.561414750E1,5.734847370E0,-4.735926005E0,3.107613271E0,8.060690400E0
1.562412550E1,5.358535774E0,-4.924264821E0,3.034193877E0,7.884708121E0
1.563410350E1,4.958316082E0,-5.163189070E0,2.830164642E0,7.697613373E0
1.564408150E1,4.437180063E0,-5.440112033E0,2.579038424E0,7.478958821E0
1.565405950E1,3.927568907E0,-5.570336543E0,2.245120311E0,7.176002503E0
1.566403750E1,3.483726939E0,-5.615383492E0,1.954330090E0,6.891174882E0
1.567401450E1,3.172107475E0,-5.708277038E0,1.652218637E0,6.736209542E0
1.568399250E1,3.020035721E0,-5.869064358E0,1.283495411E0,6.724127651E0
1.569397050E1,2.891783478E0,-5.900325912E0,9.064413638E-1,6.633090795E0
1.570394850E1,2.535037542E0,-5.753726276E0,5.564749821E-1,6.312008064E0
1.571392650E1,2.082362040E0,-5.688654367E0,3.233792384E-1,6.066431760E0
1.572390450E1,1.712351549E0,-5.687611223E0,2.827223785E-1,5.946511683E0
1.573388150E1,1.383382519E0,-5.636398385E0,3.017211516E-1,5.811520421E0
1.574385950E1,1.081767055E0,-5.463240695E0,4.381153505E-1,5.586516259E0
1.575383750E1,8.190004930E-1,-5.284127616E0,6.427772538E-1,5.385715279E0
1.576381550E1,4.875214722E-1,-5.316862083E0,8.797615421E-1,5.411162534E0
1.577379350E1,1.590021475E-1,-5.287294468E0,9.604484403E-1,5.376172028E0
1.578377150E1,-3.016745566E-1,-5.116369244E0,8.164864826E-1,5.189883617E0
1.579374850E1,-1.006475748E0,-5.034205340E0,5.428293349E-1,5.162449082E0
1.580372650E1,-1.656678162E0,-5.048636853E0,1.932982783E-1,5.317018039E0
1.581370450E1,-1.883752005E0,-5.110953553E0,-6.823364452E-2,5.447478653E0
1.582368250E1,-1.633345725E0,-5.092655277E0,-2.213804086E-1,5.352753059E0
1.583366050E1,-1.109376000E0,-4.889049965E0,-3.534641862E-1,5.025779701E0
1.584363850E1,-8.583721349E-1,-4.664242650E0,-4.801604855E-1,4.766814063E0
1.585361550E1,-1.253627979E0,-4.538124640E0,-6.649769390E-1,4.754824149E0
1.586359350E1,-2.006542656E0,-4.406848217E0,-9.384930226E-1,4.932270653E0
1.587357150E1,-2.718528432E0,-4.406537145E0,-1.224515716E0,5.320470391E0
1.588354950E1,-3.227265137E0,-4.634179775E0,-1.306594251E0,5.796382578E0
1.589352750E1,-3.151817636E0,-4.762496338E0,-1.230034318E0,5.841944043E0
1.590350550E1,-2.217597905E0,-4.502002881E0,-1.097898866E0,5.137231971E0
1.591348250E1,-1.156229593E0,-4.219366602E0,-1.003348219E0,4.488499643E0
1.592346050E1,-6.805039278E-1,-4.201424421E0,-1.146994500E0,4.408021001E0
1.593343850E1,-8.408423285E-1,-4.244795558E0,-1.446045667E0,4.562494189E0
1.594341650E1,-1.520692976E0,-4.424585745E0,-1.527771031E0,4.921742625E0
1.595339450E1,-2.258156093E0,-4.551310696E0,-1.270509914E0,5.237164637E0
1.596337250E1,-2.461443316E0,-4.533856757E0,-8.452571225E-1,5.227716509E0
1.597334950E1,-2.112355625E0,-4.245080318E0,-5.007321231E-1,4.767964540E0
1.598332750E1,-1.590826235E0,-3.867036191E0,-2.836478831E-1,4.191080187E0
1.599330550E1,-1.479229200E0,-3.508341086E0,-1.775729227E-1,3.811575573E0
1.600328350E1,-2.153264938E0,-3.276343449E0,-6.778150856E-2,3.921169548E0
1.601326150E1,-3.304386988E0,-3.226162060E0,1.616320972E-1,4.620954440E0
1.602323950E1,-4.397475130E0,-3.198550338E0,5.540774775E-1,5.465849763E0
1.603321650E1,-5.241193265E0,-3.311295181E0,1.034114002E0,6.285234633E0
1.604319450E1,-5.369799850E0,-3.330513809E0,1.305606510E0,6.452261698E0
1.605317250E1,-4.415710257E0,-2.846296526E0,1.281255050E0,5.407542463E0
1.606315050E1,-3.052444206E0,-2.290705204E0,1.024649406E0,3.951537975E0
1.607312850E1,-2.254249130E0,-1.878223901E0,7.752457783E-1,3.034859169E0
1.608310650E1,-2.583337297E0,-1.424316244E0,8.809783477E-1,3.078706093E0
1.609308350E1,-3.774341451E0,-1.044879311E0,1.423431853E0,4.166963451E0
1.610306150E1,-5.060117860E0,-9.872269338E-1,2.315564934E0,5.651659114E0
1.611303950E1,-5.950371062E0,-1.259542876E0,3.251465301E0,6.896766679E0
1.612301750E1,-6.195548907E0,-1.683114594E0,3.870104518E0,7.496359781E0
1.613299550E1,-5.461624525E0,-1.773002086E0,3.759373456E0,6.863364162E0
1.614297350E1,-3.974019772E0,-1.553397038E0,2.846921885E0,5.129409296E0
1.615295050E1,-2.435260946E0,-1.003783325E0,1.687968075E0,3.128468166E0
1.616292850E1,-1.639434285E0,3.820570707E-3,8.158584917E-1,1.831224849E0
1.617290650E1,-1.904140369E0,8.463324255E-1,3.609398514E-1,2.114782895E0
1.618288450E1,-2.842056125E0,8.855877078E-1,6.640562949E-1,3.050003175E0
1.619286250E1,-3.812391330E0,5.638715637E-1,1.794899031E0,4.251345825E0
1.620283971E1,-4.208172985E0,7.313907838E-1,3.183677068E0,5.327236809E0
1.621281671E1,-4.237949346E0,1.045832407E0,4.299570521E0,6.127012873E0
1.622279471E1,-4.178584904E0,1.222752196E0,5.055072883E0,6.671540795E0
1.623277271E1,-4.384588744E0,1.457285770E0,5.126166254E0,6.901150682E0
1.624275071E1,-4.688174719E0,1.889487392E0,4.520572468E0,6.781203450E0
1.625272871E1,-5.032142442E0,2.434896373E0,3.750030482E0,6.731560482E0
1.626270671E1,-5.139296762E0,2.838828462E0,3.119340447E0,6.648428616E0
1.627268371E1,-4.941703557E0,3.362786347E0,2.843097514E0,6.619061077E0
1.628266171E1,-4.794160472E0,3.709094710E0,3.002205514E0,6.764214378E0
1.629263971E1,-4.500991312E0,3.784838957E0,3.392217137E0,6.789040126E0
1.630261771E1,-4.272691747E0,3.757420778E0,3.876138552E0,6.884660903E0
1.631259571E1,-4.062114508E0,3.692306769E0,4.403281415E0,7.037243123E0
1.632257271E1,-3.727336561E0,3.279989188E0,4.739170625E0,6.863752992E0
1.633255071E1,-3.336599299E0,2.907275968E0,4.773677968E0,6.509466167E0
1.634252871E1,-2.828307567E0,2.728631836E0,4.653086747E0,6.090646243E0
1.635250671E1,-2.123057053E0,2.528640103E0,4.605340723E0,5.666617615E0
1.636248471E1,-1.482352198E0,2.399871551E0,4.640656736E0,5.430694840E0
