"Time (s)","Linear Acceleration x (m/s^2)","Linear Acceleration y (m/s^2)","Linear Acceleration z (m/s^2)","Absolute acceleration (m/s^2)"
5.709458317E-3,-9.448971673E-2,4.875767923E-2,8.953899801E-2,1.390066546E-1
1.568745833E-2,-7.032465451E-2,3.742045342E-2,-1.409822166E-1,1.619315681E-1
2.566545829E-2,-4.778735207E-2,-2.760762870E-3,7.427133322E-2,8.835996699E-2
3.564345831E-2,2.073547609E-2,2.618479100E-2,-7.975952983E-2,8.647072248E-2
4.562145832E-2,4.189273286E-2,-3.608126745E-2,1.005311787E-2,5.619541001E-2
5.559945834E-2,8.372733160E-2,-9.089357860E-2,-2.137742043E-2,1.254149225E-1
6.557645829E-2,9.140678141E-2,-8.329330374E-2,-3.455178201E-2,1.284009337E-1
7.555445831E-2,7.745229162E-2,-3.682513378E-2,-5.065442920E-3,8.591045726E-2
8.553245832E-2,2.308186552E-2,5.166677409E-3,-2.871684551E-2,3.720382087E-2
9.551045834E-2,-2.119697900E-2,3.503194805E-3,-2.781929791E-2,3.514964621E-2
1.054884583E-1,-6.990802213E-2,2.228270188E-2,-3.245906353E-2,8.023241967E-2
1.154664583E-1,-6.992672408E-2,5.151804924E-2,-3.515638411E-2,9.370073363E-2
1.254444583E-1,-4.937073695E-2,4.092725249E-2,-3.141416609E-2,7.140979971E-2
1.354214583E-1,-1.108709289E-2,3.347521825E-3,-5.814471245E-3,1.295907431E-2
1.453994583E-1,4.450080117E-2,-2.896484968E-2,-1.868536234E-2,5.628877852E-2
1.553774583E-1,6.262006167E-2,-6.324978853E-2,-2.871450663E-2,9.352181972E-2
1.653554583E-1,7.668105301E-2,-5.261341546E-2,-3.081073344E-2,9.796660999E-2
1.753334583E-1,7.208353810E-2,-5.468708481E-2,-2.617038310E-2,9.418918548E-2
1.853114583E-1,3.852388697E-2,-4.434957299E-2,-2.811575174E-2,6.512656898E-2
1.952884583E-1,5.912464641E-3,4.187702760E-3,-1.644061625E-2,1.796630054E-2
2.052664583E-1,-3.662100200E-2,4.134605931E-2,-1.299836040E-2,5.674109428E-2
2.152444583E-1,-8.446662979E-2,5.464365553E-2,-2.123182476E-2,1.028169783E-1
2.252224583E-1,-5.619498580E-2,4.423756683E-2,-2.138151348E-2,7.464588312E-2
2.352004583E-1,-2.022803142E-2,1.692480225E-2,-4.203680277E-2,4.962574910E-2
2.451784583E-1,5.665008647E-3,-1.796513155E-2,-2.841337502E-2,3.409044081E-2
2.551564583E-1,4.428871170E-2,-4.183057878E-2,-2.496936500E-2,6.583886765E-2
2.651334583E-1,6.475722813E-2,-4.927672926E-2,-2.886127174E-2,8.634041723E-2
2.751114583E-1,7.660940178E-2,-4.795661526E-2,-1.568924904E-2,9.173325419E-2
2.850894583E-1,5.992476935E-2,-3.447735792E-2,-1.119917214E-2,7.003633091E-2
2.950674583E-1,1.472253299E-2,-9.812774467E-3,-1.194761574E-2,2.134921643E-2
3.050454583E-1,-2.160677289E-2,9.195061815E-3,-2.616745949E-2,3.515875044E-2
3.150234583E-1,-3.919987535E-2,2.380872010E-2,-2.257493019E-2,5.111861553E-2
3.250014583E-1,-3.482253779E-2,3.127259495E-2,-3.424889624E-2,5.799630356E-2
3.349784583E-1,-2.719460743E-2,3.943377311E-2,-2.047636449E-2,5.209463156E-2
3.449564583E-1,-2.160285800E-3,-4.475317248E-3,-1.882861912E-2,1.947337149E-2
3.549344583E-1,2.200996582E-2,-2.306623335E-2,-2.481499851E-2,4.040140922E-2
3.649124583E-1,4.654982085E-2,-5.251567103E-2,-3.768764377E-2,7.965638718E-2
3.748904583E-1,6.881527802E-2,-5.981808050E-2,-2.271760225E-2,9.396720011E-2
3.848684583E-1,4.561465007E-2,-2.996712183E-2,-1.628098726E-2,5.695432590E-2
3.948454583E-1,3.427089639E-2,-1.945761507E-2,-1.140207052E-4,3.940946745E-2
4.048234583E-1,2.228798722E-3,1.314662386E-2,-4.453824162E-3,1.405837161E-2
4.148014583E-1,-4.212581292E-2,1.662271134E-2,-2.496117890E-2,5.171033841E-2
4.247794583E-1,-5.514662571E-2,4.474701463E-2,-2.765323699E-2,7.621120103E-2
4.347574583E-1,-5.468326585E-2,3.876608047E-2,-2.121545255E-2,7.030763817E-2
4.447354583E-1,-3.188504054E-2,3.891909022E-2,-2.495533168E-2,5.616155245E-2
4.547134583E-1,-2.189296212E-2,2.917874814E-2,-3.243742883E-2,4.881483302E-2
4.646904583E-1,3.530499018E-2,-1.977089336E-2,-2.599964440E-2,4.809690286E-2
4.746684583E-1,5.705085372E-2,-3.438718289E-2,-3.078909874E-2,7.338424121E-2
4.846464583E-1,7.680338773E-2,-6.633747927E-2,-2.914193809E-2,1.055872818E-1
4.946244583E-1,7.792279148E-2,-6.219434326E-2,-3.153637290E-2,1.045688318E-1
5.046024583E-1,6.419007562E-2,-3.732910438E-2,-7.437073588E-3,7.462665680E-2
5.145804583E-1,1.939668526E-2,-1.620087127E-2,-3.168723106E-2,4.053122551E-2
5.245574583E-1,-2.101058987E-2,1.194944757E-2,-1.492326379E-2,2.840665390E-2
5.345354583E-1,-5.486468942E-2,3.197716617E-2,-2.091081262E-2,6.685757538E-2
5.445134583E-1,-5.833832838E-2,4.509232926E-2,-1.701890588E-2,7.567246443E-2
5.544914583E-1,-5.962764856E-2,3.969264031E-2,-4.021948814E-2,8.214967678E-2
5.644694583E-1,-1.738197686E-2,1.076728674E-2,-1.027998984E-2,2.288549266E-2
5.744474583E-1,2.518234526E-2,-1.604814474E-2,-1.611668050E-2,3.393288748E-2
5.844254583E-1,4.492032976E-2,-3.725944029E-2,-2.165457845E-2,6.224968019E-2
5.944024583E-1,8.354994169E-2,-4.852795218E-2,-1.686395466E-2,9.808133292E-2
6.043804583E-1,7.826319080E-2,-4.633510013E-2,-3.318002522E-2,9.681416535E-2
6.143584583E-1,3.231212254E-2,-2.544886409E-2,-1.551734090E-2,4.396027543E-2
6.243364583E-1,1.116546842E-2,8.136692941E-3,-3.108613729E-2,3.401795686E-2
6.343144583E-1,-3.141959532E-2,1.886566672E-2,-3.497687459E-2,5.066049849E-2
6.442924583E-1,-5.167387297E-2,2.048226196E-2,-2.434839070E-2,6.068406984E-2
6.542694583E-1,-4.225880053E-2,4.681546717E-2,-2.105465412E-2,6.648904157E-2
6.642474583E-1,-1.599602001E-2,3.246440825E-2,-1.581437945E-2,3.949563339E-2
6.742254583E-1,4.886477008E-3,-6.311397781E-3,-1.611317217E-2,1.798181629E-2
6.842034583E-1,3.397882568E-2,-2.449759976E-2,-4.275717974E-2,5.985707484E-2
6.941814583E-1,5.718355810E-2,-4.493788968E-2,-6.533094049E-3,7.302091867E-2
7.041594583E-1,7.250075977E-2,-4.929152089E-2,-1.296970904E-2,8.862407998E-2
7.141374583E-1,5.985928967E-2,-4.265309473E-2,-9.527453184E-3,7.411608067E-2
7.241144583E-1,3.545168449E-2,-1.416022499E-2,-2.150255084E-2,4.381430814E-2
7.340924583E-1,-1.330266686E-3,8.134408873E-3,-3.796889484E-2,3.885325202E-2
7.440704583E-1,-5.136765246E-2,1.113824232E-2,-2.629492879E-2,5.877175718E-2
7.540484583E-1,-5.187132614E-2,2.825272277E-2,-3.677255452E-2,6.957780957E-2
7.640264583E-1,-3.570947818E-2,2.597202087E-2,-3.602411091E-2,5.698639546E-2
7.740050000E-1,-1.649120380E-3,2.007135801E-2,-2.419870198E-2,3.148263312E-2
7.839820000E-1,3.384883249E-2,-8.011279302E-3,-2.868936360E-2,4.508884164E-2
7.939600000E-1,2.574436547E-2,-2.029561244E-2,-2.569558918E-2,4.165270149E-2
8.039380000E-1,6.606869922E-2,-4.251901077E-2,-1.416838825E-2,7.983534630E-2
8.139160000E-1,6.994554024E-2,-4.698133166E-2,-2.000566363E-2,8.660167840E-2
8.238940000E-1,4.786250249E-2,-3.429781185E-2,-9.077217579E-3,5.957814131E-2
8.338720000E-1,6.714654663E-3,-1.171224704E-4,-2.778830767E-2,2.858829040E-2
8.438500000E-1,-3.348149030E-2,1.753424201E-2,-3.257893145E-2,4.989836280E-2
8.538270000E-1,-2.853788417E-2,2.993476115E-2,-3.138142169E-2,5.191622468E-2
8.638050000E-1,-4.343714696E-2,2.758127055E-2,-1.761064410E-2,5.438425330E-2
8.737830000E-1,-1.123232083E-2,2.398732513E-2,-1.865788043E-2,3.239866201E-2
8.837610000E-1,-2.047380177E-2,1.467328161E-2,-1.865671098E-2,3.134572725E-2
8.937390000E-1,4.584302953E-2,-1.303849605E-2,-1.760888994E-2,5.081002598E-2
9.037170000E-1,4.044658852E-2,-3.146613322E-2,-2.449457109E-2,5.679813444E-2
9.136940000E-1,7.278066781E-2,-3.832292547E-2,-8.477877975E-3,8.268945906E-2
9.236720000E-1,4.542386639E-2,-1.855160728E-2,-3.362558305E-2,5.948251513E-2
9.336500000E-1,1.707831222E-2,-1.919041559E-2,-1.716157794E-2,3.089434505E-2
9.436280000E-1,3.122961335E-3,-2.080877870E-3,-1.401753008E-2,1.451117121E-2
9.536060000E-1,-1.363133976E-2,2.037739123E-2,-3.542418659E-2,4.308044211E-2
9.635840000E-1,-4.652790293E-2,3.501825278E-2,-2.419870198E-2,6.306108908E-2
9.735620000E-1,-4.712352407E-2,3.067879193E-2,-5.187649727E-3,5.646881002E-2
9.835390000E-1,-1.233132785E-2,1.053015017E-2,-2.644286335E-2,3.101887701E-2
9.935170000E-1,1.620460344E-2,1.482031625E-3,-1.057527423E-2,1.940675180E-2
1.003495000E0,3.372663710E-2,-1.219656552E-2,-2.225099444E-2,4.220603054E-2
1.013473000E0,5.005936537E-2,-3.275300946E-2,-1.551441729E-2,6.180126887E-2
1.023451000E0,5.340726178E-2,-4.039332861E-2,-1.551558673E-2,6.873638075E-2
1.033429000E0,4.696700142E-2,-2.456397937E-2,-1.805971026E-2,5.599501263E-2
1.043407000E0,1.580842945E-2,4.998766389E-3,-2.045589924E-2,2.633131066E-2
1.053384000E0,4.308781237E-4,3.441913244E-3,-2.329998493E-2,2.355677653E-2
1.063362000E0,-3.442514640E-2,2.099983647E-2,-4.051477253E-2,5.716231827E-2
1.073340000E0,-5.489114807E-2,2.894514731E-2,-1.611551106E-2,6.411372229E-2
1.083318000E0,-1.746440889E-2,2.344028613E-2,-2.973718464E-2,4.169835419E-2
1.093296000E0,-1.211000160E-2,9.477112312E-3,-2.464893758E-2,2.905233072E-2
1.103274000E0,1.315609361E-2,-8.750705402E-3,-3.273271322E-2,3.634677646E-2
1.113251000E0,1.961745648E-2,-3.167638174E-2,-4.201282918E-2,5.615439052E-2
1.123229000E0,3.807347092E-2,-3.169368584E-2,-1.761415243E-2,5.257696526E-2
1.133207000E0,3.795069766E-2,-2.837063096E-2,-3.303150594E-2,5.776009469E-2
1.143185000E0,2.350574525E-2,-1.509386544E-2,-2.944657803E-3,2.808942583E-2
1.153163000E0,2.028815039E-2,-3.185448884E-3,-8.483725190E-3,2.222002979E-2
1.163141000E0,-1.400910187E-2,1.928161845E-2,-2.973952353E-2,3.811135008E-2
1.173119000E0,-3.198669302E-2,2.435012202E-2,-1.551909506E-2,4.309198631E-2
1.183096000E0,-3.240888254E-2,2.302698848E-2,-2.435072958E-2,4.662119580E-2
1.193074000E0,-1.645277435E-2,1.614396599E-2,-1.686629355E-2,2.856209515E-2
1.203052000E0,2.238695591E-3,-9.510861710E-5,-3.617613852E-2,3.624546595E-2
1.213030000E0,6.629456619E-3,-2.867677838E-2,-3.782271445E-2,4.792561989E-2
1.223008000E0,2.807106394E-2,-3.246840080E-2,-2.764388144E-2,5.105257939E-2
1.232986000E0,5.088550385E-2,-3.132323275E-2,-1.177629232E-2,6.090287738E-2
1.242963000E0,4.778603188E-2,-1.613921969E-2,-2.509975791E-2,5.633806086E-2
1.252941000E0,2.562980801E-3,-2.126755673E-2,-2.689719200E-2,3.438512436E-2
1.262919000E0,-2.570882308E-2,-5.746209570E-3,-2.031147301E-2,3.326437200E-2
1.272897000E0,-1.742504069E-2,3.048168138E-2,-1.462388635E-2,3.803449742E-2
1.282875000E0,-3.179513960E-2,2.831262932E-2,-2.989272058E-2,5.202029051E-2
1.292853000E0,-3.108927332E-2,2.157917677E-2,-2.929279625E-2,4.785678320E-2
1.302831000E0,-1.447821759E-2,4.549110937E-3,-1.402454674E-2,2.066400508E-2
1.312808000E0,6.067166892E-3,-3.004313107E-3,-1.387544274E-2,1.543905187E-2
1.322786000E0,1.449125733E-2,-1.808845755E-2,-2.450334191E-2,3.372836493E-2
1.332764000E0,3.034898841E-2,-3.771444046E-2,-1.522147179E-2,5.074577145E-2
1.342742000E0,4.386870802E-2,-4.039092120E-2,-1.791645348E-2,6.226467188E-2
1.352720000E0,1.686550783E-2,-2.922104909E-2,-1.701832116E-2,3.778807112E-2
1.362698000E0,1.747044340E-2,-4.702591212E-3,-1.522264123E-2,2.364444042E-2
1.372676000E0,7.992641302E-5,9.227052480E-3,-1.507353723E-2,1.767360773E-2
1.382653000E0,-2.922829644E-2,1.791985217E-2,-1.901514530E-3,3.433700878E-2
1.392631000E0,-3.018224912E-2,2.215727911E-2,-2.450451136E-2,4.474800840E-2
1.402609000E0,-1.585758946E-2,8.435252686E-3,-3.408517420E-2,3.852811612E-2
1.412587000E0,3.955655093E-3,-1.261039764E-2,-3.318587244E-2,3.572074278E-2
1.422565000E0,1.837705876E-2,-2.307561174E-2,-1.851579309E-2,3.482864825E-2
1.432543000E0,2.001635079E-2,-2.693113783E-2,-2.600022912E-2,4.244940987E-2
1.442520000E0,3.014823705E-2,-1.922564507E-2,-3.123933434E-2,4.748091865E-2
1.452498000E0,4.984860522E-2,-3.445209155E-2,-2.375431359E-2,6.508530916E-2
1.462476000E0,1.986268779E-2,-1.933517986E-2,-3.318470299E-2,4.323887208E-2
1.472454000E0,-8.366591299E-3,-1.090798537E-2,-2.076112390E-2,2.489996506E-2
1.482432000E0,-1.811910518E-2,1.694372348E-2,-3.468275964E-2,4.264135967E-2
1.492410000E0,-3.663244746E-2,1.052906295E-2,-1.956419885E-2,4.284338048E-2
1.502388000E0,-1.908714143E-2,1.458769756E-2,-1.342637658E-2,2.752067362E-2
1.512365000E0,-8.343855680E-3,1.038259020E-2,-1.162894249E-2,1.768192326E-2
1.522343000E0,1.333347894E-4,6.599770579E-3,-2.794559777E-2,2.871465104E-2
1.532321000E0,1.981196776E-2,-1.628716795E-2,-1.671952844E-2,3.061582169E-2
1.542299000E0,1.661127044E-2,-1.508667063E-2,-2.809587121E-2,3.595719560E-2
1.552277000E0,2.625631433E-2,-2.817782816E-2,-1.447361290E-2,4.114449553E-2
1.562255000E0,2.331483823E-2,-2.016786905E-2,-1.207917809E-2,3.310938186E-2
1.572232000E0,2.456081822E-2,-6.757686515E-3,-1.192948937E-2,2.812850574E-2
1.582210000E0,3.779309008E-3,-4.315066994E-3,-1.297731042E-2,1.418850117E-2
1.592188000E0,-6.317941637E-3,1.890298840E-2,-3.782563806E-2,4.275533009E-2
1.602166000E0,-6.887620327E-3,1.944536790E-2,-7.138865590E-3,2.182945369E-2
1.612144000E0,-1.456413511E-3,9.969502687E-3,-3.602703452E-2,3.740934830E-2
1.622122000E0,1.941197938E-3,3.730304316E-3,-1.851462364E-2,1.898617150E-2
1.632100000E0,9.239980308E-3,-7.502571540E-3,-2.629726768E-2,2.886541361E-2
1.642077000E0,2.473467467E-2,-1.647501889E-2,-2.959100425E-2,4.193873998E-2
1.652055000E0,3.872306689E-2,-2.162275680E-2,-1.177804649E-2,4.588836345E-2
1.662033000E0,2.522093917E-2,-2.039328835E-2,-2.450158775E-2,4.064861356E-2
1.672011000E0,1.101276245E-2,-1.877653322E-2,-1.028174400E-2,2.407391527E-2
1.681989000E0,-1.382181053E-2,6.983494107E-3,-3.572765708E-2,3.893940314E-2
1.691967000E0,-2.361061141E-2,7.678961023E-3,-2.330290854E-2,3.405074096E-2
1.701944000E0,-1.620350709E-2,1.889498959E-2,-3.108613729E-2,3.982363878E-2
1.711922000E0,-5.943189932E-3,1.791491402E-2,-1.342345297E-2,2.316149262E-2
1.721900000E0,-1.430443651E-2,-8.542416617E-4,-2.539796591E-2,2.916167528E-2
1.731878000E0,-2.436516490E-3,-1.617720832E-2,-2.569734335E-2,3.046296336E-2
1.741856000E0,3.686558692E-2,-1.438738018E-2,-1.447127402E-2,4.213651598E-2
1.751834000E0,2.602765165E-2,-2.231234453E-2,-1.716567099E-2,3.833979172E-2
1.761812000E0,3.391411117E-2,-2.186676842E-2,-1.282469809E-2,4.234141446E-2
1.771789208E0,1.251567731E-2,-2.099199298E-2,-3.078734457E-2,3.930860636E-2
1.781767208E0,1.425769761E-2,-8.587056454E-3,-2.719481528E-2,3.188381185E-2
1.791745208E0,-4.774662713E-3,-9.754009950E-3,-4.365998983E-2,4.499036371E-2
1.801723208E0,-1.132818775E-2,3.380243392E-3,-1.237504721E-2,1.711419518E-2
1.811701208E0,-3.870616935E-3,1.210519820E-2,-8.333451748E-3,1.519749707E-2
1.821679208E0,-2.275428896E-2,1.179731032E-2,-1.761415243E-2,3.109971966E-2
1.831657208E0,-4.998953682E-3,1.025708520E-2,-1.147749960E-2,1.618426186E-2
1.841634208E0,6.635367789E-3,-1.370495073E-2,-1.506944418E-2,2.142292996E-2
1.851612208E0,2.682348054E-2,-1.974805724E-2,-1.641664267E-2,3.713476847E-2
1.861590208E0,2.390208598E-2,-2.684623443E-2,-3.138609946E-2,4.771914979E-2
1.871568208E0,2.281228832E-2,-2.015931293E-2,-3.512831748E-2,4.648437463E-2
1.881546208E0,2.358866836E-2,-1.816173504E-2,-3.093761802E-2,4.293495200E-2
1.891524208E0,1.418348594E-2,-4.062375915E-3,-2.270532310E-2,2.707777444E-2
1.901501208E0,4.709598734E-3,2.033620491E-3,-1.536999106E-2,1.620347364E-2
1.911479208E0,-3.243378117E-2,5.344030769E-3,-2.898991048E-2,4.382834398E-2
1.921457208E0,-1.379652589E-2,1.488288602E-2,-1.357197225E-2,2.441398889E-2
1.931435208E0,-1.562745585E-2,7.959663919E-3,-2.180426717E-2,2.798213167E-2
1.941413208E0,-4.779484381E-3,1.146926325E-2,-2.374963582E-2,2.680359438E-2
1.951391208E0,1.612905330E-2,-2.885664878E-3,-3.093410969E-2,3.500560761E-2
1.961369208E0,2.886077610E-2,-2.604409694E-2,-1.192364216E-2,4.066217683E-2
1.971346208E0,3.043273835E-2,-2.830162011E-2,-2.329998493E-2,4.764475378E-2
1.981324208E0,3.464130608E-2,-1.303596530E-2,-2.359936237E-2,4.389631400E-2
1.991302208E0,2.770958953E-3,5.736182509E-3,-6.834225655E-3,9.342839161E-3
2.001280208E0,1.089362086E-2,8.527570171E-3,-2.749126911E-2,3.077596962E-2
2.011258208E0,1.711781519E-3,2.114513065E-3,-2.165340900E-2,2.182364504E-2
2.021236208E0,-3.085810959E-3,1.125836606E-2,-2.105465412E-2,2.407429118E-2
2.031213208E0,-2.386991030E-3,1.218760740E-2,-1.626461506E-2,2.046394887E-2
2.041191208E0,-1.112553834E-3,7.740429877E-3,-2.284974933E-2,2.415084005E-2
2.051169208E0,6.719971974E-3,-3.508955226E-3,-6.832471490E-3,1.020556009E-2
2.061147208E0,2.708199828E-2,-1.230623279E-2,-2.674107134E-2,3.999953616E-2
2.071125208E0,2.696241130E-2,-1.848046311E-2,-1.940573931E-2,3.801423231E-2
2.081103208E0,3.998504221E-2,-3.052958286E-2,-2.284857988E-2,5.525320473E-2
2.091081208E0,2.029067428E-2,-1.869151105E-2,5.320966244E-5,2.758780309E-2
2.101058208E0,1.649426445E-3,-6.884886296E-3,-1.775974810E-2,1.911886292E-2
2.111036208E0,5.108435943E-3,-3.811160345E-3,-3.347764850E-2,3.407893792E-2
2.121014208E0,-1.672437523E-2,9.668704555E-3,-1.656340778E-2,2.544671004E-2
2.130992208E0,-4.867489545E-3,1.311888613E-2,-1.776091754E-2,2.261078990E-2
2.140970208E0,-6.979172649E-3,1.263846427E-2,-2.868819416E-2,3.211622820E-2
2.150948208E0,-2.154826876E-3,3.655327479E-3,-1.686336994E-2,1.738901790E-2
2.160925208E0,4.679190929E-3,6.640061550E-4,-1.895784259E-2,1.953805332E-2
2.170903208E0,2.296163671E-2,-1.700842200E-2,-2.434605181E-2,3.754002422E-2
2.180881208E0,1.703012294E-2,-1.843151095E-2,-2.255037189E-2,3.373818246E-2
2.190859208E0,1.813827994E-2,-2.185700174E-2,-1.970570147E-2,3.456935630E-2
2.200837208E0,1.709044748E-2,-3.566518323E-3,-1.371698320E-2,2.220268173E-2
2.210815208E0,1.289036506E-2,-1.023203353E-3,-1.761005938E-2,2.184771494E-2
2.220793208E0,-1.207322581E-2,-3.328829007E-3,-2.554356158E-2,2.844850474E-2
2.230770208E0,-6.952921848E-3,1.450355704E-2,-3.632114947E-2,3.972306871E-2
2.240748208E0,-1.794154626E-2,3.913084622E-3,-1.072437823E-2,2.126554965E-2
2.250726208E0,-8.035517838E-3,6.961384322E-3,-2.224982500E-2,2.465938221E-2
2.260704208E0,1.297530272E-2,-5.869704592E-3,-2.090262651E-2,2.529291814E-2
2.270682208E0,1.505866794E-2,-7.887674645E-3,-7.728849649E-3,1.867388574E-2
2.280660208E0,1.251180125E-2,-9.829649166E-3,-2.000215530E-2,2.555882216E-2
2.290637208E0,-4.122392102E-3,-2.132444831E-2,-1.685869217E-2,2.749439423E-2
2.300615208E0,2.243736759E-2,2.935389052E-3,-4.005927444E-2,4.600866703E-2
2.310593208E0,4.649550570E-3,-8.296271679E-3,-1.566001296E-2,1.832163885E-2
2.320571208E0,9.923232025E-3,-1.657923181E-3,-1.835382521E-2,2.093041192E-2
2.330549208E0,2.502119509E-3,4.921299918E-4,-2.239600539E-2,2.254071542E-2
2.340527208E0,-1.935282429E-2,7.271318729E-3,-3.332269728E-2,3.921487012E-2
2.350505208E0,-3.757080452E-3,1.845945425E-2,-2.359234571E-2,3.019049322E-2
2.360482208E0,1.053305094E-3,1.053245251E-2,-2.389172316E-2,2.613152202E-2
2.370460208E0,8.537716004E-3,-1.146896176E-2,-1.026888013E-2,1.760339676E-2
2.380438208E0,-2.396558993E-4,-1.599947581E-2,-2.972782910E-2,3.376069436E-2
2.390416208E0,1.302420920E-2,-1.656473711E-2,-4.050483227E-2,4.565809871E-2
2.400394208E0,3.619425575E-2,-1.000684264E-2,-1.535712719E-2,4.057095519E-2
2.410372208E0,6.258839078E-3,-5.640850053E-3,-1.206280589E-2,1.471405933E-2
2.420349208E0,1.475110897E-3,1.447533052E-2,-3.586331248E-2,3.870256229E-2
2.430327208E0,-1.866847394E-2,1.159909428E-2,-2.688315868E-2,3.472398491E-2
2.440305208E0,-1.335828393E-2,1.445278677E-2,-2.763160229E-2,3.392391840E-2
2.450283208E0,6.876814398E-3,1.006414992E-2,-3.541483104E-2,3.745381086E-2
2.460261208E0,4.902904029E-3,-3.726563011E-3,-1.760128856E-2,1.864754940E-2
2.470239208E0,-1.346499561E-3,1.187203591E-2,-3.571186960E-2,3.765761447E-2
2.480217208E0,1.072578065E-2,-6.557871625E-3,-2.912615061E-2,3.172350390E-2
2.490194208E0,2.400049507E-2,-1.046540596E-2,-1.804801583E-2,3.180061888E-2
2.500172208E0,1.731777854E-2,-9.039119314E-3,-2.568272531E-2,3.226784020E-2
2.510150208E0,7.122845133E-4,-1.031596392E-2,-3.646089792E-2,3.789885932E-2
2.520128208E0,3.746642258E-3,-3.886324475E-3,-2.598268747E-2,2.653753746E-2
2.530106208E0,-1.898061018E-4,-8.809849075E-3,-2.044537425E-2,2.226348570E-2
2.540084208E0,-3.768736054E-4,1.277967453E-2,-2.867825389E-2,3.139911402E-2
2.550061208E0,-2.095118581E-2,9.830544521E-3,-5.412592113E-2,5.886600998E-2
2.560039208E0,-1.117983065E-3,-4.347445951E-3,-2.628323436E-2,2.666380657E-2
2.570017208E0,-5.284565042E-3,9.160439903E-4,-7.271597385E-3,9.035590341E-3
2.579995208E0,1.908823550E-3,-1.225393675E-2,-2.777778268E-2,3.042051584E-2
2.589973208E0,3.357587944E-2,4.219405632E-4,-3.032132149E-2,4.524268173E-2
2.599951208E0,1.469798153E-5,-1.374663041E-2,-2.672996163E-2,3.005762653E-2
2.609929208E0,1.461953748E-2,-1.328802598E-3,-2.238898873E-2,2.677243749E-2
2.619906208E0,2.116372297E-2,-1.642846501E-2,-7.271012664E-3,2.776085837E-2
2.629884208E0,2.960572507E-2,-2.012631727E-2,-1.625292063E-2,3.931570975E-2
2.639862208E0,6.015083275E-3,3.309172313E-3,-2.014482737E-2,2.128252611E-2
2.649840208E0,-1.037411402E-2,1.592402388E-2,-1.760011911E-2,2.590291434E-2
2.659818208E0,-1.442935908E-2,3.018989161E-2,-1.370879710E-2,3.616029697E-2
2.669796208E0,-1.102732338E-2,1.085520968E-2,-3.391735911E-2,3.728035257E-2
2.679773208E0,-4.020280531E-3,-4.760889779E-3,-2.703167796E-2,2.774059012E-2
2.689751208E0,5.332085090E-3,-8.506328333E-3,-3.361856639E-2,3.508556341E-2
2.699729208E0,2.315617769E-2,3.022539974E-3,-9.068446755E-3,2.505156761E-2
2.709707208E0,1.532517079E-2,-2.381036463E-3,-1.146288157E-2,1.928543098E-2
2.719685208E0,-2.795295704E-3,-1.617232041E-2,-3.137148142E-2,3.540518990E-2
2.729663208E0,5.966213343E-3,-8.964078524E-3,-3.376708567E-2,3.544243897E-2
2.739641208E0,9.314212538E-3,1.445139349E-3,-3.526455760E-2,3.650249314E-2
2.749618208E0,-9.139542959E-3,-7.129354728E-4,-2.343914866E-2,2.516809911E-2
2.759596208E0,-5.238152768E-3,3.401042121E-3,-2.598268747E-2,2.672275024E-2
2.769574125E0,-5.313654940E-3,4.339099964E-3,-2.104179025E-2,2.213186965E-2
2.779552125E0,4.845827438E-3,5.411017933E-3,-8.019456267E-3,1.082002022E-2
2.789530125E0,1.035306633E-3,-4.072882631E-3,-3.376767039E-2,3.402816182E-2
2.799508125E0,1.167046914E-2,5.592025802E-3,-3.271926463E-2,3.518552089E-2
2.809485125E0,5.969753650E-3,-1.079131057E-3,-1.670257151E-2,1.777015412E-2
2.819463125E0,2.572075505E-2,-2.684382245E-2,-2.254043162E-2,4.347665008E-2
2.829441125E0,2.561643707E-2,-1.135228239E-2,-2.403731883E-2,3.691705378E-2
2.839419125E0,-1.387602518E-2,-1.651530529E-2,-3.062420726E-2,3.745852979E-2
2.849397125E0,-1.182453185E-3,4.631104432E-3,-3.496518016E-2,3.529035488E-2
2.859375125E0,-4.286593795E-3,1.342335247E-2,-3.616210520E-2,3.881055437E-2
2.869353125E0,-1.624262861E-3,4.904927714E-3,-2.224105418E-2,2.283333170E-2
2.879330125E0,4.077320576E-3,-7.467209590E-3,-2.673230052E-2,2.805351410E-2
2.889308125E0,-5.464296117E-3,-6.604219945E-3,-1.236276805E-2,1.504367931E-2
2.899286125E0,9.747429548E-3,-2.637620509E-2,-6.523738503E-3,2.886651592E-2
2.909264125E0,1.949239915E-2,-1.068778288E-2,-2.074358225E-2,3.040523857E-2
2.919242125E0,3.210880161E-2,-6.986732916E-3,-1.595354319E-2,3.652814145E-2
2.929220125E0,2.648655529E-2,-4.328944995E-3,-1.295918405E-2,2.980298353E-2
2.939197125E0,-8.394363290E-4,-3.734790226E-3,-7.120154500E-3,8.083929211E-3
2.949175125E0,-2.387680819E-3,1.145551773E-4,-3.630887032E-2,3.638747320E-2
2.959153125E0,-3.342426068E-3,5.406847224E-4,-2.657851875E-2,2.679331653E-2
2.969131125E0,-5.690759236E-3,8.101289878E-3,-2.508104682E-2,2.696431991E-2
2.979109125E0,-1.525792781E-2,-1.229668538E-2,-3.256489813E-2,3.800638660E-2
2.989087125E0,1.443143986E-2,-1.601652409E-2,-2.388295233E-2,3.217438286E-2
2.999065125E0,1.934070959E-2,-1.054943228E-2,-2.103769720E-2,3.046207925E-2
3.009042125E0,-2.001597849E-4,-1.099448761E-2,-1.744575262E-2,2.062215087E-2
3.019020125E0,2.336433857E-2,-8.898338461E-3,-1.714579046E-2,3.031585187E-2
3.028998125E0,2.478948089E-2,5.706060212E-3,-7.565127611E-3,2.653881387E-2
3.038976125E0,4.461005274E-3,-6.848916784E-3,-3.301221013E-2,3.400903184E-2
3.048954125E0,-4.437566162E-3,-3.599541388E-3,-3.151473820E-2,3.202854064E-2
3.058932125E0,-7.888713896E-3,-4.014789630E-3,-2.238372624E-2,2.407034572E-2
3.068909125E0,-4.655639897E-4,1.053901236E-3,-1.744399846E-2,1.748200617E-2
3.078887125E0,3.156658199E-3,2.471682010E-3,-3.166442692E-2,3.191723101E-2
3.088865125E0,-3.289072509E-3,1.480181986E-2,-2.028808415E-2,2.532821011E-2
3.098843125E0,-6.122471045E-3,-3.419734938E-3,-1.040979803E-2,1.255161877E-2
3.108821125E0,3.562745042E-3,-2.312219303E-2,-1.475135565E-2,2.765739424E-2
3.118799125E0,1.549009424E-2,-8.441702896E-3,-3.181470037E-2,3.637829747E-2
3.128777125E0,2.144702742E-2,-4.975902862E-3,-2.013898015E-2,2.983811515E-2
3.138754125E0,7.204116862E-3,-6.839565807E-3,-2.148734808E-2,2.367245420E-2
3.148732125E0,2.156278630E-2,-1.315577840E-4,-3.016987860E-2,3.708358984E-2
3.158710125E0,2.726447480E-2,-2.577950587E-3,-9.214042425E-3,2.889456685E-2
3.168688125E0,1.284521588E-2,1.624772209E-3,-2.672703803E-2,2.969804737E-2
3.178666125E0,-1.277554950E-3,1.256658006E-3,-1.145937324E-2,1.159864522E-2
3.188644125E0,-1.704574825E-2,-1.159619808E-2,-1.325680733E-2,2.451065654E-2
3.198622125E0,4.043482100E-3,-1.321628338E-2,-8.915834427E-3,1.644724893E-2
3.208599125E0,1.831835134E-2,-4.782044822E-3,-1.415435493E-2,2.363843717E-2
3.218577125E0,1.417818462E-2,3.842543447E-3,-1.819653511E-2,2.338589210E-2
3.228555125E0,8.494432904E-3,-1.364223020E-2,-2.418408394E-2,2.903679995E-2
3.238533125E0,7.722490802E-3,-1.281412742E-2,-2.328478217E-2,2.767706282E-2
3.248511125E0,1.693519476E-2,-3.458920419E-3,-3.166793525E-2,3.607801374E-2
3.258489125E0,6.897695353E-3,-3.430004111E-3,-1.894497871E-2,2.045129208E-2
3.268466125E0,-1.208420076E-2,1.622858159E-3,-1.759778023E-2,2.140895713E-2
3.278444125E0,2.402840182E-6,-2.273644125E-3,-1.415493965E-2,1.433637960E-2
3.288422125E0,3.181922282E-3,-1.605928643E-4,-1.295742989E-2,1.334336572E-2
3.298400125E0,-4.999291725E-3,9.908645963E-3,-1.774863839E-2,2.093294884E-2
3.308378125E0,1.569527441E-3,2.336168219E-3,-2.912439644E-2,2.926006778E-2
3.318356125E0,1.855335231E-3,3.223560853E-3,-3.062128365E-2,3.084633894E-2
3.328334125E0,5.883831556E-3,-1.048634173E-2,-2.867591500E-2,3.109486996E-2
3.338311125E0,1.717843208E-2,-1.403388401E-2,-9.815136194E-3,2.425665533E-2
3.348289125E0,1.079594267E-2,2.568252431E-3,-9.066692591E-3,1.433015049E-2
3.358267125E0,1.368828388E-2,-9.107020106E-3,-1.924494088E-2,2.531155230E-2
3.368245125E0,2.317770732E-2,-7.938970258E-3,-2.298774362E-2,3.359568011E-2
3.378223125E0,-6.188055791E-3,-1.227954573E-2,-1.984428048E-2,2.414279904E-2
3.388201125E0,-1.688550257E-3,-1.035715024E-2,-2.328770578E-2,2.554288558E-2
3.398178125E0,-7.799785968E-3,-3.446842264E-4,-2.942494333E-2,3.044310691E-2
3.408156125E0,5.460244180E-3,2.816992071E-3,-4.035338938E-2,4.081844859E-2
3.418134125E0,-4.311343962E-3,-6.706495970E-3,-1.565416574E-2,1.756751776E-2
3.428112125E0,-1.311244962E-3,1.695523518E-3,-2.283922434E-2,2.293958003E-2
3.438090125E0,2.292788960E-2,-1.240194440E-2,-2.194109201E-2,3.407209804E-2
3.448068125E0,2.402518129E-3,-1.666415348E-2,-3.032541454E-2,3.468568684E-2
3.458045125E0,1.889496218E-2,2.520364649E-3,-1.475837231E-2,2.410770389E-2
3.468023125E0,2.867221481E-2,-8.903747136E-3,-2.508806348E-2,3.912522900E-2
3.478001125E0,-1.273025642E-4,-8.229293651E-3,-2.853090405E-2,2.969427497E-2
3.487979125E0,6.486012542E-3,1.297277426E-2,-3.317183912E-2,3.620403487E-2
3.497957125E0,6.100370397E-3,3.023654600E-3,-3.781160474E-2,3.841971446E-2
3.507935125E0,-7.909928325E-3,-1.143642291E-2,-3.841094434E-2,4.085045141E-2
3.517913125E0,-2.074669315E-2,-4.117741738E-3,-2.508864820E-2,3.281495607E-2
3.527890125E0,-7.436205642E-3,5.633047675E-3,-1.401168287E-2,1.683317074E-2
3.537868125E0,1.822866510E-2,3.171082092E-3,-2.553829908E-2,3.153640298E-2
3.547846125E0,1.813896516E-2,-1.692077772E-2,-1.999981642E-2,3.186420300E-2
3.557824125E0,9.991162510E-3,2.412433270E-3,-2.434078932E-2,2.642190733E-2
3.567802125E0,1.057778670E-2,-1.742794602E-3,-2.374144971E-2,2.604963223E-2
3.577780125E0,8.397766552E-3,-1.402477515E-3,-1.984954298E-2,2.159846713E-2
3.587757125E0,2.324514901E-3,-4.162016124E-3,-2.883028150E-2,2.922175352E-2
3.597735125E0,9.944457875E-3,-5.728147156E-3,-1.730425000E-2,2.076393461E-2
3.607713125E0,1.481017270E-2,-3.396592755E-4,-1.206572950E-2,1.910597844E-2
3.617691125E0,7.011613275E-3,-6.567926095E-3,-3.182522535E-2,3.324372637E-2
3.627669125E0,8.743848628E-3,-1.030665862E-2,-6.827208996E-3,1.514242000E-2
3.637647125E0,8.497441022E-3,-1.267057828E-2,-1.835440993E-2,2.386701535E-2
3.647625125E0,1.201422832E-2,-1.447377736E-3,-1.895316482E-2,2.248686374E-2
3.657602125E0,1.275820429E-2,-1.290754583E-2,-1.296620071E-2,2.230468284E-2
3.667580125E0,2.356957812E-3,-1.171812166E-2,-1.880464554E-2,2.228192809E-2
3.677558125E0,-5.899941092E-3,-1.246736469E-2,-2.314561844E-2,2.694372172E-2
3.687536125E0,-1.008531182E-2,-1.362130356E-2,-1.416429520E-2,2.208802127E-2
3.697514125E0,4.018962623E-3,2.209297344E-3,-1.745744705E-2,1.804980645E-2
3.707492125E0,-1.638303031E-3,-9.562664386E-4,-1.715865433E-2,1.726319498E-2
3.717469125E0,4.628861477E-3,3.119434733E-3,-1.865554154E-2,1.947271069E-2
3.727447125E0,5.006114237E-3,-1.170780681E-2,-2.419343948E-2,2.733964949E-2
3.737425125E0,-8.549040416E-5,-5.164603475E-3,-2.913199782E-2,2.958637752E-2
3.747403125E0,3.530167372E-3,4.927667901E-3,-1.625876784E-2,1.735198906E-2
3.757381125E0,1.229379375E-2,-6.817661589E-3,-1.640787184E-2,2.160639102E-2
3.767359125E0,2.060898437E-2,-1.441407180E-2,-1.491039991E-2,2.923723188E-2
3.777336708E0,-2.173563091E-3,-1.352155372E-2,-2.898055494E-2,3.205353890E-2
3.787313708E0,8.299775440E-3,-2.683808031E-3,-2.014950514E-2,2.195658569E-2
3.797291708E0,5.176656505E-3,-1.581352064E-3,-2.733514845E-2,2.786590727E-2
3.807269708E0,-1.271238130E-2,7.055305224E-4,-2.374144971E-2,2.693991177E-2
3.817247708E0,-1.386952701E-3,7.542620399E-3,-2.164639235E-2,2.296477872E-2
3.827225708E0,4.063232441E-3,1.348083791E-2,-4.432774186E-3,1.476117664E-2
3.837203708E0,1.131276344E-4,-1.939859474E-4,-1.146814406E-2,1.147034248E-2
3.847180708E0,3.568539724E-3,-1.453203481E-2,-1.895199537E-2,2.414731124E-2
3.857158708E0,4.586306994E-3,-1.705541443E-2,-1.056825757E-2,2.058177449E-2
3.867136708E0,1.001461989E-2,-1.066163486E-2,-1.820238233E-2,2.335144090E-2
3.877114708E0,1.933708934E-2,-3.293946711E-3,-2.374086499E-2,3.079613254E-2
3.887092708E0,1.741499535E-3,-3.185193068E-3,-1.071794629E-2,1.131603500E-2
3.897070708E0,-4.052702885E-3,-7.130405400E-4,-1.326323926E-2,1.388691266E-2
3.907048708E0,-1.524702595E-3,-4.250720213E-3,-2.074709058E-2,2.123287799E-2
3.917025708E0,-1.281995180E-2,1.394798476E-2,-3.407055616E-2,3.898333285E-2
3.927003708E0,-2.322934326E-2,4.166817237E-3,-2.463958204E-2,3.411852513E-2
3.936981708E0,-2.299205137E-3,-4.511460350E-3,-2.239425123E-2,2.295957549E-2
3.946959708E0,-6.226256839E-4,4.396101180E-4,-2.209487379E-2,2.210801591E-2
3.956937708E0,-3.060544592E-3,1.663336423E-3,-2.389113843E-2,2.414373867E-2
3.966915708E0,5.465342221E-3,-1.342740898E-2,-1.670549512E-2,2.211874419E-2
3.976892708E0,8.695106604E-4,-9.829854732E-4,-1.565825880E-2,1.571315938E-2
3.986870708E0,1.629094809E-2,1.526808506E-4,-2.658495069E-2,3.117976754E-2
3.996848708E0,2.163920667E-2,-9.484599489E-3,-1.820179760E-2,2.982479386E-2
4.006826708E0,4.074625375E-3,5.190637289E-4,-1.715339184E-2,1.763833469E-2
4.016804708E0,-4.846891814E-3,1.135490451E-2,-2.553420603E-2,2.836233231E-2
4.026782708E0,-1.463292441E-2,8.293380048E-3,-2.822860301E-2,3.285965089E-2
4.036759708E0,-1.030253360E-2,-1.020546068E-2,-2.089327097E-2,2.543270332E-2
4.046737708E0,-3.673871832E-3,-3.513505091E-3,-1.310945749E-2,1.406058064E-2
4.056715708E0,2.870870966E-3,-1.509936548E-2,-5.176540017E-3,1.621817821E-2
4.066693708E0,1.970035903E-2,-1.588711790E-2,-1.505774975E-2,2.944894716E-2
4.076671708E0,1.427240245E-2,-1.442023879E-4,-5.083335400E-2,5.279916803E-2
4.086649708E0,2.077728825E-2,-1.115886746E-2,-3.331977367E-2,4.082184890E-2
4.096627708E0,1.018523297E-3,-1.222458647E-2,-8.769654036E-3,1.507928168E-2
4.106604708E0,-1.314883940E-2,-8.058787929E-4,-5.382537425E-2,5.541400844E-2
4.116582708E0,7.573172101E-4,-5.383033524E-3,2.146746755E-2,2.214503877E-2
4.126560708E0,8.570526650E-3,-2.908167522E-3,5.899840593E-3,1.080367921E-2
4.136538708E0,-2.814559310E-2,4.914127942E-3,-8.002206981E-2,8.496972826E-2
4.146516708E0,1.906788216E-2,-4.780829698E-4,1.009054005E-2,2.157850069E-2
4.156494708E0,1.618280886E-2,-9.201228800E-3,-2.034246325E-3,1.872656060E-2
4.166471708E0,9.961186394E-3,-8.948989967E-3,1.443151295E-2,1.968700642E-2
4.176449708E0,5.674633712E-3,-1.507245001E-2,-3.032366037E-2,3.433518015E-2
4.186427708E0,1.236901727E-2,-1.352091418E-2,2.607858181E-3,1.850969024E-2
4.196405708E0,6.749466152E-3,-2.270679404E-2,-4.140179515E-2,4.769971101E-2
4.206383708E0,-5.288171587E-3,9.357733182E-3,-8.032554030E-2,8.104149773E-2
4.216361708E0,-2.243701356E-2,1.075874889E-2,-2.000566363E-2,3.192799450E-2
4.226339708E0,-1.623461610E-2,1.465464361E-2,-8.856309772E-2,9.122359134E-2
4.236316708E0,-9.647654579E-4,-1.874977307E-2,4.974928021E-2,5.317401287E-2
4.246294708E0,-1.212056999E-3,7.936526304E-3,-3.691873491E-2,3.778161615E-2
4.256272708E0,1.249999946E-2,8.898397847E-3,-2.788537145E-3,1.559510854E-2
4.266250708E0,-5.947591332E-3,-1.055132349E-2,-2.000215530E-2,2.338355163E-2
4.276228708E0,-5.436259175E-3,-6.996467616E-3,-2.164814651E-2,2.339114619E-2
4.286206708E0,1.654809995E-2,-1.486856491E-2,-2.269596756E-2,3.178082406E-2
4.296183708E0,1.493856933E-2,-1.862854385E-3,-2.823561966E-2,3.199814523E-2
4.306161708E0,-4.956641311E-3,4.699439197E-3,-2.823678911E-2,2.905114939E-2
4.316139708E0,-3.807695413E-3,8.513011518E-3,-4.095974565E-2,4.200798344E-2
4.326117708E0,1.512507267E-2,-3.203678036E-2,3.808233082E-2,5.201333521E-2
4.336095708E0,1.173636498E-1,2.967276477E-2,-2.678656268E-1,2.939501544E-1
4.346073708E0,-3.928162673E-2,-3.268389811E-2,2.264129609E-1,2.321079754E-1
4.356051708E0,-5.656439735E-2,9.601120792E-2,-2.170989311E-1,2.440279266E-1
4.366028708E0,3.579915528E-2,-7.642114428E-3,6.395684481E-3,3.716027734E-2
4.376006708E0,-2.826245062E-2,-1.065528424E-1,1.327393967E-1,1.725457092E-1
4.385984708E0,-2.481880833E-2,-3.129200954E-2,-8.744686425E-2,9.613593072E-2
4.395962708E0,7.852816103E-2,3.841779198E-2,2.022072423E-1,2.202960908E-1
4.405940708E0,-9.244904760E-4,5.524934028E-2,-2.620774680E-1,2.678393988E-1
4.415918708E0,8.413661842E-2,6.813479003E-2,-3.371861225E-1,3.541409344E-1
4.425895708E0,2.933967996E-1,1.564720756E-1,-9.074089319E-1,9.664140738E-1
4.435873708E0,5.353967563E-1,3.828138466E-1,-8.281125015E-1,1.057812102E0
4.445851708E0,3.570313532E-1,3.352628637E-1,-8.195808291E-1,9.547697683E-1
4.455829708E0,3.201188309E-1,7.942415547E-2,2.533604389E-1,4.159035638E-1
4.465807708E0,6.464664815E-1,-9.025433175E-3,1.273764474E0,1.428452417E0
4.475785708E0,1.966660552E-1,-3.112511630E-1,1.357134075E0,1.406189078E0
4.485762708E0,-1.170629750E0,-8.506685744E-1,1.205721011E0,1.883553607E0
4.495740708E0,-6.206124327E-1,-7.860368147E-1,3.551078385E-1,1.062598345E0
4.505718708E0,-1.077803009E-1,-8.927122477E-1,1.382983446E-2,8.993014037E-1
4.515696708E0,-2.216386545E-1,-1.641870966E0,4.766293520E-1,1.723960411E0
4.525674708E0,3.998413771E-2,-4.936083506E-1,1.466993902E0,1.548327821E0
4.535652708E0,-4.856255125E-2,-1.313361819E0,1.073780344E0,1.697139303E0
4.545630708E0,-2.891062589E-1,-1.166855226E0,1.028539851E0,1.582096006E0
4.555607708E0,-6.279798514E-1,-5.715768783E-1,1.199913556E0,1.469983457E0
4.565585708E0,-1.504741041E0,-1.009446792E0,1.079435186E0,2.109125114E0
4.575563708E0,-2.719734128E0,-1.026054127E0,7.157582527E-1,2.993668431E0
4.585541708E0,-3.278698123E0,-8.414467844E-1,3.863302159E-1,3.406926050E0
4.595519708E0,-3.258093412E0,-9.454075744E-1,1.518247086E-1,3.395882640E0
4.605497708E0,-2.643061343E0,-1.004887425E0,8.082723141E-2,2.828799222E0
4.615474708E0,-1.780139197E0,-9.375837075E-1,1.683097637E-1,2.018981661E0
4.625452708E0,-1.146486816E0,-9.856712821E-1,3.103111500E-1,1.543461339E0
4.635430708E0,-7.997349407E-1,-1.167671863E0,3.442980909E-1,1.456562642E0
4.645408708E0,-7.746173488E-1,-1.208809510E0,3.434186697E-1,1.476207591E0
4.655386708E0,-1.071366394E0,-1.093361645E0,4.008704871E-1,1.582391476E0
4.665364708E0,-1.442470825E0,-1.136991741E0,4.200891155E-1,1.884130348E0
4.675342708E0,-1.749948561E0,-1.141546796E0,3.924364632E-1,2.125901087E0
4.685319708E0,-2.117474277E0,-1.073671220E0,3.112724322E-1,2.394443094E0
4.695297708E0,-2.471923281E0,-1.051993837E0,3.663339078E-1,2.711327400E0
4.705275708E0,-2.668356398E0,-1.007593809E0,5.756776768E-1,2.909772489E0
4.715253708E0,-2.758875974E0,-9.475692169E-1,8.185318387E-1,3.029732402E0
4.725231708E0,-2.863309877E0,-9.854696994E-1,1.166830010E0,3.245178924E0
4.735209708E0,-2.865832073E0,-1.008462267E0,1.532148256E0,3.402567838E0
4.745186708E0,-2.612228682E0,-9.186091273E-1,1.984263157E0,3.406593855E0
4.755164708E0,-2.349505974E0,-9.035690653E-1,2.464559298E0,3.522877788E0
4.765142708E0,-2.079287135E0,-8.314226103E-1,2.982467653E0,3.729586016E0
4.775120875E0,-1.739827908E0,-6.985982828E-1,3.372502080E0,3.858602207E0
4.785098875E0,-1.221039692E0,-5.458244249E-1,3.610290799E0,3.850072972E0
4.795076875E0,-8.208175153E-1,-3.516199744E-1,3.790615422E0,3.894373284E0
4.805053875E0,-7.432273755E-1,-1.481286836E-1,3.871521590E0,3.944997904E0
4.815031875E0,-8.209859882E-1,2.470243961E-2,3.933755845E0,4.018589710E0
4.825009875E0,-8.504064730E-1,2.419811726E-1,4.171908261E0,4.264570857E0
4.834987875E0,-6.474638703E-1,4.484019184E-1,4.455156158E0,4.524233652E0
4.844965875E0,-1.550812422E-1,9.509753662E-1,4.821844407E0,4.917172747E0
4.854943875E0,7.083315580E-1,1.524445427E0,5.411821450E0,5.666875582E0
4.864921875E0,1.554500846E0,1.731227823E0,6.294503092E0,6.710766858E0
4.874898875E0,2.485197338E0,1.672058386E0,7.082577953E0,7.689921685E0
4.884876875E0,3.033631960E0,1.296990492E0,7.292896453E0,8.004464122E0
4.894854875E0,3.236818026E0,1.030423532E0,7.240036454E0,7.997305261E0
4.904832875E0,3.426132742E0,8.512549040E-1,6.903230401E0,7.753554697E0
4.914810875E0,3.377652308E0,7.859584621E-1,6.681761261E0,7.528094006E0
4.924788875E0,3.478600393E0,7.730586272E-1,6.483496796E0,7.398243781E0
4.934765875E0,4.006723250E0,6.163210881E-1,6.270075179E0,7.466426564E0
4.944743875E0,4.827501588E0,1.298871249E-1,5.910861425E0,7.632818945E0
4.954721875E0,5.449479273E0,-4.271911436E-1,5.420212204E0,7.697922899E0
4.964699875E0,5.885114965E0,-8.157304376E-1,4.777460532E0,7.623917854E0
4.974677875E0,6.177890316E0,-1.100345998E0,4.284198775E0,7.598121427E0
4.984655875E0,6.635760630E0,-1.540528486E0,4.053252468E0,7.926878498E0
4.994633875E0,7.026172203E0,-2.311224253E0,3.842536358E0,8.335102821E0
5.004610875E0,7.243970461E0,-3.096366152E0,3.438484985E0,8.595683241E0
5.014588875E0,7.342525865E0,-3.752381063E0,2.823932680E0,8.715942032E0
5.024566875E0,6.696033145E0,-4.597807755E0,1.940962771E0,8.351289272E0
5.034544875E0,6.028538979E0,-4.955435159E0,1.014704754E0,7.869513681E0
5.044522875E0,5.933176739E0,-4.973838100E0,4.119761038E-1,7.753152648E0
5.054500875E0,5.632238676E0,-5.610135616E0,2.769755888E-1,7.954398130E0
5.064477875E0,5.538435888E0,-6.080804901E0,2.515524799E-1,8.228835822E0
5.074455875E0,5.464711854E0,-6.342312850E0,1.712035507E-1,8.373608458E0
5.084433875E0,5.562413566E0,-6.455844728E0,-8.668497205E-3,8.521646025E0
5.094411875E0,5.483296060E0,-6.987050237E0,-2.100664848E-1,8.884229546E0
5.104389875E0,4.894020391E0,-7.564862732E0,-4.349533224E-1,9.020408424E0
5.114367875E0,4.292987725E0,-7.923216945E0,-7.044219634E-1,9.038988918E0
5.124344875E0,3.683012620E0,-8.310242395E0,-8.883192345E-1,9.133116756E0
5.134322875E0,2.937713649E0,-8.619686987E0,-1.101649489E0,9.172938288E0
5.144300875E0,2.232323387E0,-8.727913687E0,-1.421414856E0,9.120316070E0
5.154278875E0,1.613790443E0,-8.444790920E0,-1.857432371E0,8.795957497E0
5.164256875E0,1.203234555E0,-7.978585984E0,-2.425485279E0,8.425472482E0
5.174234875E0,9.670384716E-1,-7.628142470E0,-2.873440470E0,8.208555359E0
5.184212875E0,4.795572721E-1,-7.415974495E0,-3.147359135E0,8.070472255E0
5.194189875E0,-1.646700547E-1,-7.386771746E0,-3.345387372E0,8.110679979E0
5.204167875E0,-8.706081645E-1,-7.329125217E0,-3.389594076E0,8.121784473E0
5.214145875E0,-1.425104449E0,-7.133529421E0,-3.243427718E0,7.964796799E0
5.224123875E0,-1.806519203E0,-6.798504429E0,-3.012155721E0,7.652205969E0
5.234101875E0,-1.950167457E0,-6.411202991E0,-2.586529292E0,7.183092000E0
5.244079875E0,-1.750570120E0,-6.050221624E0,-1.969581968E0,6.599161354E0
5.254056875E0,-1.374642685E0,-5.789857975E0,-1.213110722E0,6.073198129E0
5.264034875E0,-1.018954584E0,-5.765217808E0,-5.711752842E-1,5.882367383E0
5.274012875E0,-1.182559093E0,-5.735832042E0,-3.244754452E-1,5.865449644E0
5.283990875E0,-2.041338413E0,-5.493562601E0,-5.561415446E-1,5.886899523E0
5.293968875E0,-3.170610880E0,-5.230886378E0,-9.357503861E-1,6.187937818E0
5.303946875E0,-3.983060153E0,-5.036592173E0,-1.121762595E0,6.518464560E0
5.313924875E0,-4.082033048E0,-4.896151993E0,-1.045309666E0,6.459719069E0
5.323901875E0,-3.436684043E0,-4.762301626E0,-7.302932614E-1,5.918077579E0
5.333879875E0,-2.426772543E0,-4.574626468E0,-4.243435496E-1,5.195815600E0
5.343857875E0,-1.444148392E0,-4.532553998E0,-4.206937176E-1,4.775624935E0
5.353835875E0,-9.942105559E-1,-4.526779872E0,-8.289293575E-1,4.708217765E0
5.363813875E0,-1.566756464E0,-4.550737669E0,-1.473757376E0,5.033477918E0
5.373791875E0,-3.118947514E0,-4.892542507E0,-1.695154011E0,6.044696262E0
5.383768875E0,-4.170856347E0,-4.630824058E0,-1.747307081E0,6.472530893E0
5.393746875E0,-4.519814084E0,-3.783920944E0,-1.730419738E0,6.143380953E0
5.403724875E0,-4.274258216E0,-3.426292956E0,-1.512392853E0,5.682965675E0
5.413702875E0,-3.327218319E0,-3.455079383E0,-9.449703488E-1,4.888857151E0
5.423680875E0,-2.139717817E0,-3.616026333E0,-3.520421433E-1,4.216393298E0
5.433658875E0,-1.417112913E0,-3.757827744E0,-1.384901333E-1,4.018539272E0
5.443635875E0,-1.473376284E0,-3.639373096E0,-3.829620735E-1,3.944937788E0
5.453613875E0,-2.602879569E0,-3.253301911E0,-7.878808804E-1,4.240249009E0
5.463591875E0,-4.066649901E0,-2.923211970E0,-1.039125212E0,5.114938010E0
5.473569875E0,-5.167487943E0,-2.716645628E0,-9.391547813E-1,5.913130035E0
5.483547875E0,-5.605374813E0,-2.619008237E0,-4.607806201E-1,6.204171961E0
5.493525875E0,-5.300006315E0,-2.827883059E0,2.763803422E-1,6.013599224E0
5.503502875E0,-4.942912177E0,-3.139233844E0,9.655483818E-1,5.934598014E0
5.513480875E0,-4.836378247E0,-3.201643515E0,1.273927612E0,5.938347186E0
5.523458875E0,-5.068001661E0,-2.726675357E0,1.043152628E0,5.848723514E0
5.533436875E0,-5.792110323E0,-2.069134322E0,5.836904088E-1,6.178232217E0
5.543414875E0,-6.587654418E0,-1.525771283E0,2.916363126E-1,6.768324791E0
5.553392875E0,-7.177765946E0,-1.004420087E0,3.225973195E-1,7.254877857E0
5.563370875E0,-7.361326418E0,-5.216868263E-1,7.163248479E-1,7.414472676E0
5.573347875E0,-6.989482679E0,-9.872146547E-2,1.167850934E0,7.087064967E0
5.583325875E0,-6.607837252E0,3.051661849E-3,1.462401791E0,6.767727939E0
5.593303875E0,-6.470896046E0,-8.479690611E-2,1.559183150E0,6.656631149E0
5.603281875E0,-6.557944715E0,1.093084341E-1,1.690148794E0,6.773122630E0
5.613259875E0,-6.607847192E0,9.723574644E-1,1.616245543E0,6.871780934E0
5.623237875E0,-6.489771443E0,1.899016600E0,1.341281981E0,6.893651774E0
5.633214875E0,-6.535480297E0,2.208126732E0,1.218195168E0,7.005164227E0
5.643192875E0,-6.707096661E0,2.164569653E0,1.301592543E0,7.166913600E0
5.653170875E0,-6.821693317E0,2.113171458E0,1.935430720E0,7.399113825E0
5.663148875E0,-6.710836540E0,1.999012173E0,3.239440502E0,7.715267429E0
5.673126875E0,-6.231882920E0,1.869803910E0,4.849252646E0,8.114664665E0
5.683104875E0,-5.626680897E0,2.222538364E0,6.183870263E0,8.650980646E0
5.693081875E0,-4.605458252E0,3.320543722E0,6.996433264E0,9.010345983E0
5.703059875E0,-3.483732786E0,3.964284743E0,7.285826585E0,8.996400206E0
5.713037875E0,-2.623014749E0,3.993845342E0,6.429802399E0,8.010828040E0
5.723015875E0,-1.698446578E0,4.418969495E0,4.887450167E0,6.804350175E0
5.732993875E0,-9.206011274E-1,4.720905093E0,3.527926335E0,5.964957297E0
5.742971875E0,-1.466774777E-1,4.757259572E0,2.576203694E0,5.412010568E0
5.752949875E0,4.983493461E-1,4.656976900E0,2.110959456E0,5.137308219E0
5.762926875E0,6.070734973E-1,4.068145911E0,2.320369883E0,4.722548653E0
5.772905083E0,2.710064587E-1,3.155145872E0,3.161166165E0,4.474523605E0
5.782883083E0,-9.111672297E-2,2.261765580E0,4.046198972E0,4.636336044E0
5.792861083E0,-2.689320128E-1,1.292053980E0,4.787060198E0,4.965649329E0
5.802839083E0,-2.898532773E-1,6.978926700E-1,5.364097061E0,5.417066215E0
5.812817083E0,1.237343922E-2,6.775274026E-1,5.668738750E0,5.709097608E0
5.822794083E0,4.462225880E-1,7.071289319E-1,5.459781482E0,5.523437314E0
5.832772083E0,8.478038773E-1,7.231754458E-1,4.553472412E0,4.687842269E0
5.842750083E0,1.123308453E0,9.050735539E-1,3.370039525E0,3.665807745E0
5.852728083E0,1.178246187E0,1.150766539E0,2.431435406E0,2.936733872E0
5.862706083E0,1.115270212E0,1.353781282E0,1.962227047E0,2.631897869E0
5.872684083E0,1.123603591E0,1.523823575E0,1.890286414E0,2.675388952E0
5.882661083E0,1.104338258E0,1.571187192E0,2.075444053E0,2.827659844E0
5.892639083E0,1.040421832E0,1.548896436E0,2.332917131E0,2.987316538E0
5.902617083E0,1.083585978E0,1.530798134E0,2.742821274E0,3.322735325E0
5.912595083E0,1.284700960E0,1.463237650E0,3.222673319E0,3.765254878E0
5.922573083E0,1.620033077E0,1.476675137E0,3.630521873E0,4.240962827E0
5.932551083E0,1.958408523E0,1.552688355E0,3.891625487E0,4.625035568E0
5.942528083E0,2.198988849E0,1.529028182E0,4.084533318E0,4.884351703E0
5.952506083E0,2.312238745E0,1.404812272E0,4.216202674E0,5.009621794E0
5.962484083E0,2.490313944E0,1.229894570E0,4.166073909E0,5.007042641E0
5.972462083E0,2.714436843E0,1.024069655E0,3.824663466E0,4.800514208E0
5.982440083E0,3.078440635E0,8.450466228E-1,3.379355602E0,4.648757341E0
5.992418083E0,3.440979407E0,8.415166587E-1,3.049429967E0,4.674132293E0
6.002396083E0,3.729807302E0,9.834794533E-1,2.957522262E0,4.860620565E0
6.012373083E0,4.083096364E0,1.231124824E0,3.057349436E0,5.247354555E0
6.022351083E0,4.463839858E0,1.391971201E0,3.313081213E0,5.730615781E0
6.032329083E0,4.783666767E0,1.310296708E0,3.536891578E0,6.091793433E0
6.042307083E0,5.116016657E0,1.155287606E0,3.486725684E0,6.298060962E0
6.052285083E0,5.459057597E0,1.137429040E0,3.194275731E0,6.426387174E0
6.062263083E0,5.582403442E0,1.203261087E0,2.870815363E0,6.391607488E0
6.072240083E0,5.577905763E0,1.363040348E0,2.599556597E0,6.303063239E0
6.082218083E0,5.624530292E0,1.638630146E0,2.495807695E0,6.367849386E0
6.092196083E0,5.600671313E0,1.725016326E0,2.591817514E0,6.407863802E0
6.102174083E0,5.577074289E0,1.488550832E0,2.765787383E0,6.400712543E0
6.112152083E0,5.511767322E0,1.039257213E0,2.836773750E0,6.285453037E0
6.122130083E0,5.318870602E0,6.962817621E-1,2.891164843E0,6.093769516E0
6.132107083E0,5.021368947E0,4.799780524E-1,2.949844868E0,5.843467273E0
6.142085083E0,4.675213780E0,2.480131602E-1,2.970511851E0,5.544643819E0
6.152063083E0,4.350129055E0,2.427997828E-2,3.043647071E0,5.309237215E0
6.162041083E0,4.168326257E0,-2.458298099E-1,3.134097649E0,5.220914111E0
6.172019083E0,4.129644586E0,-5.468117273E-1,3.217664301E0,5.263680369E0
6.181997083E0,4.125838049E0,-9.812475711E-1,3.245837356E0,5.340491227E0
6.191975083E0,4.110348775E0,-1.397020857E0,3.224651139E0,5.407865503E0
6.201952083E0,4.085905659E0,-1.745461700E0,3.194216967E0,5.472137026E0
6.211930083E0,4.085884025E0,-2.133981698E0,3.180809886E0,5.600524768E0
6.221908083E0,4.053465891E0,-2.502184961E0,3.064331596E0,5.664065981E0
6.231886083E0,3.960747762E0,-2.916018140E0,2.914214859E0,5.716933870E0
6.241864083E0,3.797392344E0,-3.188407173E0,2.626253521E0,5.611001379E0
6.251842083E0,3.742221818E0,-3.299208401E0,2.287944149E0,5.488505137E0
6.261819083E0,3.767055820E0,-3.565506974E0,1.951151544E0,5.541709293E0
6.271797083E0,3.719705068E0,-3.827549359E0,1.493314558E0,5.542231343E0
6.281775083E0,3.560622503E0,-4.038077774E0,1.040082913E0,5.483236014E0
6.291753083E0,3.239316249E0,-4.321625049E0,7.791052330E-1,5.456795560E0
6.301731083E0,2.821266350E0,-4.596215558E0,6.757944341E-1,5.435203712E0
6.311709083E0,2.409396519E0,-4.806254561E0,6.784315284E-1,5.418998416E0
6.321686083E0,1.936501491E0,-4.945853326E0,6.866959830E-1,5.355656311E0
6.331664083E0,1.459036134E0,-5.080822851E0,6.520557618E-1,5.326229811E0
6.341642083E0,1.131213523E0,-5.141946720E0,6.115665708E-1,5.300308838E0
6.351620083E0,8.471549094E-1,-5.187097165E0,6.107747117E-1,5.291190243E0
6.361598083E0,7.408999644E-1,-5.285656078E0,6.540180874E-1,5.377251397E0
6.371576083E0,7.650741812E-1,-5.327899872E0,7.393792498E-1,5.433096467E0
6.381553083E0,8.200789388E-1,-5.350647295E0,7.598374879E-1,5.466196937E0
6.391531083E0,7.889898779E-1,-5.496035389E0,5.584266365E-1,5.580389801E0
6.401509083E0,7.368760568E-1,-5.563928579E0,2.795954338E-1,5.619471609E0
6.411487083E0,5.979170499E-1,-5.633005246E0,3.875183702E-2,5.664781956E0
6.421465083E0,3.546839154E-1,-5.813670761E0,-6.489795417E-2,5.824841641E0
6.431443083E0,4.708470404E-2,-5.942183790E0,-3.692750573E-2,5.942485070E0
6.441421083E0,-1.311760065E-1,-5.903944754E0,1.595304617E-1,5.907556244E0
6.451398083E0,-1.880744855E-1,-5.877904764E0,6.183538726E-1,5.913332219E0
6.461376083E0,-1.799043903E-1,-6.163150070E0,1.138821554E0,6.270063708E0
6.471354083E0,-2.153373843E-1,-6.505747206E0,1.470413353E0,6.673322435E0
6.481332083E0,-3.218359389E-1,-6.776085620E0,1.418768698E0,6.930499211E0
6.491310083E0,-6.088348248E-1,-6.860930473E0,1.157868275E0,6.984533323E0
6.501288083E0,-1.242561685E0,-6.647477866E0,6.496563569E-1,6.793745278E0
6.511265083E0,-1.901123059E0,-6.286080177E0,4.076629052E-1,6.579913520E0
6.521243083E0,-2.399045193E0,-6.041186507E0,6.805039278E-1,6.535628343E0
6.531221083E0,-2.699186427E0,-5.853718926E0,1.228234837E0,6.562026626E0
6.541199083E0,-2.884413940E0,-5.795711623E0,1.622466834E0,6.674017952E0
6.551177083E0,-3.225969979E0,-5.956434624E0,1.699578745E0,6.983878840E0
6.561155083E0,-3.695420997E0,-6.157273618E0,1.408719673E0,7.317967332E0
6.571132083E0,-4.160214999E0,-6.011514811E0,8.516609931E-1,7.360096848E0
6.581110083E0,-4.352543371E0,-5.542205003E0,2.072675689E-1,7.050080137E0
6.591088083E0,-4.067337826E0,-4.715899876E0,-2.410641830E-1,6.232259668E0
6.601066083E0,-3.692594453E0,-4.074105978E0,-4.566042463E-1,5.517434254E0
6.611044083E0,-3.333121960E0,-3.949208867E0,-4.366990086E-1,5.186198868E0
6.621022083E0,-3.097508113E0,-3.852320504E0,-3.133360608E-1,4.953090879E0
6.631000083E0,-3.217632434E0,-3.786113650E0,-1.899561560E-1,4.972313183E0
6.640977083E0,-3.701771365E0,-3.443787240E0,7.250547409E-2,5.056484830E0
6.650955083E0,-4.230354105E0,-2.813511772E0,3.370697995E-1,5.091695238E0
6.660933083E0,-4.504405209E0,-2.179570684E0,7.716991496E-1,5.063172349E0
6.670911083E0,-4.449144051E0,-1.460014665E0,1.422215924E0,4.893794412E0
6.680889083E0,-4.366321457E0,-1.053018050E0,2.015446942E0,4.922970288E0
6.690867083E0,-4.409168684E0,-1.157707184E0,2.201979554E0,5.062585146E0
6.700844083E0,-4.578183914E0,-1.562055595E0,1.965650300E0,5.221452550E0
6.710822083E0,-4.749045111E0,-1.554125016E0,1.541987366E0,5.229384196E0
6.720800083E0,-4.631545604E0,-8.956612909E-1,1.249661082E0,4.880069329E0
6.730778083E0,-4.254731440E0,-1.023981947E-1,1.256845410E0,4.437666661E0
6.740756083E0,-4.094260453E0,4.458998948E-1,1.532446318E0,4.394335797E0
6.750734083E0,-4.402777677E0,6.463243210E-1,1.788344302E0,4.795869238E0
6.760711083E0,-4.927526983E0,6.451852834E-1,1.935851719E0,5.333320551E0
6.770689083E0,-5.481040789E0,4.148880172E-1,2.118101684E0,5.890695624E0
6.780667208E0,-5.878239809E0,2.326718205E-1,2.375257697E0,6.344264225E0
6.790645208E0,-5.938691248E0,7.169282806E-1,2.622534985E0,6.531441621E0
6.800623208E0,-5.579925392E0,1.277058796E0,2.663692074E0,6.313612437E0
6.810601208E0,-5.133057783E0,1.707851239E0,2.522132152E0,5.968767766E0
6.820578208E0,-4.672780754E0,2.251978510E0,2.398042542E0,5.714621179E0
6.830556208E0,-4.213531958E0,2.667841843E0,2.469977328E0,5.565251087E0
6.840534208E0,-3.983658030E0,2.688102445E0,2.646870511E0,5.486469681E0
6.850512208E0,-4.126947558E0,2.346768892E0,2.889464472E0,5.557699643E0
6.860490208E0,-4.469627432E0,2.044311138E0,3.127730909E0,5.825759869E0
6.870468208E0,-4.813278529E0,2.029922894E0,3.265568493E0,6.160533640E0
6.880445208E0,-4.798344448E0,2.215125849E0,3.330678993E0,6.246944415E0
6.890423208E0,-4.495642864E0,2.243484845E0,3.270528978E0,5.995030342E0
6.900401208E0,-4.024639703E0,2.094138186E0,3.088686419E0,5.488453632E0
6.910379208E0,-3.356124029E0,1.986772782E0,2.731242033E0,4.761356700E0
6.920357208E0,-2.756275717E0,1.864183567E0,2.313057940E0,4.052465081E0
6.930335208E0,-2.379704212E0,1.671540030E0,2.020947418E0,3.541365086E0
6.940312208E0,-2.153502043E0,1.606565185E0,2.033921220E0,3.369786087E0
6.950290208E0,-1.971671762E0,1.584702446E0,2.599387320E0,3.627062974E0
6.960268208E0,-1.761454858E0,1.803979465E0,3.433023686E0,4.259426810E0
6.970246208E0,-1.605613843E0,2.237693762E0,4.014535714E0,4.868445973E0
6.980224208E0,-1.806949119E0,2.556710247E0,4.051995024E0,5.120595286E0
6.990202208E0,-2.346428146E0,2.712112282E0,3.633013664E0,5.104906106E0
7.000180208E0,-2.929845051E0,2.764423812E0,3.047696560E0,5.051186530E0
7.010157208E0,-3.435557869E0,2.688214127E0,2.596745548E0,5.076676127E0
7.020135208E0,-3.438067494E0,2.304716887E0,2.850227316E0,5.025517265E0
7.030113208E0,-2.901052777E0,2.099229357E0,3.553405577E0,5.044755921E0
7.040091208E0,-2.206507053E0,2.120413819E0,4.403565590E0,5.362482451E0
7.050069208E0,-1.495515450E0,2.217648337E0,5.253040309E0,5.894825112E0
7.060047208E0,-6.784987713E-1,2.290578319E0,6.003596511E0,6.461445712E0
7.070024208E0,1.687606936E-2,2.232340636E0,6.468284680E0,6.842684869E0
7.080002208E0,7.116108227E-1,2.213999090E0,6.498207221E0,6.901802592E0
7.089980208E0,1.301989861E0,2.255832995E0,6.138146206E0,6.667893142E0
7.099958208E0,1.549820150E0,2.476065449E0,5.424028682E0,6.160594918E0
7.109936208E0,1.465090194E0,2.826859211E0,4.656063857E0,5.640616360E0
7.119914208E0,1.494021633E0,3.096120569E0,4.166679973E0,5.401785373E0
7.129891208E0,1.952641999E0,3.161458526E0,4.181396830E0,5.593899377E0
7.139869208E0,2.641294899E0,3.134778265E0,4.556308896E0,6.128884423E0
7.149847208E0,3.457409206E0,2.999286584E0,5.040067173E0,6.808206485E0
7.159825208E0,4.327044248E0,2.726233892E0,5.461498809E0,7.482221088E0
7.169803208E0,5.081970075E0,2.319995661E0,5.732285120E0,8.004242151E0
7.179781208E0,5.646615225E0,1.910323945E0,5.676819018E0,8.231638672E0
7.189758208E0,5.890879735E0,1.603635730E0,5.314195753E0,8.094120589E0
7.199736208E0,6.014695696E0,1.343321198E0,4.805509918E0,7.814985715E0
7.209714208E0,6.231171314E0,1.111384372E0,4.330874759E0,7.669364207E0
7.219692208E0,6.354006697E0,8.170080543E-1,3.839822957E0,7.468945281E0
7.229670208E0,6.479524782E0,4.505905312E-1,3.265530778E0,7.269866883E0
7.239648208E0,6.550493608E0,1.431907099E-1,2.565069426E0,7.036266855E0
7.249626208E0,6.564763738E0,-4.534047961E-2,1.882817181E0,6.829581190E0
7.259603208E0,6.546067266E0,-1.156070548E-1,1.548497948E0,6.727719341E0
7.269581208E0,6.256602609E0,-3.209589297E-1,1.642393414E0,6.476538193E0
7.279559208E0,5.930242022E0,-6.474920100E-1,1.835549167E0,6.241494779E0
7.289537208E0,5.602943541E0,-8.144352794E-1,1.706936735E0,5.913536519E0
7.299515208E0,4.848656230E0,-9.905241787E-1,1.333594939E0,5.125337145E0
7.309493208E0,4.560136776E0,-7.696754283E-1,9.598602104E-1,4.723195878E0
7.319470208E0,4.703655807E0,-8.959232461E-1,8.093827003E-1,4.856146288E0
7.329448208E0,5.019397851E0,-1.350610921E0,8.565539432E-1,5.268034672E0
7.339426208E0,5.421506193E0,-1.697430916E0,1.016505697E0,5.771246395E0
7.349404208E0,5.551718423E0,-2.044234539E0,1.284367231E0,6.053930251E0
7.359382208E0,5.410492378E0,-2.341299992E0,1.447287469E0,6.070399858E0
7.369360208E0,5.211305807E0,-2.506425362E0,1.411004473E0,5.952378511E0
7.379337208E0,5.101570526E0,-2.643407498E0,1.251773096E0,5.880523864E0
7.389315208E0,5.133149584E0,-2.852827281E0,1.080294726E0,5.971171145E0
7.399293208E0,5.226002784E0,-3.098474073E0,9.982243770E-1,6.156955301E0
7.409271208E0,5.236590922E0,-3.298117896E0,1.062553689E0,6.279210657E0
7.419249208E0,4.985823138E0,-3.442005594E0,1.221007386E0,6.180347394E0
7.429227208E0,4.456457748E0,-3.592688926E0,1.433727338E0,5.901101885E0
7.439204208E0,3.655735067E0,-3.724421432E0,1.501249230E0,5.430420162E0
7.449182208E0,2.919109856E0,-3.744220689E0,1.351089224E0,4.936175950E0
7.459160208E0,2.337202117E0,-3.674254076E0,1.173414559E0,4.509939964E0
7.469138208E0,1.996271291E0,-3.574990574E0,1.036620119E0,4.223770583E0
7.479116208E0,1.849451945E0,-3.556793454E0,1.025718570E0,4.138037065E0
7.489094208E0,1.753678207E0,-3.653785897E0,1.065807080E0,4.190642358E0
7.499072208E0,1.568696570E0,-3.850030734E0,1.048364836E0,4.287495121E0
7.509049208E0,1.263263460E0,-4.057950121E0,9.594438887E-1,4.356985923E0
7.519027208E0,8.606862435E-1,-4.060118269E0,8.144247544E-1,4.229495105E0
7.529005208E0,4.977672193E-1,-4.019605250E0,6.711363959E-1,4.105535609E0
7.538983208E0,4.984908122E-1,-4.086265848E0,6.342227773E-1,4.165129074E0
7.548961208E0,1.062781365E0,-3.695899299E0,5.088577428E-1,3.879189614E0
7.558939208E0,1.439297395E0,-3.681494683E0,3.014172426E-1,3.964319922E0
7.568916208E0,1.560822710E0,-4.189790216E0,2.735388878E-1,4.479434463E0
7.578894208E0,1.508086964E0,-4.524274925E0,1.789388323E-1,4.772358850E0
7.588872208E0,1.276139321E0,-4.708315453E0,-5.046965718E-2,4.878453972E0
7.598850208E0,9.679568499E-1,-4.699487911E0,-3.453096592E-1,4.810547355E0
7.608828208E0,6.722046822E-1,-4.548883517E0,-4.817975597E-1,4.623454258E0
7.618806208E0,5.477360990E-1,-4.538450330E0,-4.131584108E-1,4.590015915E0
7.628783208E0,6.546162575E-1,-4.682081335E0,-1.899444616E-1,4.731436037E0
7.638761208E0,7.571626791E-1,-4.919457241E0,8.428045079E-2,4.978097836E0
7.648739208E0,5.215391842E-1,-5.357482105E0,4.716165340E-1,5.403428521E0
7.658717208E0,2.083472572E-1,-5.511421167E0,6.580282541E-1,5.554473246E0
7.668695208E0,-4.767669077E-1,-5.640216032E0,5.093475933E-1,5.683201435E0
7.678673208E0,-1.196147949E0,-6.051836041E0,4.297704966E-1,6.183865463E0
7.688650208E0,-1.467893057E0,-6.108361074E0,3.869794030E-1,6.294166990E0
7.698628208E0,-1.508783221E0,-5.907729657E0,3.733355100E-1,6.108770409E0
7.708606208E0,-1.472255665E0,-5.901025239E0,4.542831941E-1,6.098853076E0
7.718584208E0,-1.373131326E0,-6.031916331E0,4.500226204E-1,6.202582093E0
7.728562208E0,-1.413152301E0,-6.190009840E0,2.093936165E-1,6.352721222E0
7.738540208E0,-1.450446135E0,-6.192789021E0,-2.041740994E-1,6.363655939E0
7.748517208E0,-1.630523420E0,-6.115107592E0,-5.385564820E-1,6.351628970E0
7.758495208E0,-1.941410229E0,-5.918756336E0,-7.797133434E-1,6.277635155E0
7.768473208E0,-2.333649641E0,-5.476506858E0,-7.196003851E-1,5.996321599E0
7.778450958E0,-2.800533292E0,-4.897703260E0,-2.974664982E-1,5.649687625E0
7.788428958E0,-3.210818381E0,-4.532023070E0,2.252406672E-1,5.558715782E0
7.798406958E0,-3.365187213E0,-4.347635218E0,5.055561491E-1,5.521050986E0
7.808384958E0,-3.308136515E0,-4.019133380E0,4.248937726E-1,5.222809115E0
7.818361958E0,-3.455617619E0,-3.389667166E0,9.638199449E-2,4.841531382E0
7.828339958E0,-4.121961345E0,-2.783809086E0,-2.982495135E-1,4.982881810E0
7.838317958E0,-4.991358113E0,-2.124271812E0,-4.941195434E-1,5.447048803E0
7.848295958E0,-5.722807953E0,-1.467759302E0,-3.431684454E-1,5.917990607E0
7.858273958E0,-6.160356270E0,-1.130586044E0,1.274676201E-1,6.264540061E0
7.868251958E0,-6.017593576E0,-9.285805303E-1,7.387125941E-1,6.133464808E0
7.878228958E0,-5.299599933E0,-7.942711562E-1,1.171518307E0,5.485351517E0
7.888206958E0,-4.535117417E0,-7.172808677E-1,1.282282113E0,4.767182527E0
7.898184958E0,-3.867186757E0,-3.577800161E-1,1.114206092E0,4.040370672E0
7.908162958E0,-3.850004714E0,-7.186228037E-3,8.616930610E-1,3.945263346E0
7.918140958E0,-4.543557873E0,1.466089922E-1,9.182397294E-1,4.637733988E0
7.928118958E0,-5.252014707E0,2.428962618E-1,1.382455150E0,5.436344298E0
7.938095958E0,-5.636398385E0,3.822652316E-1,2.232587827E0,6.074500956E0
7.948073958E0,-5.661031535E0,6.923465860E-1,3.100684905E0,6.491599858E0
7.958051958E0,-5.421313820E0,9.924689627E-1,3.625851994E0,6.597153997E0
7.968029958E0,-5.132689408E0,1.196292960E0,3.621266023E0,6.394465186E0
7.978007958E0,-5.011680111E0,1.488078961E0,3.098702991E0,6.077275439E0
7.987985958E0,-5.217362353E0,1.561207749E0,2.320701713E0,5.919788510E0
7.997962958E0,-5.415288849E0,1.302380748E0,1.793844194E0,5.851446481E0
8.007940958E0,-5.370215002E0,1.183413298E0,1.833590057E0,5.796699811E0
8.017918958E0,-4.960753201E0,1.358794100E0,2.350590340E0,5.655145328E0
8.027896958E0,-4.364469352E0,1.664679492E0,3.046028349E0,5.576561596E0
8.037874958E0,-3.848189446E0,1.929377097E0,3.422696626E0,5.499628186E0
8.047852958E0,-3.499654462E0,2.321280879E0,3.275233648E0,5.325700116E0
8.057830958E0,-3.485130563E0,2.565940077E0,2.717334430E0,5.110194705E0
8.067807958E0,-3.809741079E0,2.517762528E0,2.238469103E0,5.085666049E0
8.077785958E0,-4.199501272E0,2.190102105E0,2.277000500E0,5.255196422E0
8.087763958E0,-4.477753308E0,1.738855516E0,2.724566267E0,5.522422886E0
8.097741958E0,-4.370948067E0,1.563775261E0,3.247997902E0,5.665692406E0
8.107719958E0,-3.896969258E0,1.628454822E0,3.569235159E0,5.529708322E0
8.117697958E0,-3.368932940E0,1.714902982E0,3.715307085E0,5.300387544E0
8.127674958E0,-2.926498105E0,1.836916246E0,3.720910764E0,5.077777995E0
8.137652958E0,-2.378110114E0,1.971467695E0,3.506164752E0,4.672823970E0
8.147630958E0,-1.838571154E0,2.079361687E0,3.164601989E0,4.209369865E0
8.157608958E0,-1.665653200E0,1.930537185E0,2.712833244E0,3.723014721E0
8.167586958E0,-1.899306475E0,1.833949369E0,2.165405805E0,3.414632875E0
8.177564958E0,-2.096019528E0,1.989725626E0,1.810952562E0,3.410550558E0
8.187541958E0,-2.158306554E0,2.158493811E0,1.819186903E0,3.553424222E0
8.197519958E0,-2.129419993E0,2.371889116E0,2.033821233E0,3.781099878E0
8.207497958E0,-1.907229014E0,2.669385508E0,2.360649013E0,4.041757695E0
8.217475958E0,-1.461035589E0,2.853845866E0,2.758866034E0,4.229704837E0
8.227453958E0,-7.109048445E-1,3.063846862E0,3.253492531E0,4.525235567E0
8.237431958E0,3.256962341E-1,3.350109583E0,3.915283322E0,5.163211766E0
8.247408958E0,1.418874971E0,3.389154366E0,4.883008622E0,6.110920283E0
8.257386958E0,2.396661576E0,3.260475276E0,5.987457612E0,7.226640601E0
8.267364958E0,3.359126282E0,3.304546909E0,6.841682024E0,8.307368571E0
8.277342958E0,4.261549878E0,3.412307585E0,7.075280043E0,8.936679367E0
8.287320958E0,4.907858119E0,3.568094367E0,6.572191456E0,8.944946577E0
8.297298958E0,5.051700794E0,3.683299718E0,5.661368920E0,8.434303514E0
8.307275958E0,4.811143418E0,3.745139871E0,4.765246868E0,7.738265397E0
8.317253958E0,4.509690507E0,3.711988497E0,4.126014927E0,7.151235296E0
8.327231958E0,4.550509043E0,3.479038349E0,3.968595310E0,6.968542826E0
8.337209958E0,5.088148243E0,3.122451165E0,4.198350247E0,7.298294227E0
8.347187958E0,5.665287139E0,2.722921445E0,4.637905621E0,7.811526618E0
8.357165958E0,6.042962306E0,2.512583064E0,5.001469703E0,8.236817728E0
8.367142958E0,6.041078918E0,2.217913216E0,5.114526202E0,8.220228209E0
8.377120958E0,5.792672240E0,1.890863827E0,4.892734296E0,7.814682756E0
8.387098958E0,5.624558358E0,1.619533140E0,4.355549424E0,7.295845058E0
8.397076958E0,5.532067686E0,1.257389932E0,3.653692342E0,6.747908569E0
8.407054958E0,5.510556364E0,7.616740984E-1,2.934640937E0,6.289554540E0
8.417032958E0,5.594451045E0,3.446606183E-1,2.184325055E0,6.015642059E0
8.427010958E0,5.676474032E0,9.710003257E-2,1.505277961E0,5.873469809E0
8.436987958E0,5.720263245E0,-1.640278476E-1,1.127539937E0,5.832637743E0
8.446965958E0,5.622282622E0,-4.476335943E-1,1.178085023E0,5.761798507E0
8.456943958E0,5.339510688E0,-6.904900950E-1,1.417357180E0,5.567409841E0
8.466921958E0,4.912145298E0,-8.681934106E-1,1.972432778E0,5.364086342E0
8.476899958E0,4.408944443E0,-1.065753871E0,2.794601000E0,5.327702804E0
8.486877958E0,4.018079127E0,-1.401632556E0,3.533931133E0,5.531564240E0
8.496854958E0,3.974984563E0,-1.703866362E0,3.953352204E0,5.859407522E0
8.506832958E0,4.267636245E0,-1.951653235E0,4.039922571E0,6.192143719E0
8.516810958E0,4.630712961E0,-2.343046555E0,3.946466815E0,6.519813648E0
8.526788958E0,4.789131282E0,-2.867850532E0,3.699432186E0,6.696726336E0
8.536766958E0,4.758073504E0,-3.265924296E0,3.240205610E0,6.618493588E0
8.546744958E0,4.549228795E0,-3.502812544E0,2.815661793E0,6.394773622E0
8.556721958E0,4.301516766E0,-3.686581176E0,2.560693955E0,6.216999339E0
8.566699958E0,4.079312339E0,-3.983156047E0,2.441324217E0,6.202127472E0
8.576677958E0,3.973560766E0,-4.375691328E0,2.398445415E0,6.378745971E0
8.586655958E0,3.918981686E0,-4.763852892E0,2.373449153E0,6.609536497E0
8.596633958E0,3.838513473E0,-4.995448825E0,2.251086225E0,6.689998792E0
8.606611958E0,3.677924373E0,-5.138375241E0,1.866090344E0,6.588802697E0
8.616588958E0,3.356523686E0,-5.293957955E0,1.349300560E0,6.411930605E0
8.626566958E0,2.912381465E0,-5.515991936E0,7.760016040E-1,6.285722816E0
8.636544958E0,2.510192138E0,-5.613729900E0,3.302899164E-1,6.158256197E0
8.646522958E0,2.145424992E0,-5.648688063E0,4.300625285E-2,6.042547043E0
8.656500958E0,1.888604755E0,-5.684028050E0,-5.505095978E-2,5.989827493E0
8.666478958E0,1.710182232E0,-5.694567656E0,-2.189782405E-3,5.945824489E0
8.676455958E0,1.548736515E0,-5.704312041E0,1.764689684E-3,5.910817521E0
8.686433958E0,1.312242369E0,-5.728917124E0,-1.164051998E-1,5.878437005E0
8.696411958E0,1.000359488E0,-5.691797830E0,-3.362897444E-1,5.788814424E0
8.706389958E0,6.544570671E-1,-5.562946247E0,-5.725102401E-1,5.630493138E0
8.716367958E0,3.263723550E-1,-5.531837305E0,-6.915712452E-1,5.584443900E0
8.726345958E0,1.233155854E-2,-5.637205886E0,-7.338431060E-1,5.684783898E0
8.736323958E0,-2.398888195E-1,-5.733505434E0,-7.990769096E-1,5.793889464E0
8.746300958E0,-3.523675774E-1,-5.696437011E0,-8.883137528E-1,5.776041798E0
8.756278958E0,-6.298854589E-1,-5.627665569E0,-8.753246748E-1,5.730058353E0
8.766256958E0,-1.109154902E0,-5.472320836E0,-8.737401525E-1,5.651543310E0
8.776235083E0,-1.644399009E0,-5.327920337E0,-8.550243115E-1,5.641085870E0
8.786213083E0,-2.237691277E0,-5.270983075E0,-7.104437184E-1,5.770204078E0
8.796191083E0,-2.705041244E0,-5.068260108E0,-5.073289883E-1,5.767312317E0
8.806168083E0,-2.673224497E0,-4.817036242E0,-2.628019381E-1,5.515345159E0
8.816146083E0,-2.202102345E0,-4.759682073E0,-1.265255606E-1,5.245935273E0
8.826124083E0,-1.678798471E0,-4.789618648E0,-1.189336089E-1,5.076707230E0
8.836102083E0,-1.586163080E0,-4.881414086E0,-3.834943163E-1,5.146958781E0
8.846080083E0,-2.003678252E0,-4.861843455E0,-8.557505357E-1,5.327715955E0
8.856058083E0,-2.630214425E0,-4.710499388E0,-1.218049938E0,5.530865941E0
8.866035083E0,-3.191339552E0,-4.666009094E0,-1.338113083E0,5.809202666E0
8.876013083E0,-3.348092586E0,-4.703314914E0,-1.323338338E0,5.923016082E0
8.885991083E0,-3.198564664E0,-4.693224374E0,-1.210351421E0,5.807075124E0
8.895969083E0,-3.021424727E0,-4.484449539E0,-1.067700409E0,5.511740126E0
8.905947083E0,-3.202476743E0,-3.944644530E0,-9.661366117E-1,5.171991659E0
8.915925083E0,-3.756984284E0,-3.486889406E0,-8.255987835E-1,5.191814903E0
8.925902083E0,-4.634285317E0,-3.221581936E0,-5.155426087E-1,5.667536921E0
8.935880083E0,-5.377547411E0,-2.944259607E0,-3.123576754E-1,6.138749719E0
8.945858083E0,-5.498753175E0,-2.571170411E0,-2.739443922E-1,6.076368100E0
8.955836083E0,-4.984892846E0,-2.275497766E0,-2.484973097E-1,5.485325668E0
8.965814083E0,-4.257994771E0,-2.232416650E0,-1.607803772E-1,4.810410990E0
8.975792083E0,-3.653274851E0,-1.877834476E0,3.236433864E-3,4.107637999E0
8.985769083E0,-3.763834004E0,-1.165327860E0,2.395889305E-1,3.947383727E0
8.995747083E0,-4.569784389E0,-7.715114540E-1,5.913129853E-1,4.672024222E0
9.005725083E0,-5.582461914E0,-7.933829641E-1,9.167567293E-1,5.712598397E0
9.015703083E0,-6.129831465E0,-8.499992144E-1,1.154867191E0,6.295319745E0
9.025681083E0,-5.909024230E0,-8.277452964E-1,1.528429135E0,6.159368900E0
9.035659083E0,-5.080693628E0,-7.611221212E-1,1.966179180E0,5.500783143E0
9.045637083E0,-4.094194380E0,-6.516300845E-1,2.287465262E0,4.734928374E0
9.055614083E0,-3.346929575E0,-1.245585573E-1,2.361774456E0,4.098222907E0
9.065592083E0,-3.184602098E0,5.970463264E-1,2.313964551E0,3.981530708E0
9.075570083E0,-3.605427962E0,9.418110251E-1,2.499962434E0,4.487307764E0
9.085548083E0,-4.317497499E0,7.911779791E-1,2.896368280E0,5.258868363E0
9.095526083E0,-4.584084340E0,6.502787930E-1,3.136241531E0,5.592200165E0
9.105504083E0,-4.363945441E0,6.603512067E-1,3.100027970E0,5.393538444E0
9.115481083E0,-3.812541896E0,6.031788862E-1,2.968133789E0,4.869201029E0
9.125459083E0,-3.153989000E0,4.870859277E-1,2.968409777E0,4.358480919E0
9.135437083E0,-2.807019609E0,7.256991041E-1,3.082674896E0,4.231888797E0
9.145415083E0,-2.705846990E0,1.311502404E0,3.109662720E0,4.325696328E0
9.155393083E0,-2.929338390E0,1.692740865E0,3.045921053E0,4.552365330E0
9.165371083E0,-3.237351292E0,1.826749107E0,2.990414019E0,4.770747498E0
9.175348083E0,-3.552784603E0,1.822563086E0,3.034817190E0,5.015389318E0
9.185326083E0,-3.671553539E0,1.957076527E0,3.085009397E0,5.179549875E0
9.195304083E0,-3.572666598E0,2.039965487E0,3.069096784E0,5.132714767E0
9.205282083E0,-3.310512239E0,2.095740323E0,3.058987241E0,4.970817008E0
9.215260083E0,-3.160064842E0,2.366447697E0,3.021251065E0,4.971322008E0
9.225238083E0,-3.209857391E0,2.743814131E0,2.950678096E0,5.151524210E0
9.235215083E0,-3.303552298E0,2.875872327E0,2.836135819E0,5.218023171E0
9.245193083E0,-3.145343307E0,2.866953569E0,2.749721573E0,5.066909908E0
9.255171083E0,-2.811389818E0,2.872173963E0,2.813970194E0,4.906294348E0
9.265149083E0,-2.509122097E0,2.789786110E0,3.110531031E0,4.873807909E0
9.275127083E0,-2.246797438E0,2.618253361E0,3.456420735E0,4.883666009E0
9.285105083E0,-1.973365408E0,2.508427448E0,3.846017497E0,4.997822515E0
9.295082083E0,-1.656921845E0,2.435547752E0,4.017225434E0,4.981504094E0
9.305060083E0,-1.343343125E0,2.391931617E0,3.864396758E0,4.739142318E0
9.315038083E0,-9.255433403E-1,2.370582263E0,3.503001993E0,4.329816821E0
9.325016083E0,-2.829349979E-1,2.376825920E0,3.126590994E0,3.937629351E0
9.334994083E0,4.395568353E-1,2.363708276E0,2.872209339E0,3.745652615E0
9.344972083E0,1.000070270E0,2.260304360E0,2.700859023E0,3.661114012E0
9.354949083E0,1.603669352E0,2.227746479E0,2.540435691E0,3.740110061E0
9.364927083E0,2.142728987E0,2.361848277E0,2.365199316E0,3.970363031E0
9.374905083E0,2.585894285E0,2.550200542E0,2.157994751E0,4.224608077E0
9.384883083E0,2.725703842E0,2.692122990E0,1.901021902E0,4.276782892E0
9.394861083E0,2.737378978E0,2.744412301E0,1.656154252E0,4.215197439E0
9.404839083E0,2.638625060E0,2.795246240E0,1.464080234E0,4.113304594E0
9.414816083E0,2.533970425E0,3.012434633E0,1.466522616E0,4.200768634E0
9.424794083E0,2.362369264E0,3.197805988E0,1.966373600E0,4.435468048E0
9.434772083E0,2.267580636E0,3.301150262E0,2.921204621E0,4.957111198E0
9.444750083E0,2.389773702E0,3.379931552E0,4.000449772E0,5.756609594E0
9.454728083E0,2.960597020E0,3.483994449E0,4.937377787E0,6.729119664E0
9.464706083E0,3.844543707E0,3.543120325E0,5.635161114E0,7.686953801E0
9.474684083E0,4.699682039E0,3.618954619E0,5.950682718E0,8.402051453E0
9.484661083E0,5.276780589E0,3.701213833E0,5.784863284E0,8.660718240E0
9.494639083E0,5.510979702E0,3.640320345E0,5.180759953E0,8.394230351E0
9.504617083E0,5.444786882E0,3.472474850E0,4.453902515E0,7.844809328E0
9.514595083E0,5.177695427E0,3.300594192E0,3.892712777E0,7.270190143E0
9.524573083E0,4.837553829E0,3.140874572E0,3.574296509E0,6.785470924E0
9.534550083E0,4.667884880E0,2.958391743E0,3.499820816E0,6.541404796E0
9.544528083E0,4.762339633E0,2.605546777E0,3.653831798E0,6.543641157E0
9.554506083E0,4.946466699E0,2.194160657E0,3.821834583E0,6.624824026E0
9.564484083E0,5.138639535E0,1.728818185E0,3.858677596E0,6.654609033E0
9.574462083E0,5.383848370E0,1.194823555E0,3.666486050E0,6.622427542E0
9.584440083E0,5.481091075E0,6.053844559E-1,3.198790951E0,6.375038295E0
9.594418083E0,5.602216732E0,-6.945381224E-2,2.575605524E0,6.166311698E0
9.604395083E0,5.908748242E0,-6.241639584E-1,1.987414075E0,6.265197613E0
9.614373083E0,6.211345160E0,-9.990231067E-1,1.468952427E0,6.460392952E0
9.624351083E0,6.607878767E0,-1.338608342E0,1.176543989E0,6.843989323E0
9.634329083E0,7.008124772E0,-1.752394744E0,1.281722681E0,7.336723600E0
9.644307083E0,7.069530476E0,-2.228866805E0,1.845095185E0,7.638748892E0
9.654285083E0,6.747739488E0,-2.629202857E0,2.751247112E0,7.746873984E0
9.664262083E0,6.313222952E0,-2.978017922E0,3.451526030E0,7.787066632E0
9.674240083E0,6.053396662E0,-3.394894577E0,3.717653280E0,7.873364354E0
9.684218083E0,5.823105828E0,-3.753494958E0,3.589414485E0,7.802639440E0
9.694196083E0,5.553721095E0,-4.116491860E0,3.205292763E0,7.619922895E0
9.704174083E0,5.234001775E0,-4.500260995E0,2.673162224E0,7.402223982E0
9.714152083E0,4.894218611E0,-4.776275302E0,1.994536715E0,7.123507442E0
9.724129083E0,4.430821508E0,-5.023994347E0,1.307409353E0,6.825102025E0
9.734107083E0,4.000796512E0,-5.231657041E0,7.383583260E-1,6.627350990E0
9.744085083E0,3.632223705E0,-5.423578447E0,4.368536675E-1,6.542101599E0
9.754063083E0,3.218019227E0,-5.639647098E0,4.849973023E-1,6.511258674E0
9.764041083E0,2.871484576E0,-5.739953159E0,7.366030649E-1,6.460268572E0
9.774018833E0,2.544736903E0,-5.846743197E0,1.080095410E0,6.467356339E0
9.783995833E0,2.174403500E0,-5.933265617E0,1.399200114E0,6.472204603E0
9.793973833E0,1.781933708E0,-6.000061285E0,1.427302856E0,6.419752067E0
9.803951833E0,1.474627149E0,-6.029176326E0,1.240320886E0,6.329604119E0
9.813929833E0,1.136502476E0,-6.094824185E0,1.008049307E0,6.281296294E0
9.823907833E0,8.416376229E-1,-6.205869827E0,7.500865249E-1,6.307440368E0
9.833885833E0,5.238122161E-1,-6.315856538E0,5.785771649E-1,6.363896180E0
9.843862833E0,2.646025881E-1,-6.512551610E0,4.995428360E-1,6.537039548E0
9.853840833E0,5.925944757E-2,-6.787787068E0,5.034569621E-1,6.806690376E0
9.863818833E0,3.462662637E-2,-6.832593112E0,5.711979787E-1,6.856514768E0
9.873796833E0,1.212646014E-1,-6.703432211E0,6.587799136E-1,6.736816718E0
9.883774833E0,1.937457548E-1,-6.626568223E0,7.065940578E-1,6.666949752E0
9.893752833E0,1.512791999E-1,-6.506293336E0,6.036079256E-1,6.535983544E0
9.903730833E0,-2.184329002E-1,-6.387245194E0,3.894690013E-1,6.402835326E0
9.913707833E0,-8.736815342E-1,-6.274919597E0,2.015513308E-1,6.338655876E0
9.923685833E0,-1.560208313E0,-6.047145404E0,1.588021910E-1,6.247194223E0
9.933663833E0,-2.071438272E0,-5.802322485E0,2.508502293E-1,6.166095083E0
9.943641833E0,-2.390091790E0,-5.622234090E0,4.263240016E-1,6.124035196E0
9.953619833E0,-2.731895751E0,-5.483546906E0,6.209007736E-1,6.157764110E0
9.963597833E0,-2.993461296E0,-5.292613095E0,6.575758258E-1,6.115960257E0
9.973574833E0,-3.284952013E0,-5.098665630E0,4.499224868E-1,6.081918379E0
9.983552833E0,-3.649050822E0,-4.935268697E0,4.231293753E-2,6.137934457E0
9.993530833E0,-3.916695132E0,-4.753082321E0,-3.697204690E-1,6.170006931E0
1.000350883E1,-4.135687684E0,-4.683646635E0,-5.112944238E-1,6.269121183E0
1.001348683E1,-4.341897930E0,-4.741979043E0,-4.612774142E-1,6.446023560E0
1.002346483E1,-4.392842381E0,-4.778430001E0,-2.967660749E-1,6.497578592E0
1.003344183E1,-4.233448159E0,-4.735920158E0,-1.787365186E-1,6.354759618E0
1.004341983E1,-3.724134041E0,-4.534478901E0,-8.999683499E-2,5.868455733E0
1.005339783E1,-3.391946411E0,-4.244774508E0,-9.655276973E-2,5.434402775E0
1.006337583E1,-3.660150007E0,-3.821531405E0,-2.609869623E-1,5.298010433E0
1.007335383E1,-4.354107501E0,-3.355433473E0,-5.721769488E-1,5.526714429E0
1.008333183E1,-4.876836301E0,-2.989707676E0,-7.898009598E-1,5.774570967E0
1.009330883E1,-4.969384861E0,-2.783665245E0,-9.477494574E-1,5.774236497E0
1.010328683E1,-4.711748938E0,-2.604328217E0,-1.078085064E0,5.490480026E0
1.011326483E1,-4.349287056E0,-2.216054386E0,-1.262051332E0,5.041821943E0
1.012324283E1,-4.030596554E0,-1.399187250E0,-1.358303518E0,4.477546425E0
1.013322083E1,-4.111377300E0,-6.878910077E-1,-1.098221778E0,4.310766569E0
1.014319883E1,-4.533348342E0,-3.867137933E-1,-3.555484262E-1,4.563683757E0
1.015317583E1,-5.019508363E0,-1.950116587E-1,8.387825006E-1,5.092843001E0
1.016315383E1,-5.178650862E0,-4.032473803E-2,2.255587265E0,5.648692304E0
1.017313183E1,-4.930790899E0,1.473048109E-1,3.530431282E0,6.066163749E0
1.018310983E1,-4.477860897E0,4.433814991E-1,4.242288857E0,6.184241272E0
1.019308783E1,-3.926051554E0,8.337574035E-1,4.350113853E0,5.918827818E0
1.020306583E1,-3.414530989E0,1.221114975E0,4.044901182E0,5.432436768E0
1.021304283E1,-3.072442853E0,1.505127103E0,3.507416641E0,4.899722868E0
1.022302083E1,-2.974540875E0,1.460132779E0,2.968868199E0,4.449051532E0
1.023299883E1,-3.203419315E0,1.406616722E0,2.738839320E0,4.443164045E0
1.024297683E1,-3.624502164E0,1.543741531E0,2.816094780E0,4.842576139E0
1.025295483E1,-4.060972839E0,1.707970523E0,2.981327446E0,5.319490300E0
1.026293283E1,-4.331830779E0,1.913483781E0,3.154706161E0,5.690197627E0
1.027291083E1,-4.480794152E0,2.171793303E0,3.089360602E0,5.859893456E0
1.028288783E1,-4.472346680E0,2.263844265E0,2.749364893E0,5.717156898E0
1.029286583E1,-4.371745627E0,2.028466938E0,2.423712988E0,5.394554902E0
1.030284383E1,-4.236822588E0,1.827349032E0,2.227140123E0,5.123477652E0
1.031282183E1,-4.134205999E0,1.733727508E0,2.245502719E0,5.013955801E0
1.032279983E1,-4.057063391E0,1.815388552E0,2.403261474E0,5.052827393E0
1.033277783E1,-3.928565272E0,2.064094023E0,2.634184685E0,5.160720704E0
1.034275483E1,-3.776189463E0,2.333948872E0,2.757667354E0,5.226055246E0
1.035273283E1,-3.632860467E0,2.586016492E0,2.662621449E0,5.193718268E0
1.036271083E1,-3.471223838E0,2.759036188E0,2.453219208E0,5.067539847E0
1.037268883E1,-3.319436844E0,2.698590011E0,2.394581575E0,4.902557488E0
1.038266683E1,-3.067986983E0,2.453948940E0,2.520693445E0,4.667794444E0
1.039264483E1,-2.771399248E0,2.173484902E0,2.901118850E0,4.563023230E0
1.040262183E1,-2.384009955E0,2.048291922E0,3.426012290E0,4.649361620E0
1.041259983E1,-2.075481183E0,2.046744164E0,3.825152001E0,4.809217363E0
1.042257783E1,-1.847508331E0,2.157098081E0,3.849345440E0,4.783703532E0
1.043255583E1,-1.667176253E0,2.454339534E0,3.651828250E0,4.705221437E0
1.044253383E1,-1.612761187E0,2.709272874E0,3.476315886E0,4.693179124E0
1.045251183E1,-1.609223037E0,2.834721962E0,3.385952138E0,4.699991411E0
1.046248883E1,-1.567214886E0,2.850280234E0,3.260456272E0,4.605522230E0
1.047246683E1,-1.443423775E0,2.888777717E0,3.083371592E0,4.464940007E0
1.048244483E1,-1.207730333E0,3.020527180E0,2.888810461E0,4.350565812E0
1.049242283E1,-8.896829514E-1,3.290714736E0,2.795335118E0,4.408428025E0
1.050240083E1,-5.362038548E-1,3.655252964E0,2.827258284E0,4.652072464E0
1.051237883E1,-1.641807889E-1,4.032247515E0,2.888707550E0,4.962923198E0
1.052235583E1,1.453294387E-1,4.484241963E0,2.725658526E0,5.249643896E0
1.053233383E1,3.963876827E-1,4.957859999E0,2.298102517E0,5.478939144E0
1.054231183E1,5.512946048E-1,5.247312376E0,1.900317020E0,5.607978040E0
1.055228983E1,3.673979184E-1,5.299407560E0,1.870443011E0,5.631807771E0
1.056226783E1,-1.977948602E-1,5.155734454E0,2.510082795E0,5.737703043E0
1.057224583E1,-7.357053711E-1,4.944326034E0,3.450510661E0,6.074014006E0
1.058222283E1,-7.134969152E-1,4.643283305E0,4.429767255E0,6.456933919E0
1.059220083E1,-7.086653609E-2,4.207411385E0,5.638579397E0,7.035688328E0
1.060217883E1,1.250225923E0,3.766488640E0,6.947535923E0,8.001109732E0
1.061215683E1,3.214157726E0,3.503170978E0,7.776410902E0,9.114580808E0
1.062213483E1,5.533833545E0,3.243500224E0,7.790762308E0,1.009156007E1
1.063211283E1,7.242470065E0,3.025264009E0,7.003371570E0,1.051916386E1
1.064208983E1,7.785483441E0,2.730995865E0,5.857127852E0,1.011820327E1
1.065206783E1,7.779913384E0,2.717512770E0,4.769933119E0,9.521774513E0
1.066204583E1,7.411695503E0,2.067324024E0,3.982382460E0,8.664088464E0
1.067202383E1,7.166376740E0,1.273362186E0,3.595508161E0,8.118256326E0
1.068200183E1,6.982321594E0,6.134670621E-1,3.808481881E0,7.977072829E0
1.069197983E1,6.772698913E0,9.137619317E-2,4.463568547E0,8.111796616E0
1.070195683E1,6.661831611E0,-3.442144758E-1,5.099034004E0,8.396346336E0
1.071193483E1,6.525637679E0,-8.283791345E-1,5.289054480E0,8.440631280E0
1.072191283E1,6.361638483E0,-1.412460430E0,4.856430688E0,8.127140191E0
1.073189083E1,6.076159873E0,-1.921766946E0,4.149995821E0,7.604957088E0
1.074186883E1,5.753045660E0,-2.550556052E0,3.800818228E0,7.351808603E0
1.075184683E1,5.478869133E0,-3.156595981E0,3.806791744E0,7.380634698E0
1.076182383E1,5.283773859E0,-3.442982079E0,3.787804080E0,7.356619573E0
1.077180183E1,5.116824158E0,-3.527200695E0,3.654055454E0,7.209379687E0
1.078177996E1,5.050922529E0,-3.627932433E0,3.456419565E0,7.114811898E0
1.079175796E1,5.008689845E0,-3.797772413E0,3.163041367E0,7.036681032E0
1.080173596E1,4.924719150E0,-4.043761268E0,2.714058235E0,6.926108287E0
1.081171396E1,4.857853315E0,-4.193965713E0,2.198166000E0,6.783805790E0
1.082169196E1,4.704251053E0,-4.338534611E0,1.802768506E0,6.648521252E0
1.083166896E1,4.335463946E0,-4.576851334E0,1.471721960E0,6.473776432E0
1.084164696E1,3.928154213E0,-4.785421516E0,1.085839641E0,6.285674374E0
1.085162496E1,3.769057322E0,-4.758547128E0,6.629900551E-1,6.106481776E0
1.086160296E1,3.832154626E0,-4.733428659E0,3.469807935E-1,6.100094395E0
1.087158096E1,3.904835517E0,-4.805487406E0,1.662959826E-1,6.194199220E0
1.088155896E1,3.840133737E0,-4.853598297E0,1.416031909E-1,6.190645766E0
1.089153596E1,3.312079293E0,-4.921400855E0,2.248710867E-1,5.936381273E0
1.090151396E1,2.390213266E0,-4.979115213E0,2.083702441E-1,5.527035907E0
1.091149196E1,1.411777621E0,-5.030808107E0,8.913729429E-2,5.225905828E0
1.092146996E1,4.459250379E-1,-5.005146432E0,-7.813393079E-2,5.025579057E0
1.093144796E1,-2.600483380E-1,-4.872083099E0,-1.875808708E-1,4.882622804E0
1.094142596E1,-6.701441234E-1,-4.818456531E0,-1.671625400E-1,4.867705804E0
1.095140296E1,-7.504584809E-1,-4.803437372E0,-1.436311515E-1,4.863828577E0
1.096138096E1,-5.964111361E-1,-4.796736463E0,-1.460341378E-1,4.835877677E0
1.097135896E1,-5.176694603E-1,-4.860051284E0,-2.900216771E-1,4.896140595E0
1.098133696E1,-5.810467364E-1,-4.917192614E0,-6.303123057E-1,4.991361750E0
1.099131496E1,-7.961404379E-1,-4.797788377E0,-1.026634244E0,4.970572480E0
1.100129296E1,-9.413088955E-1,-4.633656449E0,-1.141109862E0,4.864048339E0
1.101126996E1,-8.551707112E-1,-4.633296846E0,-9.385718139E-1,4.804130895E0
1.102124796E1,-5.990013064E-1,-4.767826660E0,-5.286960299E-1,4.834303788E0
1.103122596E1,-2.886806913E-1,-4.935205547E0,-2.623984802E-1,4.950600296E0
1.104120396E1,4.624489769E-3,-5.001703007E0,-2.489405286E-1,5.007896339E0
1.105118196E1,2.050414973E-1,-4.771602792E0,-4.099963827E-1,4.793571972E0
1.106115996E1,2.017935335E-1,-4.522963979E0,-5.500535698E-1,4.560754621E0
1.107113696E1,-1.668581741E-1,-4.532883781E0,-5.593936928E-1,4.570317092E0
1.108111496E1,-6.850032140E-1,-4.638853455E0,-4.049511858E-1,4.706609846E0
1.109109296E1,-1.063529444E0,-4.595964713E0,-1.645078310E-1,4.720280642E0
1.110107096E1,-1.228068776E0,-4.568646521E0,1.715245628E-1,4.733931202E0
1.111104896E1,-1.193196932E0,-4.535708570E0,4.678240299E-1,4.713303563E0
1.112102696E1,-7.150764674E-1,-4.236190211E0,4.972764552E-1,4.324803548E0
1.113100396E1,-1.909549335E-1,-3.882955821E0,2.264860511E-1,3.894240057E0
1.114098196E1,-8.896160373E-2,-3.730667428E0,-1.432766275E-1,3.734477449E0
1.115095996E1,-3.851403075E-1,-3.690967757E0,-3.516304628E-1,3.727629276E0
1.116093796E1,-9.489533991E-1,-3.755046809E0,-2.353328153E-1,3.880241052E0
1.117091596E1,-1.463201836E0,-3.992304016E0,6.755288243E-2,4.252530348E0
1.118089396E1,-1.812870449E0,-3.978744323E0,3.937094021E-1,4.389978672E0
1.119087096E1,-2.088556872E0,-3.500788822E0,6.712527555E-1,4.131364478E0
1.120084896E1,-2.469171289E0,-3.063479072E0,8.763771737E-1,4.031097596E0
1.121082696E1,-2.611472053E0,-2.552276303E0,8.075104219E-1,3.739782573E0
1.122080496E1,-2.580994318E0,-2.063112275E0,5.307359042E-1,3.346586997E0
1.123078296E1,-2.883086329E0,-1.953648305E0,2.205598615E-1,3.489638253E0
1.124076096E1,-3.523757855E0,-2.072355554E0,-3.765080631E-2,4.088146835E0
1.125073896E1,-4.483989363E0,-2.136302458E0,-2.425570502E-1,4.972804312E0
1.126071596E1,-5.409919935E0,-2.055903243E0,-2.708845443E-1,5.793733709E0
1.127069396E1,-5.951120675E0,-1.530361932E0,-3.384309947E-2,6.144834439E0
1.128067196E1,-5.756127142E0,-5.505983841E-1,4.091402042E-1,5.796857249E0
1.129064996E1,-4.944131321E0,8.468756318E-2,8.097060513E-1,5.010711566E0
1.130062796E1,-4.203901886E0,5.066103655E-1,9.901306611E-1,4.348540429E0
1.131060596E1,-4.234636314E0,6.908836126E-1,6.643502636E-1,4.341753810E0
1.132058296E1,-4.925483381E0,3.691487575E-1,2.933827297E-1,4.948002705E0
1.133056096E1,-5.542282187E0,-5.190573335E-2,5.462752452E-1,5.569380817E0
1.134053896E1,-5.727688040E0,-3.236416322E-1,1.582109206E0,5.950985105E0
1.135051696E1,-5.422504898E0,-2.841986543E-1,2.649809614E0,6.042004571E0
1.136049496E1,-4.788156844E0,1.957057232E-1,3.238137742E0,5.783621939E0
1.137047296E1,-4.002227033E0,8.294520986E-1,3.163693331E0,5.168633040E0
1.138044996E1,-3.398110546E0,1.281773406E0,2.618326451E0,4.477246001E0
1.139042796E1,-3.044707755E0,1.464156833E0,1.993525146E0,3.922772369E0
1.140040596E1,-2.900430340E0,1.356628876E0,1.519273857E0,3.544168608E0
1.141038396E1,-2.979164269E0,1.046087930E0,1.391456939E0,3.450488677E0
1.142036196E1,-3.084914964E0,7.973690110E-1,1.575746850E0,3.554641447E0
1.143033996E1,-3.049832255E0,9.391774392E-1,2.015961497E0,3.774603530E0
1.144031696E1,-2.896434061E0,1.340799878E0,2.562659204E0,4.093201287E0
1.145029496E1,-2.845769691E0,1.572648411E0,2.738911825E0,4.251266417E0
1.146027296E1,-2.963156931E0,1.961537368E0,2.529925906E0,4.362161498E0
1.147025096E1,-3.164367515E0,2.400635782E0,2.312549817E0,4.596102761E0
1.148022896E1,-3.306891643E0,2.558327002E0,2.243831584E0,4.745034201E0
1.149020696E1,-3.407826572E0,2.530188446E0,2.249379130E0,4.803628003E0
1.150018396E1,-3.480967053E0,2.371368713E0,2.356914396E0,4.826548112E0
1.151016196E1,-3.376402758E0,2.252975460E0,2.588295152E0,4.814069567E0
1.152013996E1,-3.090224821E0,2.190426625E0,2.716380165E0,4.661134995E0
1.153011796E1,-2.807293843E0,2.292717816E0,2.588903262E0,4.454197324E0
1.154009596E1,-2.555866786E0,2.551183459E0,2.350417555E0,4.308764875E0
1.155007396E1,-2.395714327E0,2.809677168E0,2.048174686E0,4.222410741E0
1.156005096E1,-2.249692833E0,2.953012889E0,1.919766321E0,4.179342735E0
1.157002896E1,-2.101618529E0,2.980635136E0,2.086650826E0,4.201796988E0
1.158000696E1,-2.021601283E0,2.818368469E0,2.368971355E0,4.200249738E0
1.158998496E1,-2.007116414E0,2.503635655E0,2.705414004E0,4.197138636E0
1.159996296E1,-1.899515221E0,2.188384193E0,3.101719278E0,4.244743329E0
1.160994096E1,-1.656251462E0,2.087611524E0,3.287867727E0,4.232182057E0
1.161991796E1,-1.232368526E0,2.379044938E0,3.023527971E0,4.039840145E0
1.162989596E1,-8.135266951E-1,2.763649056E0,2.391357420E0,3.744084948E0
1.163987396E1,-6.916601960E-1,3.064538003E0,1.718592575E0,3.580970180E0
1.164985196E1,-7.926007529E-1,3.411261519E0,1.429652998E0,3.782701257E0
1.165982996E1,-9.983571088E-1,3.526466285E0,1.790868838E0,4.079202443E0
1.166980796E1,-1.121386765E0,3.421548525E0,2.510039233E0,4.389168434E0
1.167978496E1,-1.116002649E0,3.514501712E0,3.211849538E0,4.890108552E0
1.168976296E1,-8.841323358E-1,3.620794153E0,3.749964701E0,5.287161388E0
1.169974096E1,-5.814873241E-1,3.557024419E0,3.992269225E0,5.378546624E0
1.170971896E1,-3.498814510E-1,3.550207735E0,3.928994458E0,5.306919016E0
1.171969696E1,-1.243691806E-1,3.683859882E0,3.724894472E0,5.240336835E0
1.172967496E1,2.141159740E-1,3.621980553E0,3.728308076E0,5.202390786E0
1.173965196E1,7.738783338E-1,3.412366642E0,3.940383372E0,5.269701595E0
1.174962996E1,1.738477201E0,3.325637816E0,4.204950877E0,5.635936634E0
1.175960796E1,3.076184194E0,3.116422101E0,4.556590147E0,6.319613096E0
1.176958596E1,4.252344314E0,2.742561657E0,5.196357400E0,7.253013639E0
1.177956396E1,5.255243540E0,2.442201884E0,5.995551327E0,8.338379364E0
1.178954196E1,6.254896392E0,2.211877720E0,6.455796781E0,9.257075348E0
1.179951896E1,6.919045365E0,1.947939084E0,6.504209973E0,9.693936394E0
1.180949696E1,7.250817550E0,1.685350569E0,6.277807537E0,9.737845201E0
1.181947496E1,7.513092654E0,1.524881921E0,5.875365318E0,9.658765124E0
1.182945296E1,7.989865848E0,1.330574268E0,5.473417189E0,9.775821187E0
1.183943096E1,8.576445658E0,9.592632097E-1,5.033960926E0,9.990814213E0
1.184940896E1,8.945196220E0,5.145234025E-1,4.504562207E0,1.002857669E1
1.185938696E1,8.980248524E0,5.065618336E-2,4.098817773E0,9.871562021E0
1.186936396E1,8.808495335E0,-4.439492637E-1,3.867582906E0,9.630414246E0
1.187934196E1,8.572523931E0,-9.426302201E-1,3.647529669E0,9.363823523E0
1.188931996E1,8.236371596E0,-1.325605888E0,3.302225272E0,8.972164721E0
1.189929796E1,7.846411428E0,-1.668373763E0,2.861373571E0,8.516871611E0
1.190927596E1,7.502069483E0,-2.005126022E0,2.273462057E0,8.091366178E0
1.191925396E1,7.151064636E0,-2.408016137E0,1.595339993E0,7.712417056E0
1.192923096E1,6.732045561E0,-2.810327379E0,9.412577324E-1,7.355565480E0
1.193920896E1,6.208868864E0,-3.076779149E0,3.412487680E-1,6.937800316E0
1.194918696E1,5.618533972E0,-3.342852019E0,-1.074971129E-1,6.538664944E0
1.195916496E1,4.976293931E0,-3.593734408E0,-2.070178927E-1,6.141765600E0
1.196914296E1,4.388113445E0,-3.891726644E0,3.763224140E-2,5.865363763E0
1.197912096E1,3.808027845E0,-4.352811173E0,3.323060364E-1,5.792967157E0
1.198909796E1,3.349083689E0,-4.642178766E0,5.867177316E-1,5.754165704E0
1.199907596E1,2.992107373E0,-4.734303403E0,7.428807087E-1,5.649620075E0
1.200905396E1,2.880265925E0,-4.750349917E0,8.341877586E-1,5.617617408E0
1.201903196E1,2.843997108E0,-4.808687587E0,8.849743348E-1,5.656410119E0
1.202900996E1,2.639755912E0,-4.933130955E0,8.139722530E-1,5.653905121E0
1.203898796E1,2.329724697E0,-5.017691633E0,6.911455679E-1,5.575170732E0
1.204896496E1,1.869505410E0,-5.053968344E0,4.920080773E-1,5.411073687E0
1.205894296E1,1.487426412E0,-4.963116061E0,2.640076339E-1,5.187933924E0
1.206892096E1,1.189976652E0,-4.906942445E0,8.508521039E-2,5.049887928E0
1.207889896E1,1.110306219E0,-4.907919515E0,-2.492781322E-2,5.032005093E0
1.208887696E1,1.161113406E0,-4.983226390E0,-1.004978313E-1,5.117697667E0
1.209885496E1,1.163777617E0,-5.137163697E0,-8.167390823E-2,5.267969231E0
1.210883196E1,1.166741571E0,-5.210818734E0,-3.970961094E-2,5.339990134E0
1.211880996E1,9.284571540E-1,-5.318722082E0,8.547108094E-2,5.399828014E0
1.212878796E1,6.159763947E-1,-5.315158204E0,1.360284555E-1,5.352460873E0
1.213876596E1,4.743651639E-1,-5.102266930E0,1.573509121E-1,5.126686010E0
1.214874396E1,8.760908794E-1,-4.256910405E0,1.284066830E-3,4.346127365E0
1.215872196E1,7.697206711E-1,-4.617621045E0,-1.286890670E-1,4.683103128E0
1.216869896E1,1.002917425E0,-5.160556653E0,3.927925587E-2,5.257255101E0
1.217867696E1,1.420562039E0,-5.069239517E0,1.751708865E-2,5.264550563E0
1.218865496E1,1.441600614E0,-4.826315188E0,-1.076834564E-1,5.038166964E0
1.219863296E1,1.010592554E0,-4.779193062E0,-1.966594040E-1,4.888829978E0
1.220861096E1,3.577365274E-1,-4.849199436E0,-5.361896753E-2,4.862672680E0
1.221858896E1,-3.858565915E-1,-4.692195849E0,8.289842483E-2,4.708764099E0
1.222856696E1,-1.111477781E0,-4.482272621E0,2.291500425E-1,4.623706354E0
1.223854396E1,-1.550712581E0,-4.186082497E0,3.901683283E-1,4.481096685E0
1.224852196E1,-1.562491797E0,-3.972968443E0,6.062499169E-1,4.312006242E0
1.225849996E1,-1.363303911E0,-3.827618941E0,8.142025602E-1,4.143934136E0
1.226847796E1,-1.313023265E0,-3.547249044E0,7.989004699E-1,3.865908410E0
1.227845596E1,-1.614187469E0,-3.381499191E0,4.819708566E-1,3.777887488E0
1.228843396E1,-2.213853787E0,-3.451469897E0,4.484779688E-1,4.124915215E0
1.229841096E1,-2.588514130E0,-2.954862363E0,4.015820932E-1,3.948782745E0
1.230838896E1,-2.947196664E0,-2.834868143E0,3.216763830E-1,4.101941157E0
1.231836696E1,-2.895935878E0,-2.923526550E0,3.287467996E-1,4.128138389E0
1.232834496E1,-2.570112942E0,-2.819494058E0,2.261691320E-1,3.821803208E0
1.233832296E1,-2.512908170E0,-2.803235875E0,1.269395800E-1,3.766822600E0
1.234830096E1,-2.880543375E0,-2.830954601E0,3.337590694E-2,4.038929071E0
1.235827796E1,-3.346307139E0,-2.408105015E0,-1.972955811E-1,4.127428591E0
1.236825596E1,-3.658797838E0,-1.903735303E0,-4.465167761E-1,4.148540340E0
1.237823396E1,-3.727903157E0,-1.607409523E0,-4.823765802E-1,4.088241001E0
1.238821196E1,-3.431676487E0,-1.371309480E0,-3.448214167E-1,3.711575813E0
1.239818996E1,-2.932803450E0,-1.114478719E0,-1.820238598E-1,3.142694954E0
1.240816796E1,-2.698185968E0,-1.112828634E0,-7.242481906E-2,2.919561687E0
1.241814496E1,-2.880769663E0,-1.425604386E0,-6.918838520E-2,3.214960147E0
1.242812296E1,-3.399866172E0,-1.442346718E0,1.051925790E-1,3.694660949E0
1.243810096E1,-4.078019227E0,-1.150506923E0,3.982368281E-1,4.255878237E0
1.244807896E1,-4.555618047E0,-1.012725472E0,7.852377927E-1,4.732427186E0
1.245805696E1,-4.579299563E0,-8.299339092E-1,1.190778451E0,4.803824320E0
1.246803496E1,-4.242203488E0,-7.608701062E-1,1.343899341E0,4.514563012E0
1.247801196E1,-3.859962522E0,-9.577008337E-1,1.242045230E0,4.166434676E0
1.248798996E1,-3.567906672E0,-1.183858271E0,9.917807454E-1,3.887815257E0
1.249796796E1,-3.740215054E0,-1.493377123E0,9.785011339E-1,4.144496152E0
1.250794596E1,-4.163730345E0,-1.359122128E0,1.248613261E0,4.554437224E0
1.251792396E1,-4.533996213E0,-7.278263211E-1,1.534155898E0,4.841537683E0
1.252790196E1,-4.663269673E0,-2.833554858E-1,1.834484974E0,5.019134337E0
1.253787896E1,-4.241495682E0,2.708085304E-1,1.937901168E0,4.671090218E0
1.254785696E1,-3.404148673E0,8.417844611E-1,1.649695417E0,3.875348273E0
1.255783496E1,-2.688038710E0,9.838764793E-1,9.977156693E-1,3.031336601E0
1.256781296E1,-2.371475279E0,7.082638764E-1,3.006687990E-1,2.493177580E0
1.257779096E1,-2.393490923E0,5.282093954E-1,-1.498571205E-1,2.455658999E0
1.258776896E1,-2.547549122E0,7.321211010E-1,-2.093303204E-1,2.658914631E0
1.259774596E1,-2.778665875E0,1.121785399E0,2.055723149E-1,3.003605584E0
1.260772396E1,-3.130238195E0,1.619368833E0,8.486622486E-1,3.625048163E0
1.261770196E1,-3.377090683E0,1.940446461E0,1.299039941E0,4.105798183E0
1.262767996E1,-3.804640261E0,2.253326878E0,1.302290701E0,4.609634541E0
1.263765796E1,-4.152860371E0,2.509240211E0,1.016548381E0,4.957409234E0
1.264763596E1,-4.327112953E0,2.531860750E0,8.101495627E-1,5.078441461E0
1.265761296E1,-4.380236953E0,2.345483674E0,9.024931777E-1,5.049976571E0
1.266759096E1,-4.287424977E0,2.171679867E0,1.251673694E0,4.966376285E0
1.267756896E1,-3.997678192E0,2.121416032E0,1.691937457E0,4.831613526E0
1.268754696E1,-3.691082947E0,2.224277326E0,1.897298103E0,4.708634944E0
1.269752496E1,-3.443947162E0,2.252310632E0,1.799133877E0,4.491164431E0
1.270750296E1,-3.266280391E0,2.326678444E0,1.728416482E0,4.366857418E0
1.271747996E1,-3.082345990E0,2.380868100E0,1.899936074E0,4.333491294E0
1.272745796E1,-2.976624531E0,2.407893931E0,2.106902365E0,4.370043976E0
1.273743596E1,-3.071937069E0,2.387330443E0,2.222824293E0,4.480746795E0
1.274741396E1,-3.258517335E0,2.273551227E0,2.238373793E0,4.560404329E0
1.275739196E1,-3.416098043E0,2.206295968E0,2.340717024E0,4.692166230E0
1.276736996E1,-3.388738921E0,2.366733626E0,2.583125044E0,4.874168085E0
1.277734662E1,-3.109622082E0,2.561975664E0,2.803966193E0,4.908736620E0
1.278732463E1,-2.503797623E0,2.884503987E0,3.049179706E0,4.887418814E0
1.279730262E1,-1.869993506E0,3.257810699E0,3.397625519E0,5.064984248E0
1.280728062E1,-1.506647087E0,3.554952750E0,3.935490422E0,5.513234927E0
1.281725863E1,-1.714509025E0,3.460880406E0,4.656405042E0,6.049739027E0
1.282723662E1,-2.151439145E0,3.159441821E0,5.514220229E0,6.709499814E0
1.283721362E1,-2.257794297E0,2.817189086E0,6.387591349E0,7.337268748E0
1.284719162E1,-1.530628126E0,2.601861277E0,6.998857520E0,7.622106739E0
1.285716963E1,-1.947111118E-1,2.604807689E0,7.031796055E0,7.501272643E0
1.286714762E1,1.361241013E0,2.648095211E0,6.486052029E0,7.136823962E0
1.287712562E1,3.049411256E0,2.906674874E0,5.582304039E0,6.993553190E0
1.288710362E1,3.928267356E0,2.950185760E0,4.853626948E0,6.905981103E0
1.289708163E1,4.475549492E0,3.232769998E0,4.456972888E0,7.095488175E0
1.290705862E1,5.224320540E0,3.389915088E0,4.427951110E0,7.641452771E0
1.291703662E1,6.114294829E0,3.085768658E0,4.560729683E0,8.228415686E0
1.292701462E1,6.849141902E0,2.816531274E0,4.572886922E0,8.703728397E0
1.293699263E1,7.204616945E0,2.661189466E0,4.452415568E0,8.877637022E0
1.294697062E1,7.227039848E0,2.396472564E0,4.283654400E0,8.736296740E0
1.295694862E1,7.076266469E0,2.019102622E0,4.086685093E0,8.417322471E0
1.296692562E1,6.770787458E0,1.639921796E0,4.094890491E0,8.080905545E0
1.297690363E1,6.412215729E0,1.341240174E0,4.336313547E0,7.856147334E0
1.298688162E1,6.071755165E0,9.358246458E-1,4.514814130E0,7.624009784E0
1.299685962E1,5.693652567E0,4.982067472E-1,4.423155809E0,7.227046203E0
1.300683762E1,5.336020485E0,7.085188150E-2,4.091255277E0,6.724321850E0
1.301681562E1,5.062547379E0,-2.394604379E-1,3.629552989E0,6.233809603E0
1.302679262E1,4.963155237E0,-4.694115490E-1,2.984814141E0,5.810539783E0
1.303677062E1,4.948200983E0,-6.109065664E-1,2.176672512E0,5.440202481E0
1.304674862E1,5.088653442E0,-7.665535998E-1,1.343315935E0,5.318505051E0
1.305672662E1,5.246270987E0,-1.024694722E0,8.307143663E-1,5.409569752E0
1.306670462E1,5.182812325E0,-1.379695557E0,8.459897786E-1,5.429622651E0
1.307668262E1,4.857049616E0,-1.649528187E0,1.278500719E0,5.286439094E0
1.308665962E1,4.548363699E0,-1.763719046E0,1.936382062E0,5.248608645E0
1.309663762E1,4.375019775E0,-1.785206394E0,2.627639896E0,5.406685799E0
1.310661562E1,4.369823647E0,-1.892872930E0,3.111970031E0,5.688820977E0
1.311659362E1,4.467060505E0,-2.050536668E0,3.168338360E0,5.847879799E0
1.312657163E1,4.568469350E0,-2.288524193E0,2.806950611E0,5.829856509E0
1.313654962E1,4.565378512E0,-2.587709845E0,2.209159935E0,5.693795818E0
1.314652662E1,4.515934164E0,-2.816579806E0,1.716701000E0,5.592302344E0
1.315650462E1,4.294126763E0,-3.020768085E0,1.512318009E0,5.463668204E0
1.316648263E1,4.013980814E0,-3.185787621E0,1.581294104E0,5.363000632E0
1.317646062E1,3.710222638E0,-3.216021819E0,1.776305763E0,5.221475895E0
1.318643862E1,3.436892788E0,-3.344705002E0,1.998077204E0,5.195343694E0
1.319641662E1,3.268742654E0,-3.531936940E0,2.096076538E0,5.249075532E0
1.320639363E1,3.034183060E0,-3.664659964E0,1.965735084E0,5.147826135E0
1.321637162E1,2.701708916E0,-3.774698716E0,1.605018597E0,4.911584893E0
1.322634962E1,2.465862350E0,-3.862638500E0,1.130216500E0,4.719940958E0
1.323632762E1,2.331888167E0,-3.931844975E0,6.584432602E-1,4.618512191E0
1.324630562E1,2.271091596E0,-3.996692936E0,2.836262850E-1,4.605633000E0
1.325628362E1,2.192054490E0,-4.136120963E0,1.207275347E-1,4.682646115E0
1.326626062E1,2.007563142E0,-4.204821069E0,1.374423853E-1,4.661514818E0
1.327623862E1,1.750261972E0,-4.216911356E0,3.144083671E-1,4.576528267E0
1.328621662E1,1.456719759E0,-4.237685929E0,5.674630697E-1,4.516860505E0
1.329619462E1,1.311053630E0,-4.198713067E0,7.323427105E-1,4.459190385E0
1.330617262E1,1.263492378E0,-4.101668583E0,6.797364807E-1,4.345358425E0
1.331615063E1,1.263170928E0,-4.018859146E0,4.057720618E-1,4.232195717E0
1.332612762E1,1.201032275E0,-3.944086121E0,1.138850498E-1,4.124471319E0
1.333610562E1,6.480614557E-1,-4.149649665E0,-2.345888302E-2,4.200015037E0
1.334608362E1,2.458882455E-1,-4.208231750E0,-5.295574710E-2,4.215741904E0
1.335606163E1,3.598774489E-1,-3.753362811E0,-1.241552456E-1,3.772619606E0
1.336603962E1,9.000790816E-2,-3.783867150E0,6.777405336E-2,3.785544261E0
1.337601762E1,-1.285476009E-1,-3.953617083E0,4.150333205E-1,3.977419412E0
1.338599562E1,-3.301317127E-1,-3.917763711E0,7.590562999E-1,4.004250979E0
1.339597263E1,-6.254318541E-1,-3.987544382E0,9.850906536E-1,4.154765794E0
1.340595062E1,-9.763353983E-1,-4.083825805E0,1.087078081E0,4.337349740E0
1.341592862E1,-1.307178827E0,-4.048044353E0,1.084188387E0,4.389856949E0
1.342590662E1,-1.554479358E0,-4.076546606E0,9.878040540E-1,4.473298017E0
1.343588463E1,-1.645771643E0,-4.148579625E0,8.484896095E-1,4.543039932E0
1.344586262E1,-1.636007085E0,-4.162629315E0,6.453642082E-1,4.518904398E0
1.345583962E1,-1.667716536E0,-4.151836524E0,4.263063137E-1,4.494525786E0
1.346581762E1,-1.805239686E0,-4.266639587E0,1.598381715E-1,4.635585392E0
1.347579563E1,-2.219432031E0,-4.458589643E0,-9.348762274E-2,4.981329148E0
1.348577362E1,-2.790134019E0,-4.558061306E0,-4.146962285E-1,5.360293246E0
1.349575162E1,-3.079763567E0,-4.363991050E0,-8.010474944E-1,5.401021996E0
1.350572963E1,-3.009529152E0,-4.187481735E0,-1.063206239E0,5.265232806E0
1.351570663E1,-2.553623502E0,-4.323642923E0,-1.116328266E0,5.144032456E0
1.352568462E1,-1.766487995E0,-4.480417299E0,-1.198389260E0,4.962938226E0
1.353566262E1,-1.123336373E0,-4.566324592E0,-1.467244163E0,4.926054234E0
1.354564063E1,-1.049167074E0,-4.700869024E0,-1.738475447E0,5.120665778E0
1.355561862E1,-1.503354812E0,-4.697471207E0,-1.835777793E0,5.262736126E0
1.356559662E1,-2.168863263E0,-4.384501913E0,-1.675405040E0,5.170571238E0
1.357557362E1,-2.765885616E0,-4.026916024E0,-1.378370578E0,5.076030078E0
1.358555163E1,-3.086808293E0,-3.724105682E0,-9.395937610E-1,4.927492771E0
1.359552962E1,-3.051700733E0,-3.428381581E0,-5.765559651E-1,4.625915521E0
1.360550762E1,-2.709412038E0,-3.193962613E0,-5.029651382E-1,4.218445767E0
1.361548562E1,-2.498795330E0,-3.217695292E0,-7.020067710E-1,4.134048209E0
1.362546363E1,-2.855405318E0,-3.452070406E0,-9.737588958E-1,4.584575881E0
1.363544062E1,-3.507089489E0,-3.146103737E0,-1.071548461E0,4.831755532E0
1.364541862E1,-4.307262533E0,-2.424791214E0,-8.100121531E-1,5.008816492E0
1.365539662E1,-5.038942169E0,-1.920000502E0,-3.520756187E-1,5.403822476E0
1.366537463E1,-5.320759837E0,-1.507002305E0,2.119625907E-1,5.534118659E0
1.367535262E1,-5.321726967E0,-1.196648471E0,8.295174412E-1,5.517322236E0
1.368533062E1,-5.252711111E0,-1.174630195E0,1.295867827E0,5.536244533E0
1.369530762E1,-5.050852947E0,-1.329884881E0,1.513861966E0,5.437967207E0
1.370528563E1,-4.772234583E0,-1.372727430E0,1.595872090E0,5.215880677E0
1.371526362E1,-4.465447258E0,-9.343219113E-1,1.735234920E0,4.881005723E0
1.372524162E1,-4.152761554E0,-2.250213236E-1,2.013245758E0,4.620521789E0
1.373521962E1,-3.813231575E0,1.745323706E-1,2.430578204E0,4.525362637E0
1.374519762E1,-3.639706972E0,5.531226271E-1,3.064407610E0,4.789990133E0
1.375517462E1,-3.642809504E0,8.409214121E-1,3.687681037E0,5.251304727E0
1.376515262E1,-3.801695895E0,8.619275343E-1,4.172940879E0,5.710450625E0
1.377513062E1,-4.025745119E0,6.295767260E-1,4.457116730E0,6.038946941E0
1.378510896E1,-4.123274922E0,3.313096708E-1,4.377589919E0,6.022827881E0
1.379508696E1,-4.018145785E0,2.674463814E-1,4.170504929E0,5.797424815E0
1.380506496E1,-3.887757846E0,5.929696476E-1,3.996036878E0,5.606655403E0
1.381504196E1,-3.802879372E0,9.039789551E-1,4.084438593E0,5.653468677E0
1.382501996E1,-3.831981549E0,1.211105711E0,4.565666780E0,6.082447926E0
1.383499796E1,-3.952071371E0,1.770673724E0,5.268955261E0,6.820267084E0
1.384497596E1,-4.054382150E0,2.258400507E0,5.938109450E0,7.536546378E0
1.385495396E1,-4.043163390E0,2.348129539E0,6.366301637E0,7.898777062E0
1.386493196E1,-3.905242775E0,2.249408659E0,6.363638231E0,7.797862013E0
1.387490896E1,-3.589763272E0,2.499682353E0,6.018311030E0,7.440086012E0
1.388488696E1,-3.297302794E0,3.336705426E0,5.397023317E0,7.150781041E0
1.389486496E1,-3.000129168E0,3.906783224E0,4.884100882E0,6.936726289E0
1.390484296E1,-2.825024063E0,4.307861288E0,4.613353747E0,6.915306401E0
1.391482096E1,-3.073778065E0,4.693954691E0,4.570163873E0,7.236554433E0
1.392479896E1,-3.668344587E0,4.782225428E0,4.650786452E0,7.612900018E0
1.393477696E1,-4.452029067E0,4.627646681E0,4.794293497E0,8.013796026E0
1.394475396E1,-4.754411393E0,4.485182780E0,4.930317859E0,8.187143974E0
1.395473196E1,-4.364659386E0,4.309145921E0,4.973866167E0,7.896729372E0
1.396470996E1,-3.186077642E0,4.139809386E0,4.677563192E0,7.012040353E0
1.397468796E1,-1.359629667E0,4.243018590E0,4.215274721E0,6.133542252E0
1.398466596E1,3.678057982E-1,4.521029136E0,3.787508211E0,5.909331942E0
1.399464396E1,1.723065548E0,4.915981656E0,3.171111694E0,6.098506366E0
1.400462096E1,2.903343131E0,5.113113515E0,2.442511202E0,6.367039510E0
1.401459896E1,3.266630055E0,4.895823380E0,2.160231019E0,6.269494121E0
1.402457696E1,2.704248654E0,4.430165743E0,2.608919743E0,5.809112800E0
1.403455496E1,1.813580885E0,3.951896247E0,3.609506688E0,5.651114766E0
1.404453296E1,1.448101402E0,3.412124568E0,4.805415486E0,6.068905150E0
1.405451096E1,1.870419184E0,2.740868888E0,5.930624430E0,6.795817560E0
1.406448796E1,3.007833459E0,2.293756866E0,6.731652628E0,7.721627405E0
1.407446596E1,4.403935134E0,2.051417259E0,6.961862186E0,8.489433581E0
1.408444396E1,5.814735539E0,2.023374013E0,6.631161211E0,9.048618170E0
1.409442196E1,6.912889416E0,1.923649750E0,6.073192996E0,9.400645808E0
1.410439996E1,7.272430614E0,1.577866466E0,5.677144123E0,9.359907852E0
1.411437796E1,7.096624135E0,1.242205297E0,5.425700401E0,9.019056101E0
1.412435496E1,6.730382028E0,9.128205299E-1,5.039734467E0,8.457553255E0
1.413433296E1,6.385669954E0,5.503305817E-1,4.333470923E0,7.736834931E0
1.414431096E1,6.111369467E0,2.089818263E-1,3.350255471E0,6.972569246E0
1.415428896E1,5.874346148E0,-4.930255294E-2,2.479358016E0,6.376330417E0
1.416426696E1,5.673618836E0,-2.311649930E-1,1.877874237E0,5.980785869E0
1.417424496E1,5.623471361E0,-2.404959798E-1,1.439183375E0,5.809691665E0
1.418422196E1,5.734698266E0,-1.973651630E-1,1.125840443E0,5.847498090E0
1.419419996E1,5.820592110E0,-2.738794881E-1,1.057408724E0,5.922196864E0
1.420417796E1,5.778327851E0,-3.423269945E-1,1.262295161E0,5.924495725E0
1.421415596E1,5.537543603E0,-5.501428860E-1,1.722713400E0,5.825357312E0
1.422413396E1,5.157761099E0,-8.416651779E-1,2.254868058E0,5.691689537E0
1.423411196E1,4.775691457E0,-1.060153407E0,2.646013894E0,5.561703307E0
1.424408896E1,4.555691722E0,-1.250631720E0,2.692490196E0,5.437638294E0
1.425406696E1,4.527285656E0,-1.429327308E0,2.430140540E0,5.333373699E0
1.426404496E1,4.637196938E0,-1.602611883E0,2.133234278E0,5.350013904E0
1.427402296E1,4.768452604E0,-1.749260051E0,2.091982171E0,5.493126648E0
1.428400096E1,4.840345582E0,-1.936774995E0,2.208039608E0,5.661756057E0
1.429397896E1,4.962125543E0,-2.170961829E0,2.438187186E0,5.939740896E0
1.430395596E1,5.031716180E0,-2.413852243E0,2.649612563E0,6.177806820E0
1.431393396E1,4.919660724E0,-2.699790444E0,2.806190473E0,6.274283629E0
1.432391196E1,4.766034196E0,-2.992609649E0,2.893939054E0,6.328165430E0
1.433388996E1,4.739523797E0,-3.207925179E0,2.940363607E0,6.434252709E0
1.434386796E1,4.769632865E0,-3.331601391E0,2.889245494E0,6.495899092E0
1.435384596E1,4.766805736E0,-3.472323407E0,2.671829644E0,6.474422014E0
1.436382296E1,4.674619703E0,-3.628874420E0,2.408055899E0,6.389016523E0
1.437380096E1,4.432335645E0,-3.801965452E0,2.159062160E0,6.225920814E0
1.438377896E1,4.099575865E0,-4.045317212E0,1.838383312E0,6.045723019E0
1.439375696E1,3.629466158E0,-4.300601385E0,1.418956686E0,5.803588109E0
1.440373496E1,3.148857191E0,-4.563285794E0,9.155312991E-1,5.619348397E0
1.441371296E1,2.632045773E0,-4.777357036E0,4.325804492E-1,5.471556547E0
1.442368996E1,2.192781299E0,-4.976269957E0,6.389479123E-2,5.438348560E0
1.443366796E1,1.751995086E0,-5.159564965E0,-2.679661989E-2,5.448973800E0
1.444364596E1,1.314044335E0,-5.290712165E0,3.073303856E-2,5.451540356E0
1.445362396E1,9.637747751E-1,-5.381616488E0,1.971891618E-1,5.470789834E0
1.446360196E1,6.764185513E-1,-5.470511708E0,3.628501368E-1,5.524101793E0
1.447357996E1,4.666372644E-1,-5.618150395E0,4.674954895E-1,5.656846845E0
1.448355696E1,4.583979894E-1,-5.778923097E0,5.202514080E-1,5.820373047E0
1.449353496E1,5.929390594E-1,-5.879984618E0,4.348153281E-1,5.925779291E0
1.450351296E1,7.564572126E-1,-5.952297134E0,2.460343894E-1,6.005214535E0
1.451349096E1,6.862239665E-1,-5.877301916E0,-8.642184734E-3,5.917233799E0
1.452346896E1,2.374506037E-1,-5.743523469E0,-3.012344440E-1,5.756317123E0
1.453344696E1,-4.863262282E-1,-5.628264323E0,-4.667551589E-1,5.668485942E0
1.454342496E1,-1.205361041E0,-5.553506502E0,-4.177413853E-1,5.698143344E0
1.455340196E1,-1.606098724E0,-5.393540715E0,-2.535936698E-1,5.633306694E0
1.456337996E1,-1.620742052E0,-5.225876484E0,-4.962414980E-2,5.471659015E0
1.457335796E1,-1.343259802E0,-5.097912508E0,7.888485946E-2,5.272502409E0
1.458333596E1,-9.304169215E-1,-4.808233843E0,-1.187194546E-1,4.898865445E0
1.459331396E1,-8.784946697E-1,-4.612985957E0,-5.340740796E-1,4.726164137E0
1.460329196E1,-1.517038759E0,-4.657697276E0,-9.535299417E-1,4.990467900E0
1.461326896E1,-2.540961649E0,-4.663747391E0,-1.176181462E0,5.439708508E0
1.462324696E1,-3.732596132E0,-4.622101766E0,-1.188162407E0,6.058698584E0
1.463322496E1,-4.568853220E0,-4.406802608E0,-1.049046621E0,6.433881238E0
1.464320296E1,-4.424242514E0,-3.776873295E0,-7.440459126E-1,5.864494695E0
1.465318096E1,-3.625326329E0,-3.306084727E0,-3.895087624E-1,4.921880158E0
1.466315896E1,-2.932910162E0,-3.217125773E0,-1.390607850E-1,4.355593892E0
1.467313596E1,-2.651521094E0,-3.131219065E0,-2.554426324E-1,4.111003270E0
1.468311396E1,-3.006765173E0,-3.014779367E0,-6.211941576E-1,4.302954057E0
1.469309196E1,-3.645254810E0,-2.750859441E0,-9.170796418E-1,4.657912125E0
1.470306996E1,-4.088136372E0,-2.470566727E0,-8.232932264E-1,4.847099203E0
1.471304796E1,-4.335621529E0,-2.145353948E0,-3.985339397E-1,4.853760079E0
1.472302596E1,-4.464685950E0,-1.625473326E0,2.152715300E-1,4.756251255E0
1.473300296E1,-4.455975353E0,-1.195253910E0,7.075394064E-1,4.667436156E0
1.474298096E1,-4.390300596E0,-1.180472733E0,9.883251871E-1,4.652423226E0
1.475295896E1,-4.354511251E0,-1.342801965E0,9.432213736E-1,4.653445166E0
1.476293696E1,-4.252329403E0,-1.179003913E0,6.637604257E-1,4.462391005E0
1.477291496E1,-4.084277502E0,-7.751928610E-1,4.702301592E-1,4.183702079E0
1.478289258E1,-3.933501784E0,-3.839492297E-1,6.337241560E-1,4.002681551E0
1.479286958E1,-3.601400108E0,-4.847341776E-3,1.241463286E0,3.809374925E0
1.480284758E1,-3.144327353E0,2.598695594E-1,1.991787938E0,3.731158786E0
1.481282558E1,-2.849228027E0,2.428103077E-1,2.489898207E0,3.791655348E0
1.482280358E1,-2.661866281E0,2.021932089E-1,2.431143045E0,3.610660701E0
1.483278158E1,-2.491636584E0,2.454310298E-1,2.145584913E0,3.297275220E0
1.484275958E1,-2.439841070E0,3.726816452E-1,2.021830932E0,3.190535437E0
1.485273658E1,-2.330992227E0,6.979283381E-1,1.959587907E0,3.124198056E0
1.486271458E1,-2.256058405E0,9.099705970E-1,2.025710268E0,3.165651292E0
1.487269258E1,-2.512817538E0,1.050531229E0,2.168607740E0,3.481483502E0
1.488267058E1,-2.999546785E0,1.096513149E0,2.274863050E0,3.921048827E0
1.489264858E1,-3.416283692E0,1.092372735E0,2.226907988E0,4.221775888E0
1.490262658E1,-3.476813776E0,1.095766459E0,2.084756913E0,4.199422526E0
1.491260358E1,-3.376674361E0,9.919596702E-1,1.936585545E0,4.016998544E0
1.492258158E1,-3.257847244E0,1.101109645E0,1.793448629E0,3.878462209E0
1.493255958E1,-3.424851325E0,1.389902456E0,1.784035782E0,4.104170940E0
1.494253758E1,-3.789253020E0,1.514818863E0,1.857079200E0,4.483509540E0
1.495251558E1,-4.157618543E0,1.591746002E0,2.001356322E0,4.881073080E0
1.496249358E1,-4.439373938E0,1.741206096E0,2.428997117E0,5.351622803E0
1.497247058E1,-4.390763696E0,1.882454361E0,2.984815895E0,5.633077860E0
1.498244858E1,-4.126406983E0,1.976699198E0,3.368363129E0,5.681588200E0
1.499242658E1,-3.861526360E0,1.947836173E0,3.610628183E0,5.634011667E0
1.500240458E1,-3.610496621E0,1.934784603E0,3.912663477E0,5.664628213E0
1.501238258E1,-3.147563787E0,2.134097473E0,4.307941394E0,5.746293490E0
1.502236058E1,-2.775408684E0,2.345189559E0,4.665377594E0,5.913421643E0
1.503233758E1,-2.405370272E0,2.634444886E0,4.832687776E0,6.006744305E0
1.504231558E1,-1.902977796E0,3.000198750E0,4.839158305E0,6.003329920E0
1.505229358E1,-1.385208312E0,3.230485491E0,4.754844671E0,5.912984562E0
1.506227158E1,-9.711491373E-1,3.431658361E0,4.447915259E0,5.701171801E0
1.507224958E1,-8.405684596E-1,3.550229369E0,4.073363382E0,5.468361103E0
1.508222758E1,-8.847900745E-1,3.544714276E0,3.801908734E0,5.272794590E0
1.509220558E1,-9.916179004E-1,3.499045767E0,3.404105404E0,4.981421578E0
1.510218258E1,-1.043436656E0,3.493334207E0,2.786150896E0,4.588548872E0
1.511216058E1,-8.714693132E-1,3.551578907E0,2.207946053E0,4.271790873E0
1.512213858E1,-5.149276643E-1,3.737375354E0,1.918577290E0,4.232500898E0
1.513211658E1,-1.759076174E-1,3.964327428E0,1.869544879E0,4.386574233E0
1.514209458E1,5.431493238E-2,4.100526622E0,2.023961658E0,4.573148749E0
1.515207158E1,4.224148090E-1,4.198456374E0,2.329032533E0,4.819736791E0
1.516204958E1,9.845545370E-1,4.202040133E0,2.791544368E0,5.139961952E0
1.517202758E1,1.449547126E0,4.123613183E0,3.438880257E0,5.561588800E0
1.518200558E1,1.834567712E0,3.860212491E0,4.106488151E0,5.927067073E0
1.519198358E1,2.200897234E0,3.476303022E0,4.622177196E0,6.188146198E0
1.520196158E1,2.638744928E0,2.929011823E0,4.941382545E0,6.321340563E0
1.521193958E1,3.265792149E0,2.297890847E0,5.076018779E0,6.458457041E0
1.522191658E1,4.006260735E0,1.732797800E0,5.013044851E0,6.647054383E0
1.523189458E1,4.973349858E0,1.219433901E0,4.909578955E0,7.094025187E0
1.524187258E1,6.115920355E0,7.930110812E-1,4.694930007E0,7.750852607E0
1.525185058E1,7.152339914E0,4.164579946E-1,4.549388716E0,8.486833402E0
1.526182858E1,7.792107167E0,1.040219665E-1,4.653128847E0,9.076307770E0
1.527180658E1,8.058710965E0,-1.644067472E-1,4.825022369E0,9.394183991E0
1.528178358E1,8.165923757E0,-4.309017867E-1,4.858830970E0,9.511899156E0
1.529176158E1,8.157120774E0,-7.636229753E-1,4.554185187E0,9.373491457E0
1.530173958E1,8.027850530E0,-1.015188319E0,3.781378575E0,8.931730817E0
1.531171758E1,7.878175843E0,-1.098440391E0,2.830228962E0,8.442891796E0
1.532169558E1,7.612935616E0,-1.234624967E0,1.935661100E0,7.951595525E0
1.533167358E1,7.097301827E0,-1.439920124E0,1.286372533E0,7.355257812E0
1.534165058E1,6.514646668E0,-1.520257943E0,8.051748978E-1,6.737960525E0
1.535162858E1,5.918561624E0,-1.550759944E0,6.580710849E-1,6.153640032E0
1.536160658E1,5.350515148E0,-1.569053543E0,8.775770223E-1,5.644473651E0
1.537158458E1,4.934815537E0,-1.602481490E0,1.347734091E0,5.360665863E0
1.538156258E1,4.675904921E0,-1.733139278E0,1.760812834E0,5.288508336E0
1.539154058E1,4.605603555E0,-1.825490202E0,1.839893063E0,5.284808896E0
1.540151758E1,4.444574744E0,-1.939233164E0,1.738374728E0,5.151389776E0
1.541149558E1,4.244820994E0,-2.086309349E0,1.487583556E0,4.958235251E0
1.542147358E1,3.973969194E0,-2.245721405E0,1.025032253E0,4.678288886E0
1.543145158E1,3.617263019E0,-2.317712908E0,4.448433030E-1,4.319058976E0
1.544142958E1,3.301531500E0,-2.350540347E0,-1.519169484E-1,4.055641617E0
1.545140758E1,3.079774970E0,-2.414221787E0,-5.488746250E-1,3.951549577E0
1.546138458E1,2.864022067E0,-2.460848070E0,-6.213876273E-1,3.826815675E0
1.547136258E1,2.781303554E0,-2.574252478E0,-4.226730001E-1,3.813276511E0
1.548134058E1,2.793747891E0,-2.568550274E0,-3.038399633E-1,3.807203240E0
1.549131858E1,2.766834034E0,-2.647837349E0,-4.340230304E-1,3.854191120E0
1.550129658E1,2.599520636E0,-2.749956046E0,-5.561117603E-1,3.824790986E0
1.551127458E1,2.277791336E0,-2.779551144E0,-5.366480970E-1,3.633487183E0
1.552125158E1,2.036589159E0,-2.867304402E0,-4.899598342E-1,3.550942209E0
1.553122958E1,1.880299078E0,-2.998713557E0,-3.822646469E-1,3.560046893E0
1.554120758E1,1.812298152E0,-3.066349470E0,-1.462558204E-1,3.564872288E0
1.555118558E1,1.981317768E0,-3.170775479E0,7.348430256E-2,3.739630621E0
1.556116358E1,2.305606248E0,-3.298701448E0,1.509774470E-1,4.027411775E0
1.557114158E1,2.416221828E0,-3.454656045E0,-1.456892252E-2,4.215802244E0
1.558111858E1,2.271944851E0,-3.718277763E0,-2.698536801E-1,4.365792475E0
1.559109658E1,1.966147605E0,-4.006904513E0,-4.989440445E-1,4.491098456E0
1.560107458E1,1.584692067E0,-4.298420958E0,-5.941437320E-1,4.619597218E0
1.561105258E1,1.210629456E0,-4.444872075E0,-4.713931704E-1,4.630844736E0
1.562103058E1,1.103231161E0,-4.361803606E0,-1.658760794E-1,4.502217739E0
1.563100858E1,1.217062124E0,-4.317233205E0,1.856163891E-1,4.489342513E0
1.564098658E1,1.283833380E0,-4.410647737E0,4.119749343E-1,4.612132365E0
1.565096358E1,1.044337566E0,-4.523637578E0,3.404213870E-1,4.655085887E0
1.566094158E1,6.229411595E-1,-4.510206524E0,7.794455409E-2,4.553690144E0
1.567091958E1,1.270291155E-1,-4.448690892E0,-1.283532906E-1,4.452354615E0
1.568089758E1,-4.350441370E-1,-4.397519569E0,-2.889400884E-1,4.428422759E0
1.569087558E1,-9.808815354E-1,-4.268141736E0,-3.905495667E-1,4.396781941E0
1.570085258E1,-1.379806361E0,-4.145863008E0,-5.232637108E-1,4.400664790E0
1.571083058E1,-1.470256940E0,-4.145818570E0,-5.965914861E-1,4.439075183E0
1.572080858E1,-1.369580605E0,-4.085992783E0,-7.238829589E-1,4.369793427E0
1.573078658E1,-1.397811693E0,-3.956707921E0,-8.764216856E-1,4.286902153E0
1.574076458E1,-1.770660568E0,-3.756920257E0,-1.066343855E0,4.287980629E0
1.575074258E1,-2.408371356E0,-3.476729284E0,-1.121609398E0,4.375603586E0
1.576072058E1,-3.207141944E0,-3.204925557E0,-9.543193889E-1,4.633360851E0
1.577069758E1,-3.766002152E0,-2.912040864E0,-6.926518106E-1,4.810667390E0
1.578067558E1,-3.865253375E0,-2.651728671E0,-3.687290005E-1,4.701894264E0
1.579065358E1,-3.523005610E0,-2.554757861E0,-3.730873506E-2,4.351982101E0
1.580063158E1,-3.055332731E0,-2.603012593E0,7.676927288E-2,4.014551803E0
1.581060958E1,-2.560651855E0,-2.622342319E0,-1.336199874E-1,3.667624771E0
1.582058758E1,-2.251348326E0,-2.486616164E0,-4.908035874E-1,3.390091060E0
1.583056458E1,-2.600131378E0,-2.330794299E0,-7.537435198E-1,3.572312212E0
1.584054258E1,-3.123734629E0,-2.083345395E0,-6.194856012E-1,3.805497140E0
1.585052058E1,-3.312130163E0,-1.745519003E0,-1.483514259E-1,3.746872156E0
1.586049858E1,-3.047232583E0,-1.682663189E0,3.854121665E-1,3.502217064E0
1.587047658E1,-2.847628521E0,-1.701940289E0,7.634721172E-1,3.404185456E0
1.588045458E1,-2.384133770E0,-1.493999852E0,8.342965899E-1,2.934651630E0
1.589043158E1,-2.078212709E0,-1.447518581E0,7.759758031E-1,2.648851931E0
1.590040958E1,-2.208361790E0,-1.347889042E0,7.807120478E-1,2.702439262E0
1.591038758E1,-3.007221256E0,-1.286824815E0,6.907358243E-1,3.343114381E0
1.592036558E1,-3.670333810E0,-1.286135429E0,8.344163116E-1,3.977655742E0
1.593034358E1,-3.895778180E0,-1.264333500E0,8.472824518E-1,4.182524881E0
1.594032158E1,-3.898602385E0,-1.301065124E0,8.753410470E-1,4.202153372E0
1.595029858E1,-3.508888385E0,-1.420696233E0,7.982975489E-1,3.868844073E0
1.596027658E1,-2.873004560E0,-1.476108541E0,6.343712966E-1,3.291728812E0
1.597025458E1,-2.331310316E0,-1.400598768E0,4.818031146E-1,2.762031669E0
1.598023258E1,-2.103468296E0,-1.215235015E0,3.911199626E-1,2.460558847E0
1.599021058E1,-2.529673014E0,-1.147582730E0,3.333088338E-1,2.797728804E0
1.600018858E1,-3.196162335E0,-9.951861638E-1,1.830850929E-1,3.352516864E0
1.601016558E1,-3.601565876E0,-8.883575338E-1,1.301324156E-1,3.711790715E0
1.602014358E1,-3.561317737E0,-9.836262184E-1,2.899894443E-1,3.706021915E0
1.603012158E1,-3.310018149E0,-1.087102055E0,3.810112962E-1,3.504736885E0
1.604009958E1,-3.021778192E0,-1.110199726E0,2.602820805E-1,3.229773000E0
1.605007758E1,-2.576829346E0,-1.142344210E0,1.605268273E-1,2.823254972E0
1.606005558E1,-2.398792447E0,-1.157992528E0,2.112973237E-1,2.672040130E0
1.607003258E1,-2.225684604E0,-5.534512407E-1,1.010296538E-1,2.295688835E0
1.608001058E1,-2.129716154E0,-9.434599400E-2,6.273770034E-2,2.132727850E0
1.608998858E1,-2.667754427E0,1.089605248E-1,2.651180202E-1,2.683108951E0
1.609996658E1,-3.172750669E0,3.292707467E-1,1.704124224E-1,3.194339748E0
1.610994458E1,-3.301810412E0,6.558704853E-1,-7.712477446E-3,3.366329986E0
1.611992258E1,-3.551457577E0,9.808464521E-1,2.784695524E-1,3.694923000E0
1.612989958E1,-3.897053750E0,1.344394746E0,7.772273996E-1,4.195057520E0
1.613987758E1,-4.140405802E0,1.939589260E0,1.365343566E0,4.771700929E0
1.614985558E1,-4.368504515E0,2.532344314E0,1.946319990E0,5.411539608E0
1.615983358E1,-4.519368526E0,2.993054037E0,2.614841218E0,6.018343538E0
1.616981158E1,-4.299410014E0,3.507709002E0,3.412622458E0,6.514210693E0
1.617978958E1,-4.000214129E0,4.026127235E0,4.356461882E0,7.154730863E0
1.618976658E1,-3.500257895E0,4.240182690E0,5.399432369E0,7.706154974E0
1.619974458E1,-2.549302409E0,4.404704627E0,6.179364399E0,8.005305116E0
1.620972258E1,-1.474574524E0,4.790223250E0,6.395486260E0,8.125444807E0
1.621970058E1,-6.732171276E-1,5.056342313E0,6.328939683E0,8.128671257E0
1.622967858E1,-1.009634159E-1,5.134834167E0,6.211560922E0,8.059789366E0
1.623965658E1,3.204936375E-1,5.063710390E0,6.119863717E0,7.949629614E0
1.624963458E1,6.283068569E-1,4.891053806E0,5.940751222E0,7.720731955E0
1.625961158E1,1.042271745E0,4.766802227E0,5.589432380E0,7.419601620E0
1.626958958E1,1.431905638E0,4.714742128E0,5.235833707E0,7.189791492E0
1.627956758E1,1.739238508E0,4.659770699E0,5.091050216E0,7.117387573E0
1.628954558E1,2.189067440E0,4.592425978E0,5.088590292E0,7.195564174E0
1.629952358E1,2.592358674E0,4.467233582E0,4.898235941E0,7.118231150E0
1.630950158E1,2.922188707E0,4.349703378E0,4.517651199E0,6.918690532E0
1.631947858E1,3.201696433E0,4.178385222E0,4.173037359E0,6.717440279E0
1.632945658E1,3.329634388E0,3.779061323E0,4.002444257E0,6.433298507E0
1.633943458E1,3.465432171E0,3.362397507E0,3.970027294E0,6.251084213E0
