Time (s),Linear Acceleration x (m/s^2),Linear Acceleration y (m/s^2),Linear Acceleration z (m/s^2),Absolute acceleration (m/s^2)
0.01142825,0.04501484452,-0.01712921726,-0.05577015817,0.07368891947
0.02140525001,0.01289325098,0.01268180676,-0.02703226268,0.0325239507
0.03138325003,-0.02960608824,-0.004560161261,-0.001436076164,0.02998962898
0.04136124998,-0.06325341563,0.03691980385,-0.05233258009,0.09001536227
0.05133824999,-0.1052611742,0.03371736607,-0.02404024243,0.1131136986
0.06131625001,-0.07238763899,0.02014782406,-0.01730425,0.07710604491
0.07129425002,-0.06121256834,0.01953792293,-0.01850292921,0.0668660403
0.08127224998,-0.02325616051,-0.0101627623,-0.03481841505,0.04308657291
0.09124924999,0.02439970458,-0.01851024737,-0.02778421462,0.04135138962
0.10122725,0.04351943282,-0.03346164174,0.001254227757,0.05491079665
0.11120525,0.06043728693,-0.02347272447,-0.0411076802,0.07676897692
0.12118225,0.03286261049,-0.02047563359,-0.03542067826,0.05247692052
0.13116025,8.678861166e-05,-0.03198775054,-0.02554239213,0.04093455158
0.14113825,-0.01496261486,0.01831434737,-0.03063297808,0.03869979986
0.15111625,-0.04315879209,0.04289252451,-0.01401869953,0.06244176431
0.16109325,-0.05542096976,0.0257564185,-0.03153169513,0.06876863225
0.17107125,-0.06016618626,0.002513188105,-0.01222068071,0.06144616441
0.18104925,-0.04774267569,0.007920684004,-0.03033184648,0.05711498251
0.19102625,-0.005114212924,-0.003788566338,0.005146719217,0.0081851773
0.20100425,0.01078923207,-0.004303267496,-0.0370649153,0.03884241993
0.21098225,0.02176789109,-0.02746090014,0.005747812986,0.03551027278
0.22096025,0.04929576925,-0.02572160016,-0.04844008863,0.0737435812
0.23093725,0.0398599529,-0.0200595037,-0.02209604323,0.04979392192
0.24091525,0.0155127522,0.01039699811,-0.01775565505,0.02576832041
0.25089325,-0.006799255422,0.01208953863,-0.01236803055,0.01858372939
0.26087025,-0.04565007141,0.01286225731,-0.01476246536,0.04967189413
0.27084825,-0.07041609035,0.02384395871,-0.03556861281,0.08241411508
0.28082625,-0.07733845364,0.03099120227,-0.01102024734,0.0840424707
0.29080325,-0.05660625519,0.02189390316,-0.02583826125,0.06596382999
0.30078125,-0.02768646105,0.006491313865,5.788743496e-05,0.02843731056
0.31075925,0.02130080363,1.923185773e-05,-0.0199992317,0.02921804021
0.3207373333,0.03204156548,-0.02501416929,-0.03287246168,0.05227780906
0.3307143333,0.04034162186,-0.02699336043,-0.02194460034,0.05326962968
0.3406923334,0.02249850069,-0.02864776614,-0.02374320388,0.04348122317
0.3506703334,0.006771425188,-0.01640010601,-0.01431398392,0.02279705709
0.3606483333,-0.01328795403,0.002969755149,-0.03467281938,0.03725041706
0.3706253333,-0.04160798259,0.008479750911,-0.006980406046,0.04303320183
0.3806033334,-0.0232373512,0.02384383994,-0.03332620561,0.04710774007
0.3905813334,-0.0537730371,0.01336199326,-0.02329706132,0.0601068669
0.4005583333,-0.008099303309,-0.001547958981,-0.008477293253,0.0118262163
0.4105363333,0.006259316448,-0.008996498594,0.01757029831,0.02070824503
0.4205143334,0.01925560291,-0.007731435215,-0.05577425122,0.05950899456
0.4304913334,0.02220987664,-0.01761216072,-0.01326382399,0.03129530081
0.4404693333,0.01826536209,-0.0170706446,-0.02478810132,0.03520625408
0.4504473333,-0.001699605434,-0.002525174897,-0.05697176099,0.05705301672
0.4604253334,-0.007665000795,-0.003921645312,-0.006676935554,0.0108955499
0.4704023334,-0.003123996874,0.008424732266,-0.03182522535,0.03306932777
0.4803803333,-0.04186514588,0.007200325308,0.002752869129,0.04256892543
0.4903583333,-0.03053669774,0.005220275363,-0.01535829663,0.03457771622
0.5003353333,-0.03555425516,0.004638459133,-0.02972958326,0.04657755344
0.5103133334,-0.01545236828,-0.01483223909,-0.002485066652,0.02156261946
0.5202913333,0.02172261857,-0.00486704872,-0.02927876294,0.03678051495
0.5302693333,0.04604415547,-0.01985829553,0.03074758351,0.05882032001
0.5402463333,0.008863446458,-0.00782301723,-0.05098070383,0.05233347346
0.5502243334,-0.01687778698,-0.0008044398297,-0.04124976754,0.04457634058
0.5602023333,-0.006890372629,-0.01667983132,0.009942605495,0.02060459687
0.5701793333,0.05503771218,-0.01451626103,-0.01550155342,0.05899296361
0.5801573333,0.008460033117,0.008344351323,-0.008764391541,0.01476532825
0.5901353334,-0.03397515062,0.003348070001,-0.04064575016,0.05308104595
0.6001133333,-0.004518434182,-0.01236946494,-0.02986933172,0.03264348155
0.6100903333,-0.005375454985,-0.002012821762,-0.008311232328,0.0101006708
0.6200683333,-0.01998047036,0.02841482769,-0.04812843204,0.05935459206
0.6300463334,-0.0727721391,0.01091839615,-0.0023236835,0.07362333264
0.6400233334,-0.06871267766,0.01228255156,-0.03764846742,0.07930763042
0.6500013333,-0.0445537002,0.02267572157,-0.01085360169,0.05115682965
0.6599793333,0.04398094716,0.001213434292,0.004864298701,0.04426576033
0.6699573334,0.04331811958,-0.0132795932,-0.04797581971,0.065988532
0.6799343334,0.07293424859,-0.03276502823,0.0301616925,0.08545571594
0.6899123333,0.08104951696,-0.04104833096,-0.04512939513,0.1014428508
0.6998903333,0.0193250523,-0.007198964003,-0.08389935851,0.0863966729
0.7098673334,0.04178666528,-0.01191676254,0.1401834869,0.1467635671
0.7198453334,-0.02223519326,0.01452801942,-0.2103834039,0.2120533985
0.7298233333,-0.1011805394,0.02419265376,0.05920071959,0.1196975825
0.7398013333,-0.1146006942,0.0271288057,-0.01863215268,0.1192327485
0.7497783334,-0.0385324705,0.06802917469,-0.08569562316,0.1160019815
0.7597563334,-0.1011432177,0.01333032693,0.06399309754,0.1204274248
0.7697343333,-0.0063873699,0.01780976007,-0.1174261236,0.1189406598
0.7797113333,-0.02764091672,-0.01482725982,0.0219299823,0.03827260162
0.7896893334,0.09009049094,-0.06104195299,-0.01638448298,0.1100493883
0.7996673334,0.1532152221,-0.04721813019,-0.05785469055,0.1704453617
0.8096453333,0.1179023702,-0.0685359547,0.06938423038,0.1530108408
0.8196223333,0.05058049846,-0.006646128036,-0.1309010321,0.1404907045
0.8296003334,-0.03331202383,0.004238409083,0.06668807924,0.07466562098
0.8395783334,-0.05441293719,0.05286178051,-0.08928639829,0.1171631192
0.8495553333,-0.13580289,0.05933023542,0.02402562439,0.1501323829
0.8595333333,-0.1677354209,0.05423132633,-0.06488538265,0.1878465359
0.8695113334,-0.1156658833,0.06301882351,-0.02596748471,0.1342545304
0.8794893334,-0.06522911671,0.02636933461,0.02238314152,0.0738321373
0.8894663333,0.000373579693,-0.001898015337,-0.1496051055,0.1496176113
0.8994443333,0.09101050464,-0.07931113061,0.09033714294,0.1507778723
0.9094223334,0.1463704806,-0.07405408175,-0.0822451812,0.1835009386
0.9193993334,0.1541603241,-0.009078725064,-0.02522196472,0.1564735641
0.9293773333,0.02313182952,-0.06814354258,0.1455781281,0.1623933968
0.9393553333,0.05420857244,0.02592418791,-0.1675724298,0.1780200889
0.9493333334,-0.1716156332,0.02174169282,0.06174659729,0.1836770782
0.9593103334,-0.1272241019,0.06747714272,-0.07491394222,0.1623306368
0.9692883333,-0.1744609066,0.0939014777,-0.02058336854,0.1991927973
0.9792663333,-0.08702612054,0.03291111725,0.03900034368,0.1008846574
0.9892433333,-0.0398838534,0.005854150085,-0.1443712628,0.1498934767
0.9992213334,0.04846683507,-0.05220514733,0.1169875824,0.1369689963
1.009199333,0.1292187516,-0.03365221529,-0.1461622649,0.1979731423
1.019177333,0.1299065029,-0.08078006082,0.0689375031,0.1677900386
1.029154333,0.1041838612,-0.07360573735,-0.07057063043,0.1457816703
1.039132333,0.04344124458,-0.01811445482,0.007712477446,0.04769441805
1.049110333,-0.04789881005,0.01389769871,-0.01443969905,0.05192250901
1.059087333,-0.07613124115,0.05312393677,-0.03659655333,0.09978690422
1.069065333,-0.1323795462,0.03538661823,0.02627387881,0.1395237389
1.079043333,-0.0943652624,0.05051777794,-0.05620226741,0.1208947621
1.089021333,-0.08764583403,0.02257627322,0.02912030339,0.09507614004
1.098998333,-0.002368313059,0.013113112,-0.04422366142,0.04618760486
1.108976333,0.05270990822,-0.0296024246,-0.0434746331,0.07446261941
1.118954333,0.09097586903,-0.06318181464,0.01370587349,0.1116082498
1.128931333,0.1032598459,-0.03521319347,-0.04826350272,0.1192976549
1.138909333,0.04991847031,-0.02600655142,0.02508163154,0.06162209536
1.148887333,0.007240525487,-0.02180804959,-0.007998991013,0.02433105204
1.158865333,-0.02873037633,0.02096724738,-0.05814588189,0.06816159893
1.168842333,-0.1011679679,0.04279811938,0.01505073309,0.1108745296
1.178820333,-0.0980185936,0.05231570539,-0.03943654597,0.1178974931
1.188798333,-0.1138283318,0.0548717609,-0.02641538143,0.1290952038
1.198775333,-0.05133827477,0.02074857065,-0.005306348205,0.05562624356
1.208753333,0.01214751971,0.006974832918,-0.03030494928,0.03338563285
1.218731333,0.04418712089,-0.03319922967,0.02523190498,0.06075639499
1.228709333,0.06801442418,-0.03459793847,-0.05829381645,0.09602681021
1.238686333,0.05999730223,-0.04477739275,0.001581671834,0.07488119164
1.248664333,0.04993474659,-0.0349401559,-0.02970327079,0.06779806566
1.258642333,0.02769710024,0.008219010774,-0.02356778741,0.03728434126
1.268619333,-0.0327858201,0.01117821353,-0.01353747368,0.0371903973
1.278597333,-0.07997075136,0.02327080367,-0.02012260795,0.08568413346
1.288575333,-0.0807359783,0.0250528066,-0.01518171072,0.08588612024
1.298553333,-0.06232632588,0.02864254019,-0.01742587209,0.0707716541
1.308530333,-0.04871512704,0.01105823597,-0.0241612798,0.05549068054
1.318508333,0.01556530634,0.005686983671,-0.02910100758,0.03348864266
1.328489583,0.03831659175,-0.03467692156,-0.03194450855,0.06075443786
1.338466583,0.0829963931,-0.03261008615,-0.01502851367,0.09043049933
1.348444583,0.05884104274,-0.0364495324,-0.02520734668,0.07366306435
1.358422583,0.04489318132,-0.01333927134,-0.02311228931,0.05222558574
1.368400583,-0.004223896111,0.009319374533,-0.02206329882,0.02432038641
1.378377583,-0.04249786486,0.01247626799,-0.01846960008,0.04798803922
1.388355583,-0.05542826965,0.0331452891,-0.01637337327,0.06662575041
1.398333583,-0.09311672654,0.03905618459,-0.01532672167,0.1021323588
1.408310583,-0.05382014373,0.0360077113,-0.02670247972,0.07004416869
1.418288583,-0.02547042798,0.01117527165,-0.02011617601,0.0343262281
1.428266583,0.01056490227,-0.009460255885,-0.02281057298,0.02685955773
1.438244583,0.0291704387,-0.03046295201,-0.0232584697,0.04816494941
1.448221583,0.04425616829,-0.01832941309,-0.02101313889,0.05230800915
1.458199583,0.07410502561,-0.02678240385,-0.03313850999,0.08548106703
1.468177583,0.03756689876,-0.01480418159,-0.02475594163,0.04736340698
1.478154583,0.003578415466,-0.004579548435,-0.01966710985,0.0205078651
1.488132583,-0.03922634313,0.02506158656,-0.01592606127,0.04919785101
1.498110583,-0.06516176409,0.04114011398,-0.02026528001,0.07968215642
1.508088583,-0.06979729048,0.03073989077,-0.02355726242,0.07982197226
1.518065583,-0.04413925138,0.02072720091,-0.01337725997,0.05056521981
1.528043583,-0.02881070931,0.009891743856,-0.021458112,0.0372606245
1.538021583,0.006458459251,-0.004578196267,-0.009632703066,0.01246838182
1.547998583,0.0300191552,-0.0115547194,-0.01771647871,0.03672240238
1.557976583,0.04240525501,-0.02709546743,-0.03777593672,0.06292369509
1.567954583,0.03976695933,-0.03239023084,-0.01876605392,0.05461412718
1.577932583,0.03592848153,0.0004812806658,-0.0243051213,0.04338002233
1.587909583,0.01864819369,-0.01027050639,-0.03119021773,0.03776331701
1.597887583,-0.02127485432,0.006011476731,-0.02191010177,0.03112571025
1.607865583,-0.04502361991,0.02036339446,-0.01562434494,0.05182580765
1.617842583,-0.06959124922,0.02388273306,-0.0313410759,0.0799724324
1.627820583,-0.05803322706,0.02899796868,-0.02729948044,0.07038465218
1.637798583,-0.02476256771,0.01265514711,-0.01936656296,0.03388806972
1.647776583,-0.001594692738,-0.01036147627,-0.01906543136,0.02175761725
1.657753583,0.01500079878,-0.001902866699,-0.02145986617,0.02625206128
1.667731583,0.03330140063,-0.00304503805,-0.02325437665,0.04073108854
1.677709583,0.04149430906,-0.02423095303,-0.009184221625,0.04892102509
1.687686583,0.0187439624,-0.01021621864,-0.006789202094,0.02240090433
1.697664583,-0.00319030253,0.012921972,-0.03014122725,0.03294918771
1.707642583,-0.03326757357,0.003019465618,-0.01876488447,0.03831409027
1.717620583,-0.05898065872,0.01819606916,-0.01577052534,0.06370654994
1.727597583,-0.06771196324,0.01626360093,-0.02130783856,0.07282471192
1.737575583,-0.02656186332,0.009121236149,-0.01007943034,0.02983830504
1.747553583,-0.01784304352,0.007502480177,-0.02804207683,0.03407373598
1.757530583,-0.0008640151913,0.001000440326,-0.02983600259,0.0298652717
1.767508583,0.04072141679,-0.007962308871,-0.01501681924,0.04412637542
1.777486583,0.02699824833,-0.01857773703,-0.01337141275,0.03539537265
1.787464583,0.01373066705,-0.004123456478,-0.00588756144,0.01549830606
1.797441583,0.01499782264,-0.009286392583,0.002645280361,0.01783730023
1.807419583,-0.008663887954,0.003828665446,-0.03073413491,0.03216066981
1.817397583,-0.02684317149,0.013434919,-0.009628025293,0.03152382869
1.827374583,-0.04154679696,0.01251411044,-0.01666047156,0.04647914167
1.837352583,-0.04139303346,0.01705797259,-0.02249774694,0.05010495251
1.847330583,-0.03554438341,0.005398368761,-0.02354556799,0.04297603227
1.857308583,-0.01612896651,0.0108122966,-0.004984166622,0.02004722513
1.867285583,0.003694890403,0.006618582169,-0.0178573966,0.01939959944
1.877263583,0.0378428508,-0.01297457867,-0.01037179112,0.04132789735
1.887241583,0.01627101502,-0.01867462722,-0.01291649938,0.02793427263
1.897218583,0.01700859788,-0.01973527559,-0.01007241368,0.02793254413
1.907196583,0.01718528657,-0.006151133822,-0.02189782262,0.02850763332
1.917174583,-0.02193006453,-0.0004858853482,-0.03282509923,0.03947975373
1.927152583,-0.01903732361,0.008047586856,-0.03566801548,0.04122366641
1.937129583,-0.03468136179,0.0140447105,-0.008724045753,0.03842082408
1.947107583,-0.0362310658,0.02173473098,-0.01261536777,0.04409349344
1.957085583,-0.02493307572,0.01843208654,-0.01306326449,0.03364593524
1.967062583,-0.000824957047,0.007128039105,-0.03312096834,0.03388934994
1.977040583,0.010746697,-0.01162723401,-0.02009804964,0.02558545811
1.987018583,0.0253053218,-0.01130420275,-0.02863030672,0.03984769472
1.996996583,0.0089844153,-0.005319477031,-0.01440987825,0.01779497529
2.006973583,0.02898111682,-0.008651805231,-0.04764077425,0.05643050803
2.016951583,0.006789506446,-0.01990202174,-0.007524781823,0.02233405938
2.026929583,-0.02108619254,0.001457208367,-0.002285676599,0.02125971048
2.036906583,-0.0164767742,0.01914650666,-0.01081910312,0.02747955235
2.046884583,-0.03975711957,0.005080691362,-0.03207490146,0.05133460124
2.056862583,-0.02330357092,0.0143151625,-0.02159727573,0.03484856689
2.066840583,-0.01317570462,0.01398498667,-0.01845439732,0.02664101772
2.076817583,-0.0086512936,0.005140990773,-0.03073004186,0.03233589553
2.086795583,0.01785056267,0.00708172733,-0.01172015905,0.02249790163
2.096773583,0.01123163903,0.004842170645,-0.03402085483,0.03615266097
2.106751583,-0.005287811846,-0.005652220147,-0.01441163242,0.016358597
2.116728583,0.01143163208,0.006276976867,-0.009770112634,0.01629532913
2.126706583,0.006532939303,-0.001658626674,-0.02623587191,0.02708784438
2.136684583,-0.002551900784,-0.001479683602,-0.003183808923,0.004340311098
2.146661583,-0.01499989429,0.01653215258,-0.0187520206,0.02915385351
2.156639583,-0.0261572497,0.02182481465,-0.01949871004,0.0392520565
2.166617583,-0.01907673293,0.01217874521,-0.0260838443,0.03453419331
2.176594583,-0.01398343808,0.01508495757,-0.02084473908,0.02928473378
2.186572583,0.002643847108,0.00251035586,-0.003630536199,0.005145153755
2.196550583,-0.0005002755515,-0.01286072242,-0.01021742463,0.01643302233
2.206528583,-0.0003637373558,0.002354390519,-0.01006715119,0.01034519176
2.216505583,0.008622212267,-0.003327549929,-0.01500512481,0.01762296523
2.226483583,0.01680410521,-0.008106917823,-0.02668084502,0.03255714299
2.236461583,-0.010557744,-0.008247196181,-0.03177143097,0.03448051666
2.246438583,-0.004963450691,-0.01505920242,-0.01799948394,0.02398743092
2.256416583,-0.0008022231411,0.008510247795,-0.02773042023,0.02901799589
2.266394583,-0.01791289148,0.008895369172,-0.0215937674,0.02943280592
2.276372583,-0.01179886806,0.0086317237,-0.0202459842,0.0249723811
2.286349583,-0.01363886577,0.008711446831,-0.02024539948,0.02591879946
2.296327583,-0.000186216117,-0.00187606087,-0.01350882232,0.01363974198
2.306305583,0.0155889533,0.0002636271995,-0.02054419219,0.02579047881
2.316282583,-0.002073221672,-0.00118334854,-0.02847710967,0.02857698964
2.326260708,0.009757109431,-0.0042171307,-0.01799772978,0.02090224038
2.336238708,0.02232134833,0.01235720406,-0.0242834866,0.03522258941
2.346216708,-0.01009541768,0.0103943029,-0.02383442044,0.02789334309
2.356193708,0.002400292304,0.00600498084,-0.004225782752,0.007725182062
2.366171708,-0.01272227246,0.02084813777,-0.03401383817,0.0418741239
2.376149708,-0.0438596357,0.003628233857,-0.04449087918,0.0625801091
2.386126708,-0.03729638966,0.008533444796,-0.01215694606,0.04014513295
2.396104708,0.001318184534,0.01304943217,-0.02457935572,0.02785982803
2.406082708,-0.01201136181,0.006846367763,-0.01125647485,0.01782845451
2.416060708,0.005649230301,0.0005281771626,-0.0358042556,0.03625103438
2.426037708,-0.01290404092,0.001321626054,-0.0211353457,0.02479846377
2.436015708,0.006464384125,0.001376489382,-0.01440052271,0.01584481112
2.445993708,0.003718666415,-0.003478965405,-0.02667558253,0.02715728969
2.455970708,-0.01028384763,0.003034878513,-0.02263457179,0.02504579505
2.465948708,-0.01063594366,0.007095806329,-0.03416060328,0.03647493087
2.475926708,-0.0188262574,0.01101337686,-0.01410231471,0.02597301903
2.485904708,-0.01906864047,0.007380721048,-0.0335618484,0.03929994607
2.495881708,-0.02190442814,-0.01182993139,-0.03041896999,0.03930731464
2.505859708,-0.00923720231,-0.002946768282,-0.02053951442,0.02271301395
2.515837708,0.00325037125,-0.0004319904651,-0.00931286037,0.009873241478
2.525814708,0.00459772334,0.003904304663,-0.02278484523,0.02356972268
2.535792708,-0.005693441875,-0.009232168794,-0.03431087673,0.03598450337
2.545770708,0.002515613215,-0.009533757214,-0.01874324977,0.02117853273
2.555748708,-0.003307130355,0.007459375234,-0.01065888941,0.01342353581
2.565725708,0.01380221094,0.009167465698,-0.03610714138,0.03972743526
2.575703708,-0.01848590376,0.005399748338,-0.02443142116,0.03110916682
2.585681708,-0.01494989603,0.009224640504,-0.02847360134,0.03345652936
2.595658708,-0.02593548034,0.01061137165,-0.03071834743,0.04157964908
2.605636708,-0.002760133609,0.01183691151,-0.03326422513,0.03541524368
2.615614708,0.00111053072,-0.004576067515,-0.03221581936,0.03255814321
2.625592708,-0.001695637151,0.01162273896,-0.03550721705,0.03739954156
2.635569708,-0.001961221797,-0.002044743905,-0.01844211817,0.01865848577
2.645547708,-0.008824176466,0.007248838926,-0.02263340235,0.02535118652
2.655525708,0.007122669831,-0.004383145943,-0.02038748682,0.02203619778
2.665502708,-0.01254827325,0.00127388902,-0.01035834253,0.0163210666
2.675480708,-0.01121588581,0.007817389285,-0.01290246606,0.01879843877
2.685458708,-0.002077958831,0.009409037931,-0.01484724998,0.0176999644
2.695436708,-0.00423523537,0.009431668483,-0.02861861229,0.03042890991
2.705413708,-0.02029120876,0.0108074361,-0.02053542137,0.03082592024
2.715391708,-0.01325347259,0.01697121453,-0.03774903953,0.04345879248
2.725369708,-0.01049689641,0.02066239731,-0.02203230858,0.03197721249
2.735346708,0.0005616279185,0.02684482288,0.004910491705,0.02729602297
2.745324708,0.002200394616,0.002676864462,-0.02293219507,0.02319251841
2.755302708,0.006256287202,0.005650338074,-0.02383032739,0.02527749896
2.765280708,-0.0074077924,0.002170943264,-0.01439876854,0.01633746977
2.775257708,0.002474633027,-0.002842459437,-0.02712289453,0.02738347662
2.785235708,-0.01682817815,0.005565507766,-0.03086511254,0.03559238161
2.795213708,-0.009703673646,0.009607697083,-0.01739137352,0.02211173892
2.805190708,-0.01894787948,0.01151445583,-0.02622066915,0.03433843795
2.815168708,-0.01725112599,0.002112443699,-0.03385479391,0.03805536541
2.825146708,-0.01598598952,0.003831369784,-0.02337541401,0.02857693538
2.835124708,-0.002292492259,0.0004458867386,-0.03535051167,0.03542757416
2.845101708,-0.01448375189,0.0008923125174,-0.02502198994,0.0289253396
2.855079708,-0.005961498455,-0.006315303538,-0.02157914937,0.02326117387
2.865057708,-0.007332731624,0.02005182923,-0.01693879902,0.02725376526
2.875034708,0.002444823647,0.002517390791,-0.009453193545,0.01008351562
2.885012708,-0.01016619982,0.003687994229,-0.01289486468,0.01682945202
2.894990708,-0.003669735384,0.01246698554,-0.01050042987,0.0167078339
2.904968708,-0.007375209019,0.006182544334,-0.02217615008,0.02417434994
2.914945708,0.002783716618,0.002610352384,-0.01693646014,0.01736106851
2.924923708,-0.001149773874,0.007809349364,-0.0181339699,0.01977748169
2.934901708,-0.02621505034,0.006456906656,-0.01918179095,0.03311890113
2.944878708,-0.0093360962,0.007125033271,-0.03594634295,0.03781624469
2.954856708,0.002269008037,0.002863993635,-0.01543840349,0.01586490338
2.964834708,-0.003776031369,0.01158248453,-0.00331361711,0.01262507106
2.974812708,-0.005438667155,0.0219730507,-0.003013654947,0.02283585281
2.984789708,0.003364286317,-0.003099645562,-0.01603715837,0.01667683044
2.994767708,-0.02018821097,0.002819901975,-0.02127684832,0.02946557285
3.004745708,-0.005701174589,-0.001025153948,-0.02846249163,0.02904595948
3.014722708,-0.007070448028,0.01109109915,-0.01723759174,0.02168267245
3.024700708,-0.01030548119,0.007750064079,-0.01918354511,0.02311438597
3.034678708,-0.009577725534,0.01482519502,-0.009902844429,0.02023822032
3.044656708,0.0011803901,0.01254409569,-0.02637035787,0.02922573236
3.054633708,-0.002322086936,0.01142397017,-0.018887676,0.02219557359
3.064611708,-0.0005872671597,-0.002530839387,-0.02577394187,0.02590455772
3.074589708,-0.004133919225,0.01399348341,-0.009457286596,0.01738813204
3.084566708,0.01211726265,0.006776904669,0.001022093296,0.01392117688
3.094544708,-0.001801359263,0.0248974077,-0.02442498922,0.03492428817
3.104522708,-0.004222009471,0.01575326691,-0.003318879604,0.01664348955
3.114500708,-0.007462570646,0.007375604734,-0.02038339376,0.02292536253
3.124477708,-0.02196794124,0.008501851559,-0.02487464011,0.03425813251
3.134455708,-0.01120490972,0.004240912423,-0.035503124,0.03747008345
3.144433708,-0.008553345315,0.003876603479,-0.01993491232,0.0220360727
3.154410708,-0.01627166369,-0.0005473176576,-0.02607039571,0.03073649506
3.164388708,0.005038035238,-0.0005635619536,-0.0154413271,0.01625219935
3.174366708,0.00684634321,0.003281612741,-0.02157914937,0.02287577507
3.184344708,-0.01062080028,0.007158846622,-0.01648973286,0.02087969764
3.194321708,0.000453058143,-0.001315742293,-0.0209809792,0.02102707606
3.204299708,-0.003317416658,0.0007587219123,-0.0149940151,0.01537535043
3.214277708,-0.00683582279,0.0129103598,-0.02307662129,0.02731183468
3.224254708,0.001190407454,0.006129115401,-0.01948350728,0.02045947656
3.234232708,-0.008133664837,0.006813796945,-0.02142887592,0.02391194379
3.244210708,-0.007021651186,0.01230962235,-0.02337541401,0.02733569769
3.254188708,-0.01307399276,0.01794367958,-0.01095183492,0.02475575916
3.264165708,-0.01655055989,-0.002476615598,-0.02711704731,0.0318651677
3.274143708,-0.008081697708,0.009168881821,-0.02412210345,0.02704178446
3.284121708,0.009252571808,0.009456711011,-0.02531961322,0.02856785399
3.294098708,-0.006806238391,0.004314633021,-0.02517050922,0.02642906494
3.304076708,0.003055970744,0.0109470201,-0.02442206562,0.02693721395
3.314054708,-0.01067634198,-0.01120332001,-0.01304513812,0.0202404122
3.324032583,-0.02757287888,0.008525258694,-0.02696677387,0.03949874148
3.334009583,-0.009207612772,-0.0004312321544,-0.03070899189,0.03206256816
3.343987583,-0.007663411084,0.002191244066,-0.02741467059,0.02854984384
3.353965583,-0.01286204261,-0.001625882266,-0.01903151751,0.02302768533
3.363942583,-0.01550214042,-0.003227379816,-0.01199731708,0.01986625166
3.373920583,-0.002056529699,8.011599071e-05,-0.01693646014,0.01706104964
3.383898583,-0.004786881909,0.006291466998,-0.02741584003,0.02853287718
3.393876583,0.006204109939,-0.006652916288,-0.01648914814,0.01883200153
3.403853583,-0.02116753051,0.001820320459,-0.02995996356,0.03672842674
3.413831583,-0.01169270455,0.005991194202,-0.03145743549,0.03409081981
3.423809583,-0.01373266105,0.01554304124,-0.02397183001,0.03169890762
3.433786583,-0.003510245154,0.001363753416,-0.01962910295,0.019987079
3.443764583,-0.01858652955,0.005749558015,-0.0238198024,0.03075547894
3.453742583,-0.002858910441,0.0001257242728,-0.02082544327,0.02102113848
3.463720583,-0.009578771638,0.01193674358,-0.01947999895,0.02477315225
3.473697583,-0.007830909829,0.0137350913,-0.02456941545,0.02921698234
3.483675583,-0.01593490519,0.006010124562,-0.009001203775,0.01926303377
3.493653583,0.01007586948,0.008870326644,-0.02142653704,0.02528442861
3.503630583,-0.006904346561,-0.002611823324,-0.02591778338,0.02694852719
3.513608583,-0.01108526335,0.01666178718,-0.02995996356,0.036029122
3.523586583,-0.01361064724,0.01041108624,-0.02561840594,0.0308211479
3.533564583,0.0052079905,-0.0009375462122,-0.03804256976,0.03840884366
3.543541583,-0.001073891404,0.005645696847,-0.03280171037,0.03330134139
3.553519583,0.001282055136,-0.004743800377,-0.01873155534,0.01936539369
3.563497583,-0.02258528159,0.009937735861,-0.01888241351,0.03107087186
3.573474583,-0.01382671214,0.008837098014,-0.01903268695,0.025129971
3.583452583,-0.01610863373,0.0001804048754,-0.02202646136,0.02728892865
3.593430583,-0.001577149378,0.0125548765,-0.005710975528,0.01388263539
3.603408583,0.008173147247,-0.002531351019,-0.02502198994,0.02644443334
3.613385583,0.00278181456,0.005244870214,-0.02187969625,0.02267086817
3.623363583,-0.01164370671,0.006560977958,-0.01754047751,0.02205199966
3.633341583,-0.002955842316,0.001464535659,-0.03011316061,0.03029330471
3.643318583,-0.007410108445,0.006350989826,-0.02562249899,0.02741819165
3.653296583,-0.006829244101,-0.005418413747,-0.02233051658,0.02397185335
3.663274583,0.006716477349,0.0001782852598,-0.02816779196,0.02895802752
3.673252583,-0.002654742686,0.01037547304,-0.02367654562,0.02598609074
3.683229583,-0.01936014245,0.006078920709,-0.02442615867,0.031755403
3.693207583,-0.01408098836,0.002445406085,-0.02891740501,0.03225632584
3.703185583,-0.00393618455,0.008503733631,-0.02547514915,0.02714388069
3.713162583,0.004597739329,-0.0007869986817,-0.00736281395,0.008716054332
3.723140583,0.0001975268248,-0.007507340675,-0.01305215478,0.0150584835
3.733118583,-0.009486822459,-0.005021259896,-0.01739254296,0.02043803811
3.743096583,-0.0008255417686,0.01119955586,-0.006913747787,0.01318755016
3.753073583,-0.009875140961,0.01345681865,-0.01484549582,0.02233815398
3.763051583,-0.007302057153,0.002358986065,-0.03235907614,0.03325649805
3.773029583,-0.005507182361,0.01260883533,-0.01828775167,0.02288566467
3.783006583,-0.007014475213,0.005968253016,-0.007061682343,0.01160561347
3.792984583,0.004250519215,0.006787356567,-0.03625215232,0.03712618578
3.802962583,-0.001356148609,0.007844405249,-0.0155933547,0.01750789946
3.812940583,-0.01202123127,0.01156061229,-0.02651946187,0.03132793667
3.822917583,-0.01839581096,-0.001664254619,-0.02202821553,0.02874748482
3.832895583,-0.01091316792,0.007776047643,-0.02202763081,0.02578334094
3.842873583,0.00897002681,0.008660311103,-0.01768724263,0.02164026158
3.852850583,-0.000459915488,-0.0006927488744,-0.01379592061,0.01382095687
3.862828583,0.005154507891,-0.00226529357,-0.01963436544,0.02042569002
3.872806583,0.007284437277,0.01407231119,-0.01798778951,0.02397193234
3.882783583,-0.004112419859,3.480920568e-05,-0.03086043477,0.03113325622
3.892761583,-0.006408909238,0.009237321652,-0.02577043355,0.02811614259
3.902739583,-0.01231743158,0.02155428043,-0.0256201601,0.03567490335
3.912717583,-0.0188801991,0.01302103663,-0.02756611347,0.0358594468
3.922694583,-0.002815429198,-0.001788891675,-0.01289486468,0.01331932093
3.932672583,-0.01769542073,0.001388649764,-0.02382214129,0.02970775452
3.942650583,-0.01504388317,0.01866719943,-0.02277490497,0.03306779478
3.952628583,-0.01846864534,0.007817919189,-0.02801225603,0.03445137456
3.962605583,0.008121245785,0.01063201049,-0.02906183124,0.03199350426
3.972583583,-0.00669028879,0.002431582902,-0.02427120745,0.02529355789
3.982561583,-0.01750121323,0.001508691274,-0.02142712176,0.02770722218
3.992538583,-0.009748059951,0.0003089979384,-0.01484081805,0.01775866078
4.002516583,-0.001496701055,-0.002468676176,-0.02442031145,0.02459036574
4.012494583,-0.001336048234,0.001666566096,-0.02187618792,0.02198021987
4.022471583,0.003644679722,0.01508176901,-0.01753579974,0.02341469025
4.032449583,-0.01266966465,0.007668066015,-0.01648680925,0.02216155496
4.042427583,-0.008522017029,-0.008234304897,-0.02352276385,0.02633911484
4.052405583,-0.01439300812,0.005877712537,-0.01244521379,0.01991455583
4.062382583,0.006884387798,0.007357122051,-0.008553307056,0.01321669784
4.072360583,0.006299989429,0.004599593421,-0.01648739398,0.01823952539
4.082338583,0.01673208853,-0.002342157047,-0.007506655455,0.01848778955
4.092315583,0.00993388949,0.01151821998,-0.02217673481,0.026891618
4.102293583,-0.003339118165,0.002161478084,-0.0292126894,0.02948224753
4.112271583,0.001207258741,0.009022564385,-0.03130891621,0.03260540409
4.122249583,-0.00693057966,0.01213696503,-0.01753930807,0.02242690755
4.132226583,-0.02319579029,0.02378280963,-0.02906533957,0.04414137158
4.142204583,-0.03818545652,0.01153332224,-0.005564210415,0.04027539012
4.152182583,-0.02359163994,0.01476034574,-0.01424381733,0.03126211147
4.162160583,-0.02808338192,0.00127141309,-0.02906183124,0.0404336848
4.172137583,-0.006728578916,-0.002667856095,0.001474667788,0.007386871832
4.182115583,0.0187698272,-0.005132411812,-0.03295315325,0.0382695489
4.192093583,0.02218844522,-0.0007125563174,-0.01663766742,0.02774250917
4.202070583,0.01919425054,-0.02056591826,-0.02846249163,0.04001861664
4.212048583,0.02544822227,-0.01533449664,-0.05615665913,0.06353211131
4.222026583,0.02428599451,0.01080430236,0.002072253227,0.02666152119
4.232003583,0.01787045691,0.01795311735,-0.0413380605,0.0484819853
4.241981583,-0.02289430694,0.003184101284,-0.01394619405,0.02699600192
4.251959583,-0.03042137283,0.01897638923,-0.02217790425,0.04215949134
4.261937583,-0.04134536038,0.02923683657,-0.01813747823,0.05378847046
4.271914583,-0.03420473149,0.01046594957,0.0005736118555,0.03577469479
4.281892583,-0.03791948358,0.009832951929,-0.04807580709,0.06201497728
4.291870583,-0.03729118884,0.006814719709,-0.007658683062,0.03867465056
4.301847583,0.01313586361,-0.001910632532,-0.04163685322,0.04370159008
4.311825583,0.02714969807,0.008482683655,-0.01993140399,0.03473215934
4.321803583,0.02282708223,-0.004365147483,-0.02741467059,0.03594014968
4.331778208,0.02020475447,-0.01594092599,-0.02262521625,0.03426726769
4.341755208,0.008581240645,-0.01025081771,-0.009452024102,0.01637246818
4.351733208,-0.007189051717,0.003883035416,-0.02352393329,0.0249025273
4.361711208,-0.01652888865,0.008785350155,-0.008704749942,0.02064362393
4.371688208,-0.03348020894,0.02512660942,-0.02891272724,0.05087451904
4.381666208,-0.04254276965,0.01220343143,-0.006609692574,0.04474929076
4.391644208,-0.01195551405,0.02148214954,-0.02412151873,0.03444219405
4.401622208,-0.01173321707,0.02226691897,-0.02472027361,0.03527854859
4.411599208,-0.004939241848,-0.003428268218,-0.02232466936,0.023120121
4.421577208,0.02234669235,-0.003050419316,-0.03774260759,0.04396799
4.431555208,0.04671214961,-0.00517444781,-0.0563051784,0.0733421635
4.441532208,0.03316548484,-0.02610190672,0.07003385603,0.08176796384
4.451510208,0.03221977537,0.0135714058,-0.1607873207,0.1645443997
4.461488208,0.006321082232,0.01108605593,0.1056562632,0.106424164
4.471466208,-0.02416686663,0.01378080921,-0.06019357681,0.06631149851
4.481443208,-0.01630853085,0.03394698805,-0.01933147967,0.04233287472
4.491421208,-0.0626946959,0.01444700807,0.03800105453,0.07472229307
4.501399208,-0.008107387199,0.03829780072,-0.08219781876,0.0910435757
4.511376208,-0.0515918475,0.01100841586,-0.01948233783,0.05623580208
4.521354208,0.01064503083,-0.006725988211,0.08889521956,0.08978260221
4.531332208,0.03236091253,0.003452753434,-0.1940158778,0.1967264878
4.541310208,0.01685698825,-0.03657706565,0.1309571654,0.1370102877
4.551287208,0.02168885318,-0.004437342323,-0.1371306556,0.1389061305
4.561265208,0.04398999664,0.00494633331,0.0230333519,0.04990111539
4.571243208,-0.004637819594,0.002597059105,0.006868724227,0.008685243755
4.581220208,-0.01982173216,0.01305767309,-0.1025543153,0.1052653385
4.591198208,-0.05654565428,0.01372131379,-0.0598977077,0.08350701083
4.601176208,-0.02076177714,0.0221878902,0.1743680638,0.176995976
4.611154208,-0.03508288735,0.04620716488,-0.2904165834,0.2961548632
4.621131208,-0.00810743859,-0.03045776261,0.2547468138,0.2566891992
4.631109208,0.004557957135,-0.004904845487,-0.2405661464,0.2406593095
4.641087208,0.0473200499,0.004375626789,0.1466692185,0.1541758506
4.651064208,-0.01990600058,-0.009035218125,-0.1350350136,0.1367930514
4.661042208,0.07094175504,0.03379716229,-0.01199848652,0.07949178866
4.671020208,-0.08325354268,-0.04522845975,0.03740463853,0.1018620289
4.680998208,0.03768807317,0.06125926841,-0.1495577431,0.1659536301
4.690975208,-0.08057742739,0.001018621512,0.1489127952,0.1693185754
4.700953208,-0.006542486139,0.01973504718,-0.159285171,0.1606363655
4.710931208,-0.07780743688,0.04690156742,-0.02382915795,0.09392328268
4.720908208,-0.04431996232,-0.009363904735,0.09952955067,0.1093529754
4.730886208,0.01823211976,0.07050399045,-0.262254054,0.2721771696
4.740864208,0.03543924774,-0.06774717445,0.2688894743,0.279548152
4.750842208,0.2090072251,0.02074783975,-0.3129014665,0.3768578256
4.760819208,-0.08991227877,-0.01224771495,0.223058998,0.2408101762
4.770797208,0.2116173674,0.1068800672,-0.3543588102,0.4263512933
4.780775208,0.0191229305,0.09442224534,-0.3065081209,0.3212918845
4.790752208,0.0941983518,0.260491557,-0.8786915016,0.9213185854
4.800730208,-0.02124735642,0.3374959519,-0.8722502089,0.9355080943
4.810708208,0.09708277415,0.3727180441,-0.7149700481,0.8121120459
4.820686208,-0.02875608581,0.32290079,-0.3158051938,0.4525756877
4.830663208,-0.3577946341,-0.5292370436,3.756087613,3.810026641
4.840641208,0.291769556,-0.7306309381,-0.05403762817,0.7885880463
4.850619208,-0.03426261893,0.3551985434,-0.1473755622,0.3860822304
4.860596208,0.2433001948,0.1325005014,0.7950944442,0.8419777567
4.870574208,0.2614427345,-0.01528992075,0.4444456923,0.5158663184
4.880552208,0.09534897421,0.2582902995,0.9258071959,0.9658800493
4.890530208,0.1232531298,0.8869376837,1.204381413,1.500794582
4.900507208,-0.04834163614,1.344831387,0.4776578772,1.42795848
4.910485208,0.2296856475,1.441922503,-0.05150286019,1.461009427
4.920463208,0.5724991304,0.522392366,-2.046056532,2.187920558
4.930440208,-1.14556756,-1.827098917,-1.964219486,2.916980233
4.940418208,-1.172867041,-2.349657709,-0.1441911685,2.630075957
4.950396208,0.7165078658,-1.425916919,0.6900170553,1.738604647
4.960374208,0.4339815883,-1.183753168,0.8815724248,1.538434763
4.970351208,0.8426994042,-0.9109663779,2.119832021,2.456357023
4.980329208,1.68171594,-0.9249513097,4.259268002,4.671730658
4.990307208,2.768240582,-1.055015094,5.892640332,6.595409225
5.000284208,3.132361611,-1.438272817,7.155872217,7.94272152
5.010262208,2.772696453,-2.279753077,7.850846542,8.632549515
5.020240208,1.420482663,-3.03184505,7.701642555,8.397925545
5.030218208,-0.004433505088,-3.133846804,6.765553615,7.456120383
5.040195208,-1.342380381,-2.585355464,5.620486357,6.330554072
5.050173208,-1.998158772,-1.973435575,5.243606411,5.94831864
5.060151208,-0.9464057672,-1.589760872,6.81175422,7.058542276
5.070128208,1.818581716,-1.466327319,10.09000679,10.35691036
5.080106208,5.098031791,-1.293171091,13.03786301,14.0587372
5.090084208,7.912955081,-2.034695392,14.39652321,16.55339011
5.100062208,7.778721136,-4.187377947,13.15772509,15.84829221
5.110039208,4.261777627,-5.301188622,9.44649556,11.64051664
5.120017208,0.6129066065,-4.383744698,6.295640375,7.695970362
5.129995208,-0.5539684269,-3.620561433,5.204649922,6.364253838
5.139972208,1.548566068,-3.722222294,6.094921834,7.307603426
5.149950208,4.376559055,-4.100405585,7.096742833,9.291466728
5.159928208,6.393363136,-4.198944032,7.111385431,10.4440426
5.169906208,7.065411113,-4.118732513,6.296735559,10.32147617
5.179883208,6.663137294,-4.550531262,4.756262037,9.366256559
5.189861208,5.988561566,-5.733779084,3.064998178,8.839304613
5.199839208,5.500082831,-6.549163951,1.58876743,8.698657457
5.209816208,4.786340114,-6.533025051,0.407327275,8.108969325
5.219794208,4.42767366,-6.428575653,-0.1323835936,7.806945906
5.229772208,5.126772611,-6.521441132,-0.1115482101,8.296109621
5.239749208,6.024156491,-6.691651826,-0.1607250479,9.005248366
5.249727208,6.041788185,-6.593958886,-0.4837211475,8.956421406
5.259705208,5.277767599,-6.703262057,-0.6551543476,8.55673888
5.269683208,4.253452361,-7.265185329,-0.6723948629,8.445524833
5.279660208,3.850876241,-7.380582469,-0.6432597953,8.34961248
5.289638208,2.82235744,-7.514318231,-1.056100118,8.096050114
5.299616208,1.680547666,-7.645337377,-1.875324851,8.049364407
5.309593208,1.209398909,-7.322441849,-2.702951449,7.898528147
5.319571208,1.268487947,-6.738353537,-3.545010145,7.718909702
5.329548875,0.5328415596,-6.215556909,-4.34187688,7.600589626
5.339526875,-1.51918264,-6.377667455,-4.741283809,8.090879447
5.349503875,-2.445134262,-6.337946734,-5.250285101,8.585670854
5.359481875,-2.758859602,-5.766047528,-5.79339671,8.626821885
5.369459875,-3.336884351,-5.196354477,-6.14135048,8.709367528
5.379436875,-4.372356076,-4.77210916,-6.297774024,9.030641237
5.389414875,-6.058278503,-4.713603675,-6.032869427,9.7630073
5.399392875,-7.891057844,-4.902554402,-5.546772848,10.81991324
5.409370875,-9.611648412,-5.279067435,-5.115861121,12.10059392
5.419347875,-11.31789284,-5.582064303,-5.145665549,13.62835332
5.429325875,-12.80344229,-5.860014038,-5.760336553,15.21346036
5.439303875,-13.95537886,-6.005946507,-7.061872963,16.75392618
5.449280875,-14.74167968,-5.938418183,-8.397500979,17.9749813
5.459258875,-15.09382707,-5.717851853,-9.311403828,18.63383178
5.469236875,-15.23205057,-5.8712442,-9.24920758,18.76258814
5.479214875,-15.0395076,-6.084013853,-9.290021145,18.69509311
5.489191875,-14.61301053,-6.642459201,-8.530370768,18.1777217
5.499169875,-14.89802487,-7.658404149,-6.857059032,18.10031927
5.509147875,-15.16179276,-8.480181193,-5.128298149,18.11333417
5.519124875,-15.02403938,-9.379362507,-3.388264127,18.03259643
5.529102875,-14.71060757,-10.4186741,-1.42134235,18.08233832
5.539080875,-14.03828536,-11.38482825,0.4711049026,18.08064462
5.549058875,-12.92728866,-12.99395393,2.349918787,18.47917068
5.559035875,-11.35505423,-14.93865132,4.727929938,19.35081087
5.569013875,-9.649657068,-16.38675872,7.512639495,20.44704123
5.578991875,-8.135829307,-16.918432,9.357320259,20.97580755
5.588968875,-6.939689544,-16.33500735,9.346956654,20.05884729
5.598946875,-6.118100781,-16.01573417,8.500835313,19.1363293
5.608924875,-5.196255659,-16.16570824,7.869252992,18.71513661
5.618902875,-4.17704504,-16.45874964,7.206280478,18.44637154
5.628879875,-2.840215421,-16.73632866,6.417151363,18.1480399
5.638857875,-1.039015138,-17.0070524,5.515134734,17.90910648
5.648835875,1.43833699,-17.35789704,4.858899382,18.08243087
5.658812875,5.462501022,-17.37230224,4.803119576,18.83363375
5.668790875,10.2833859,-16.9739326,4.829281189,20.42509169
5.678768875,13.87083514,-16.27943775,4.259108373,21.807342
5.688746875,15.29666932,-14.96485152,2.595268833,21.55621242
5.698723875,15.38401269,-13.66835775,0.6900383976,20.59048331
5.708701875,16.69936256,-12.49206636,0.08570044711,20.85492212
5.718679875,19.38964777,-11.2572537,0.3459600158,22.42328901
5.728656875,21.50736193,-9.87169865,0.5305124675,23.67062515
5.738634875,21.94318766,-8.721113375,0.4241111228,23.61654448
5.748612875,20.53705158,-7.937163724,0.2163969728,22.01853499
5.758590875,17.93928335,-7.30905231,-0.1291989076,19.37154679
5.768567875,15.14104217,-6.497040117,-0.3088370669,16.47901904
5.778545875,12.36372232,-5.629006335,-0.205202917,13.58637001
5.788523875,10.00442928,-4.68547389,-0.4329737476,11.05575583
5.798500875,8.372217618,-3.506398641,-1.006077041,9.132417549
5.808478875,7.19125138,-2.598007962,-1.444659,7.78143826
5.818456875,6.161445606,-1.976486945,-1.754580871,6.704361762
5.828434875,5.193036182,-1.335312851,-1.773974185,5.647802193
5.838411875,4.47976475,-0.6303555751,-1.274525636,4.700005953
5.848389875,3.994262248,-0.001518521905,-0.4047945535,4.014721889
5.858367875,3.639724513,0.4031432998,0.6867874919,3.725828245
5.868344875,3.778521041,0.706586895,1.738228694,4.218758738
5.878322875,4.408814051,0.683623125,2.58636557,5.156963135
5.888300875,4.769960309,0.205935427,3.020418714,5.649589362
5.898278875,5.312367328,-1.044350138,3.060045587,6.21898648
5.908255875,5.386492481,-1.77474631,2.983040096,6.408007017
5.918233875,5.21295823,-1.800157725,3.003617909,6.279906201
5.928211875,4.784812236,-1.280551922,3.159564905,5.875124829
5.938188875,4.551619429,-0.5981637293,3.777068592,5.944853777
5.948166875,4.215323545,-0.7736316544,4.567997188,6.263709511
5.958144875,3.724846525,-1.446331011,4.761866593,6.216247137
5.968121875,3.611898199,-1.827182971,4.239423429,5.861494453
5.978099875,3.448681068,-2.116775681,3.47985579,5.336996975
5.988077875,3.100420903,-2.497310722,2.98412797,4.975358315
5.998055875,2.90860504,-3.124100665,2.877249931,5.147674758
6.008032875,2.617940827,-3.516914274,3.074771507,5.355046219
6.018010875,2.064749788,-3.668793361,3.305585375,5.352581721
6.027988875,1.501257708,-4.083543969,3.327847479,5.477561035
6.037965875,0.9919346733,-4.563676972,2.886809252,5.490423441
6.047943875,0.555725369,-4.60776147,2.345514665,5.200166872
6.057921875,0.01735702112,-4.55333968,2.229577827,5.069933017
6.067899875,-0.614350284,-4.395098237,2.256458062,4.978545748
6.077876875,-1.175966869,-3.959707543,2.004872838,4.591480915
6.087854875,-1.320859996,-3.426458432,1.553342659,3.987249921
6.097832875,-0.7546194327,-3.259521595,1.153951517,3.539143345
6.107809875,0.3581925371,-3.659422613,1.1598268,3.855499185
6.117787875,0.8967228529,-4.228231566,1.141791648,4.470541602
6.127765875,0.3265886289,-4.27585129,0.4873701024,4.315911724
6.137743875,-0.7968065089,-3.822069349,-0.3556340879,3.920406908
6.147720875,-1.8601753,-3.624341658,-0.902563929,4.172616236
6.157698875,-2.744034571,-3.677884027,-0.9292050129,4.681877679
6.167676875,-3.3498219,-3.610893647,-0.6568534023,4.96903573
6.177653875,-3.462514118,-3.310089485,-0.2673914176,4.797623848
6.187631875,-3.426934395,-3.024322023,-0.05802192092,4.570970312
6.197609875,-3.542338552,-2.937986714,-0.3201713097,4.613289284
6.207587875,-4.214378927,-2.913204753,-1.120907732,5.244443328
6.217564875,-5.113314659,-2.679064988,-2.101045502,6.143107375
6.227542875,-5.871254141,-2.474438461,-2.780023014,6.95147458
6.237520875,-6.68896503,-2.479696277,-3.1266214,7.788896467
6.247497875,-7.101177362,-2.412190465,-3.11049127,8.119146427
6.257475875,-7.165079827,-2.250458234,-2.813179066,8.019782269
6.267453875,-6.953281982,-2.270525001,-2.362082165,7.686536688
6.277431875,-7.014380123,-2.515849904,-2.210635772,7.772897771
6.287408875,-7.676874919,-2.763965683,-2.616169413,8.568445437
6.297386875,-8.666648315,-2.897466679,-3.432188703,9.761456114
6.307364875,-9.77281814,-2.92342744,-4.344515144,11.08734478
6.317341875,-11.04348418,-3.39630551,-5.025713428,12.59965195
6.32732,-11.93939222,-3.772381172,-5.528165839,13.68724091
6.337298,-12.29169515,-3.892317505,-5.891177943,14.17539709
6.347276,-12.2012282,-4.045000877,-6.084574016,14.22160478
6.357253,-11.76655554,-4.39531166,-6.038735354,13.93689056
6.367231,-11.39410194,-4.771227985,-5.742647556,13.62234108
6.377209,-11.33192732,-5.158110178,-5.220514587,13.50083146
6.387186,-11.42946122,-5.503565433,-4.519892437,13.4666716
6.397164,-11.34708798,-5.832711634,-3.595804907,13.25544204
6.407142,-11.0455459,-6.20612652,-2.436650537,12.90183539
6.41712,-10.62400609,-6.566863473,-1.171053454,12.54450348
6.427097,-9.959675857,-7.042427462,0.1049282849,12.19843997
6.437075,-9.072688326,-7.646975182,1.323210284,11.9390447
6.447053,-8.238271356,-8.208541773,2.240822023,11.84358714
6.45703,-7.435094306,-8.655467269,2.753930984,11.73805252
6.467008,-6.641728299,-9.096743771,3.063438434,11.67253002
6.476986,-6.186133136,-9.537361876,3.607826782,11.92668977
6.486964,-6.195369397,-9.9711364,4.619219674,12.61520327
6.496941,-6.359780238,-10.43677708,5.582741411,13.43652195
6.506919,-6.142188386,-10.94870783,6.172222025,13.9891746
6.516897,-5.446750377,-11.36991785,6.368619474,14.12449771
6.526874,-4.60492557,-11.72349314,6.404402679,14.13018063
6.536852,-3.943824751,-12.07880738,6.37072681,14.21398964
6.54683,-3.598797804,-12.60413176,6.0274666,14.42726019
6.556808,-3.426889372,-13.06516717,5.314510918,14.51503325
6.566785,-3.394701912,-13.45782992,4.623405111,14.62918529
6.576763,-3.311714426,-13.82380013,4.285608539,14.84693043
6.586741,-2.339923557,-13.97778773,4.925932447,15.0039529
6.596718,0.2603671575,-14.18350213,6.458699339,15.58699204
6.606696,4.360906059,-14.01684713,8.499713232,16.96274241
6.616674,9.132426404,-13.43286114,10.46110851,19.32039756
6.626652,13.67176668,-12.82157334,11.20092864,21.83508071
6.636629,16.62322596,-12.19229248,9.820320336,22.83467383
6.646607,17.76795291,-11.33830079,6.969008068,22.19964615
6.656585,18.30503955,-9.971993601,3.863977513,21.20012858
6.666562,18.89223215,-8.422965018,1.117203521,20.71499262
6.67654,19.19650254,-7.329863135,-1.044763536,20.57484227
6.686518,18.752893,-6.479440582,-2.648700982,20.01673707
6.696496,17.5788984,-5.735999272,-3.513302448,18.82186629
6.706473,15.76915943,-5.193346669,-3.701420825,17.00993106
6.716451,13.56445624,-4.724166085,-3.533102875,14.79172181
6.726429,11.36988394,-4.274025205,-3.402216461,12.61414401
6.736406,9.488804843,-3.896414357,-3.429247554,10.81569235
6.746384,8.015687152,-3.486391223,-3.660963939,9.476751619
6.756362,6.903973582,-2.984759762,-3.898724007,8.471935489
6.76634,6.00498581,-2.522395277,-4.008570385,7.647938875
6.776317,5.271176033,-2.135799598,-3.87015802,6.879321172
6.786295,4.724655497,-1.769807167,-3.524860055,6.154610092
6.796273,4.268528822,-1.438913818,-3.065665346,5.448771907
6.80625,3.892938772,-1.215913292,-2.444054866,4.754663143
6.816228,3.706182797,-1.049546558,-1.634155272,4.184232589
6.826206,3.559361551,-1.001770713,-0.671659137,3.758154495
6.836183,3.49284421,-1.017365237,0.3976556879,3.659661562
6.846161,3.452613612,-1.06250048,1.410214514,3.87790575
6.856139,3.377487416,-1.160167108,2.196915573,4.192832813
6.866117,3.212414379,-1.273453987,2.576529969,4.310428967
6.876094,3.096286922,-1.295766377,2.525597797,4.20055323
6.886072,3.032367499,-1.382904509,2.291615031,4.044647943
6.89605,2.927974819,-1.566900013,1.909759981,3.830847867
6.906027,2.81970602,-1.72589984,1.499435716,3.630121178
6.916005,2.757596603,-1.806626499,1.223315867,3.516353231
6.925983,2.671386133,-1.878516846,1.210653722,3.482931502
6.935961,2.564662168,-1.972390385,1.385098676,3.519419584
6.945938,2.345376232,-2.08968904,1.67524658,3.560061945
6.955916,2.057464596,-2.257909926,1.957744572,3.628233951
6.965894,1.677621427,-2.450880321,2.190078716,3.690213108
6.975871,1.216757045,-2.62384096,2.337680565,3.718842497
6.985849,0.7971678668,-2.741585172,2.341626851,3.692557674
6.995827,0.5382376626,-2.78018966,2.194274093,3.582456297
7.005805,0.5322646953,-2.683791878,1.96689985,3.369679446
7.015782,1.042271453,-2.544390748,1.839109536,3.307956763
7.02576,1.740134156,-2.506190304,1.738567833,3.511648449
7.035738,2.088115261,-2.735354379,1.701497947,3.838943109
7.045715,1.989429026,-3.106468971,1.715012032,4.068076153
7.055693,1.733310747,-3.084310362,1.544956582,3.860599357
7.065671,1.281584833,-2.949480001,1.415496889,3.513619701
7.075649,0.6027235343,-2.992759922,1.398207549,3.357807612
7.085626,-0.123077019,-3.187425426,1.717274027,3.622686694
7.095604,-0.6266541414,-3.307669907,2.1426309,3.990519114
7.105582,-0.8484268981,-3.210016728,2.282938932,4.029372875
7.115559,-1.007983965,-2.941157075,2.057992161,3.728507522
7.125537,-1.321238018,-2.700907847,1.553263137,3.384257595
7.135515,-1.83002998,-2.681809087,0.9341523421,3.378424234
7.145493,-2.305580813,-2.492523606,0.3651027766,3.414919743
7.15547,-2.69480657,-2.096241429,-0.1245877934,3.416391766
7.165448,-3.111778535,-1.743517501,-0.5059116232,3.602633134
7.175426,-3.755565457,-1.584011305,-0.7445768398,4.143399375
7.185403,-4.363698689,-1.480063013,-0.8555809665,4.686626885
7.195381,-4.849342693,-1.192926133,-1.033386024,5.099714108
7.205359,-5.145961418,-0.9454386377,-1.244205337,5.377994055
7.215337,-5.12529268,-0.7296699482,-1.483725709,5.385395554
7.225314,-4.966355419,-0.6709791058,-1.51509339,5.235494923
7.235292,-4.817315154,-0.7287794173,-1.273899545,5.035917472
7.24527,-4.642022061,-0.6860573208,-1.020624475,4.802157617
7.255247,-4.603925697,-0.5997085637,-0.9126170468,4.731664829
7.265225,-4.795151283,-0.5478583789,-0.9846085507,4.925756656
7.275203,-5.055910204,-0.5669857907,-1.201181817,5.227479186
7.28518,-5.278051774,-0.5109384745,-1.50058791,5.510957515
7.295158,-5.401894047,-0.401597296,-1.673670171,5.669471891
7.305136,-5.489936158,-0.411009559,-1.681354582,5.756325313
7.315114,-5.657206287,-0.4516319203,-1.606539457,5.898213576
7.325091,-5.938524018,-0.4079654986,-1.54590003,6.149984574
7.335068833,-6.336407747,-0.4203528249,-1.571016453,6.54177746
7.345046833,-6.943778502,-0.5851244384,-1.746559222,7.183933436
7.355023833,-7.765754351,-0.7320953733,-2.018231387,8.057056671
7.365001833,-8.533030667,-0.9100173748,-2.27086297,8.87679912
7.374979833,-9.12128512,-1.098995876,-2.467320353,9.512796849
7.384957833,-9.43357906,-1.322400445,-2.49102438,9.846134231
7.394934833,-9.413264664,-1.651292877,-2.276016414,9.824284733
7.404912833,-9.200074596,-1.906274164,-2.092752981,9.625739909
7.414890833,-8.984348007,-2.216642032,-2.094688994,9.487872943
7.424867833,-8.702263706,-2.577492421,-2.182944528,9.334779461
7.434845833,-8.431558086,-2.906404148,-2.287279905,9.207062843
7.444823833,-8.10417599,-3.230455086,-2.244164583,9.008317447
7.454801833,-7.682676526,-3.565216368,-1.978583171,8.697647827
7.464778833,-7.363974037,-3.885030413,-1.520714026,8.463695769
7.474756833,-7.117561845,-4.205046771,-0.8144873196,8.30695459
7.484734833,-6.943104318,-4.515880077,0.05374585211,8.282678254
7.494711833,-6.821809677,-4.817792287,0.9643768921,8.407034708
7.504689833,-6.628401909,-5.159204192,1.819755545,8.594452281
7.514667833,-6.309307657,-5.544206505,2.555315101,8.779249635
7.524645833,-5.936950532,-5.976418653,3.196536265,9.010150145
7.534622833,-5.623241565,-6.457517617,3.630126601,9.300440775
7.544600833,-5.251509508,-6.89405495,3.757671916,9.445975015
7.554578833,-4.685113994,-7.329553818,3.708443038,9.456489944
7.564555833,-4.077941751,-7.806428168,3.544553185,9.493881553
7.574533833,-3.491011985,-8.146760677,3.411750346,9.497205622
7.584511833,-3.028027696,-8.305088074,3.484109055,9.501708033
7.594489833,-2.617514273,-8.476560597,3.835599221,9.665158142
7.604466833,-2.375883056,-8.587593375,4.36425856,9.921609398
7.614444833,-2.161685806,-8.637511055,4.977781463,10.20087207
7.624422833,-1.681574729,-8.633916187,5.578289341,10.41582998
7.634399833,-0.7389395392,-8.400569013,5.900739895,10.29244007
7.644377833,0.5211377728,-8.124067048,5.767364906,9.976700253
7.654355833,1.971306019,-7.675221326,5.260638181,9.511539513
7.664333833,3.490029068,-7.21870815,4.498926953,9.194041222
7.674310833,4.826120184,-6.889459038,3.645370877,9.167595688
7.684288833,5.958663583,-6.289721823,2.87209181,9.12771514
7.694266833,6.951917827,-5.455357479,2.505603243,9.185212807
7.704243833,7.781455879,-4.712057671,2.615038562,9.465356294
7.714221833,8.786321524,-4.125587788,2.996288717,10.15862523
7.724199833,10.04082702,-3.59244919,3.24597652,11.14720871
7.734177833,11.27460122,-3.021631134,3.171575378,12.09569253
7.744154833,12.14631816,-2.604895982,2.890782727,12.75441699
7.754132833,12.61305929,-2.236077592,2.433743155,13.03888083
7.764110833,12.63512317,-1.822556654,1.961760586,12.91574833
7.774087833,12.38906766,-1.375311899,1.682644916,12.5782262
7.784065833,11.98346151,-0.9877321333,1.644001983,12.1359675
7.794043833,11.36790407,-0.7267317224,1.722676124,11.52063345
7.804021833,10.63381421,-0.6493964481,1.706250272,10.78939342
7.813998833,9.972278945,-0.5329450554,1.476370351,10.09505063
7.823976833,9.429295975,-0.4264415306,1.18578259,9.513125423
7.833954833,8.985489968,-0.3513094872,1.074835181,9.056363453
7.843931833,8.611286293,-0.221582576,1.133755088,8.68842627
7.853909833,8.148862166,-0.1238159609,1.393838071,8.268135798
7.863887833,7.567572917,-0.1017620176,1.812569171,7.782282593
7.873865833,6.886872815,-0.1766262585,2.246531829,7.246179632
7.883842833,6.232396891,-0.306608693,2.531126339,6.73374936
7.893820833,5.565234262,-0.4784788263,2.642247703,6.17917853
7.903798833,4.964386661,-0.693106724,2.551452138,5.62453908
7.913775833,4.42921791,-0.7666325372,2.225841164,5.015981023
7.923753833,3.914674042,-0.7906967533,1.769685837,4.368256194
7.933731833,3.506576396,-0.8011363721,1.356243837,3.844124719
7.943709833,3.137249299,-0.8939837247,1.130462375,3.452460752
7.953686833,2.795281323,-1.060865598,1.067341682,3.174626239
7.963664833,2.497518006,-1.309161764,1.199626165,3.064409184
7.973642833,2.273222029,-1.55659605,1.582816426,3.177394765
7.983619833,2.080926695,-1.713410187,2.074393601,3.401343733
7.993597833,1.994579107,-1.805897352,2.598867795,3.740818743
8.003575833,1.853250443,-1.90786753,2.971395366,3.987942594
8.013553833,1.694687403,-2.179751363,3.044205187,4.109801287
8.023530833,1.318280789,-2.655393705,2.748042545,4.042365372
8.033508833,0.6486990215,-3.423550027,2.157669353,4.098419482
8.043486833,0.8152170521,-3.561679972,1.439274884,3.92704154
8.053463833,1.388398845,-3.216483749,1.161181599,3.690767097
8.063441833,1.79020474,-2.770201446,0.8422469759,3.404148797
8.073419833,1.601323595,-2.939847298,0.8822571337,3.461981664
8.083397833,1.375429136,-3.419869789,1.234722031,3.88739671
8.093374833,1.240976797,-3.596749232,1.67763663,4.158256018
8.103352833,1.027771527,-3.524885198,2.021920687,4.191574076
8.113330833,0.7292064102,-3.378589616,2.280142209,4.140731611
8.123307833,0.3911709065,-3.388125256,2.2881833,4.10709024
8.133285833,-0.05252524585,-3.619094952,2.026326272,4.148084538
8.143263833,-0.7003701353,-3.766790357,1.417705967,4.08523171
8.153240833,-1.456972797,-3.645655929,0.5705332965,3.967251583
8.163218833,-2.030145819,-3.418591003,-0.1768490374,3.979890963
8.173196833,-2.149230944,-3.074901023,-0.9596643287,3.872359174
8.183174833,-1.953486045,-2.634235556,-2.077854567,3.882368387
8.193151833,-2.308339237,-2.409645756,-2.326489287,4.067846495
8.203129833,-2.293056369,-2.321760936,-1.976972848,3.815377176
8.213107833,-1.938173649,-2.189898621,-1.176650116,3.152249762
8.223085833,-1.475808872,-2.065885025,-0.09684100091,2.540722523
8.233062833,-1.179694761,-2.141698853,0.7709425199,2.563767945
8.243040833,-1.248203956,-2.175567681,1.090434091,2.734987085
8.253018833,-1.728756205,-2.00808062,1.104150782,2.870563488
8.262995833,-2.395763882,-1.752828607,1.00417275,3.133760618
8.272973833,-2.928970308,-1.443485756,0.9616994521,3.404024681
8.282951833,-3.180097695,-1.092074527,0.994027538,3.506242842
8.292928833,-3.057503217,-0.8001686579,1.115367788,3.351513256
8.302906833,-2.70939625,-0.6563569736,1.312152322,3.081132297
8.312884833,-2.354304784,-0.6860742778,1.387310678,2.817459822
8.322862833,-2.55577937,-0.6446058244,0.9675434518,2.807786528
8.332840875,-3.220152292,-0.3901250589,0.2112426522,3.250569458
8.342818875,-4.264357418,-0.105228247,-0.4463703033,4.28894668
8.352796875,-5.356630166,0.1968552858,-0.8895790172,5.433561407
8.362773875,-6.043844066,0.3994998997,-1.027489399,6.143564579
8.372751875,-6.474603181,0.3259530365,-0.8094844419,6.53314601
8.382729875,-6.945372453,0.06628169775,-0.5748146278,6.969433523
8.392707875,-7.61066982,-0.104421916,-0.5138158894,7.628709315
8.402684875,-8.412522476,-0.2546444875,-0.5199803165,8.432423006
8.412662875,-9.465099646,-0.38220559,-0.3740823457,9.480196729
8.422640875,-10.62685369,-0.3942262959,-0.07860470474,10.63445402
8.432617875,-11.49870161,-0.5206243873,0.3134341478,11.51474834
8.442595875,-12.0893581,-0.7479220319,0.6735431099,12.13118407
8.452573875,-12.39750285,-1.061162637,0.9483967441,12.47892622
8.462551875,-12.39104519,-1.458874458,1.243416548,12.53843691
8.472528875,-12.30140737,-1.835839189,1.366031491,12.51243265
8.482506875,-12.11482038,-2.23457895,1.298352309,12.38741033
8.492484875,-11.75083004,-2.741396892,1.133395631,12.11948222
8.502461875,-11.39628646,-3.255797503,1.055620061,11.89915527
8.512439875,-10.81791614,-3.76143957,1.147967769,11.51058501
8.522417875,-10.00911407,-4.346419582,1.442654574,11.00704228
8.532395875,-9.198849605,-5.02111167,1.805647383,10.6344139
8.542372875,-8.48596292,-5.664496595,2.1135755,10.41946686
8.552350875,-7.809799672,-6.28638891,2.436294734,10.31732468
8.562328875,-7.313096244,-6.867255991,2.817120674,10.42001681
8.572305875,-6.950710377,-7.456753562,3.344797388,10.72861678
8.582283875,-6.471000127,-8.007257221,3.952240356,11.02770215
8.592261875,-6.055757768,-8.513348939,4.48712084,11.37029312
8.602239875,-5.621069325,-9.13503894,4.769240224,11.73844151
8.612216875,-5.023629481,-9.795118251,4.854040346,12.03091445
8.622194875,-4.403011566,-10.35269646,4.582163237,12.14747112
8.632172875,-3.883827056,-10.62108366,4.1616999,12.05036417
8.642149875,-3.340521904,-10.69449545,3.964077167,11.88466353
8.652127875,-2.774711403,-10.70079056,4.067437229,11.77921846
8.662105875,-2.284212602,-10.64079345,4.283045704,11.69566556
8.672083875,-1.687058248,-10.3736751,4.631486255,11.48520638
8.682060875,-0.8685120839,-10.10701049,5.278397929,11.43536003
8.692038875,-0.1535031518,-9.498170328,5.610951887,11.03275051
8.702016875,1.037464457,-8.93780417,5.56397828,10.57915546
8.711993875,2.577262625,-8.987434167,5.329351151,10.76188827
8.721971875,4.25500889,-8.480092315,4.864311565,10.66201638
8.731949875,5.507317007,-7.720396914,4.188139547,10.36704307
8.741927875,6.458848443,-7.155272877,3.652250126,10.30793792
8.751904875,7.345457659,-6.89418125,3.176808051,10.56302952
8.761882875,8.472593846,-6.633158619,2.643519472,11.08024526
8.771860875,9.937476318,-6.264224455,2.115222369,11.93600056
8.781837875,11.68422674,-5.734918706,1.61594295,13.11570504
8.791815875,13.25314463,-5.31939919,1.17614901,14.32917223
8.801793875,14.47470633,-5.0232307,0.5982382813,15.33322729
8.811771875,15.49128103,-4.615106158,-0.1112195966,16.16450935
8.821748875,16.00881341,-4.273924925,-0.6062530598,16.58059359
8.831726875,16.12090921,-3.982742649,-0.8592807922,16.62781754
8.841704875,15.94488229,-3.744987551,-0.922219052,16.40471551
8.851681875,15.53547078,-3.577249645,-0.8368257299,15.96395454
8.861659875,14.90612443,-3.363874514,-0.7688974562,15.3003072
8.871637875,14.11467806,-3.061245435,-0.7816554961,14.46396715
8.881615875,13.07630846,-2.87037536,-0.7355923006,13.40783329
8.891592875,11.97830193,-2.696421279,-0.5629898036,12.29094636
8.901570875,10.88695187,-2.460020689,-0.09466525197,11.16182711
8.911548875,9.788703856,-2.345399475,0.8756565043,10.10378128
8.921525875,8.71377278,-2.175434364,1.987316573,9.198466062
8.931503875,7.730595043,-2.211335099,2.805778829,8.516131603
8.941481875,6.792242061,-2.387298868,2.937544665,7.775790427
8.951459875,6.24936668,-2.450938793,2.640625393,7.213500352
8.961436875,5.8651017,-2.645602543,2.329968672,6.843053762
8.971414875,5.512335672,-2.817673236,2.319160387,6.610872251
8.981392875,5.120295065,-3.017881899,2.3550696,6.393073246
8.991369875,4.649724306,-3.20862626,2.469969141,6.165708893
9.001347875,4.041656855,-3.558314899,2.596747302,5.978268278
9.011325875,3.444089249,-3.869425364,2.869937403,5.922055732
9.021302875,2.932353507,-4.214450848,3.233595333,6.067654556
9.031280875,2.461643583,-4.563846542,3.598681152,6.311805639
9.041258875,1.885552801,-4.983896481,3.784048414,6.535560871
9.051236875,1.36819116,-5.27049951,3.588630958,6.521379018
9.061213875,1.111811804,-5.209711272,3.303970959,6.268448063
9.071191875,0.9617854062,-5.10416669,3.123094944,6.060632871
9.081169875,0.8029036199,-4.893194472,2.885391594,5.737028064
9.091146875,0.7497972339,-4.669405156,2.556077286,5.375785663
9.101124875,0.8999616987,-4.607808248,2.229292483,5.197265904
9.111102875,0.7852718528,-4.929845404,1.771092385,5.296866605
9.121080875,0.2549415991,-5.358966129,1.184686529,5.49426932
9.131057875,-0.3131619599,-5.463158834,0.5985367817,5.504763495
9.141035875,-0.9356406046,-5.425364771,0.249689557,5.511111604
9.151013875,-1.621698656,-5.277648316,0.114235298,5.522366158
9.160990875,-2.200216911,-4.943754176,0.2608442903,5.417536299
9.170968875,-2.662209512,-4.540590411,0.7010396415,5.309969618
9.180946875,-2.918763993,-4.09942793,1.375426797,5.216923564
9.190924875,-2.954684316,-3.735312456,1.978031194,5.157065634
9.200901875,-2.75045306,-3.640251932,2.49872721,5.201928857
9.210879875,-2.190356458,-3.765951281,2.6701474,5.109768841
9.220857875,-1.804490219,-3.782438675,2.188522187,4.727859626
9.230834875,-2.287166469,-3.621832033,1.403602483,4.507648796
9.240812875,-3.105886003,-3.303314316,0.9006030652,4.622715568
9.250790875,-3.883867401,-2.919188501,0.8101565793,4.925691949
9.260768875,-4.661477501,-2.485942565,0.8824334273,5.356115354
9.270745875,-5.279958551,-2.019552273,0.9835706699,5.737940828
9.280723875,-5.3130573,-1.712024982,1.121205063,5.693567265
9.290701875,-4.947219821,-1.769579126,1.306577587,5.41419793
9.300678875,-4.742277251,-1.863824548,1.196030712,5.233882396
9.310656875,-5.15261438,-1.79588341,0.6680920431,5.497361108
9.320634875,-5.814491125,-1.610102166,0.09557624817,6.034059235
9.330612208,-6.656307746,-1.268249965,-0.2624420419,6.781133136
9.340589208,-7.740001459,-0.8751820028,-0.3434034669,7.796889897
9.350567208,-8.892499943,-0.6789804357,-0.01689728379,8.918399811
9.360545208,-9.607885144,-0.5812144053,0.4727087939,9.637049379
9.370522208,-9.671933205,-0.5420421535,0.9227099258,9.730955515
9.380500208,-9.618201386,-0.509601801,1.224782349,9.709252479
9.390478208,-9.600607699,-0.4436276668,1.35323369,9.705653771
9.400456208,-9.479524142,-0.4463097847,1.440830097,9.59877918
9.410433208,-9.457929205,-0.5464404291,1.50397871,9.592339337
9.420411208,-9.526667903,-0.658867768,1.568062293,9.677309927
9.430389208,-9.515425462,-0.8313571215,1.758239474,9.712151277
9.440366208,-9.439789388,-1.022486229,2.054595805,9.714755051
9.450344208,-9.333263059,-1.302142181,2.271355306,9.693525082
9.460322208,-9.281647933,-1.582336662,2.254004278,9.681596611
9.470299208,-9.299521117,-1.900715216,2.025741843,9.705536633
9.480277208,-9.157665326,-2.234008847,1.67735684,9.574296618
9.490255208,-8.796215597,-2.632083195,1.486078044,9.301059012
9.500233208,-8.451963115,-3.092745556,1.514091177,9.126512349
9.510210208,-8.093821156,-3.545663279,1.626375844,8.984807587
9.520188208,-7.617964221,-3.96013322,1.716375018,8.755682566
9.530166208,-7.09752636,-4.417480794,1.8558545,8.563481355
9.540143208,-6.56240731,-4.989872335,2.026192078,8.489373944
9.550121208,-6.088354826,-5.544876012,2.153469006,8.511823731
9.560099208,-5.735788772,-6.050097079,2.253183914,8.635958849
9.570077208,-5.436922962,-6.642970247,2.316964172,8.891428905
9.580054208,-5.043942708,-7.200160198,2.395340543,9.111603658
9.590032208,-4.702971683,-7.830348542,2.51213663,9.473285142
9.600010208,-4.240396698,-8.505880875,2.574062444,9.846662941
9.609987208,-3.735825257,-9.105082485,2.461549151,10.14485789
9.619965208,-3.22055955,-9.439652563,2.259952066,10.22675059
9.629943208,-2.500273214,-9.173903629,1.74507783,9.667324892
9.639921208,-2.066457321,-8.924618114,1.220746601,9.241713943
9.649898208,-1.950914585,-9.139423767,0.9365207568,9.392135308
9.659876208,-1.915984342,-9.39786836,0.8905555022,9.632445942
9.669854208,-2.059976852,-9.422412048,1.037707408,9.700628335
9.679831208,-2.188685763,-9.304965459,1.391072484,9.659596794
9.689809208,-1.62043712,-9.251503197,1.760147567,9.555848854
9.699787208,-0.3374512938,-9.001203191,2.245173228,9.283120977
9.709765208,1.256422217,-8.624861189,2.840930536,9.167208606
9.719742208,3.055326007,-8.321265566,3.386224618,9.489204118
9.729720208,4.949954563,-8.01418968,3.774772391,10.14781716
9.739698208,6.898090113,-7.53137105,4.088107136,11.00080984
9.749675208,8.532092773,-6.969259499,4.194941905,11.78832993
9.759653208,9.787450798,-6.291481251,3.900646279,12.27159203
9.769631208,10.98310115,-5.567456789,3.357170681,12.76305923
9.779609208,12.36784811,-5.060883261,2.727860003,13.63882057
9.789586208,13.59544531,-4.45083682,2.092374958,14.45766629
9.799564208,14.28949929,-3.807283494,1.621184101,14.87660698
9.809542208,14.67045825,-3.209420897,1.274039878,15.07136044
9.819519208,14.80282518,-2.632912915,1.047636273,15.07160925
9.829497208,14.60020512,-2.180782228,0.9906665584,14.79537837
9.839475208,14.06344944,-1.798348011,1.042257419,14.21622194
9.849453208,13.20195109,-1.572854233,0.9709558868,13.3307216
9.859430208,12.25101139,-1.331678807,0.618034907,12.33866345
9.869408208,11.31780279,-0.9693063873,0.1188911435,11.35985695
9.879386208,10.4059833,-0.7313849366,-0.2371177509,10.43434891
9.889363208,9.531353862,-0.6173361647,-0.4464314067,9.561752526
9.899341208,8.688770671,-0.4094840205,-0.3724807933,8.706385868
9.909319208,7.849844913,-0.221507147,0.01670988053,7.852987317
9.919296208,7.06402006,-0.1276043719,0.6079592773,7.091281744
9.929274208,6.319032161,-0.1280522686,1.253085504,6.443352242
9.939252208,5.67192139,-0.2800418687,1.810418711,5.960430489
9.949230208,5.163214797,-0.5035435009,2.160893801,5.619769134
9.959207208,4.820127665,-0.690968982,2.311778277,5.390304967
9.969185208,4.642074101,-0.8183932596,2.276311406,5.234521287
9.979163208,4.419604502,-0.9444609833,2.201110657,5.026907462
9.989140208,4.148868185,-1.110987346,2.110449579,4.785540463
9.999118208,3.802479422,-1.409625115,2.059579387,4.548379928
10.00909621,3.430191295,-1.784869595,2.088100936,4.394557692
10.01907421,2.950650322,-2.157417338,2.165368382,4.24848292
10.02905121,2.399366644,-2.509873465,2.170789628,4.094966753
10.03902921,1.95020985,-2.843901506,2.002520795,3.98762884
10.04900721,1.790639042,-3.11553274,1.685940553,3.969298172
10.05898421,1.954399087,-3.388431065,1.291283902,4.119290593
10.06896221,2.276733721,-3.627709655,0.9745995793,4.392452403
10.07894021,2.223959822,-3.663099343,0.7644345689,4.353005203
10.08891821,1.917250118,-3.619370356,0.6079034364,4.140680666
10.09889521,1.622227391,-3.508241099,0.5676015025,3.906603228
10.10887321,1.151385467,-3.534175839,0.6298097375,3.769979795
10.11885121,0.6427697986,-3.805525237,0.5379432553,3.896736877
10.12882821,0.1922321116,-3.880215815,0.2565705603,3.893437608
10.13880621,-0.1843221445,-3.719470595,-0.02898874104,3.724147755
10.14878421,-0.5645429702,-3.744548133,-0.09318795294,3.788011811
10.15876121,-0.8156905304,-3.713928019,0.119325884,3.804320049
10.16873921,-0.8613821353,-3.528758978,0.5840634611,3.679028301
10.17871721,-0.8194229543,-3.363323121,1.105922488,3.634069474
10.18869521,-0.7492189443,-3.305416975,1.419338509,3.674456723
10.19867221,-0.6706507847,-3.281605943,1.388321662,3.625761586
10.20865021,-0.8027773932,-3.380385296,1.007392519,3.617498581
10.21862821,-1.165189866,-3.473796905,0.519087739,3.700592445
10.22860521,-1.708334219,-3.437440088,0.1475892779,3.841377716
10.23858321,-2.167624823,-3.264628553,-0.02758540928,3.918820985
10.24856121,-2.437670584,-2.963059575,-0.1025835514,3.838291717
10.25853921,-2.551248363,-2.650130042,-0.1951470217,3.683767067
10.26851621,-2.227795303,-2.600271419,-0.4587593839,3.454698762
10.27849421,-1.608756722,-2.804777786,-0.7325882936,3.315352504
10.28847221,-1.298796989,-2.902905174,-0.9518771531,3.31960874
10.29844921,-1.611168698,-2.667074103,-0.9716677853,3.263937366
10.30842721,-2.280183139,-2.221584098,-0.7527284431,3.271279744
10.31840521,-3.068713499,-1.827265416,-0.3882656443,3.592582867
10.32838321,-3.876199363,-1.490855804,-0.07024874121,4.153613778
10.33835983,-4.536788551,-1.247987609,0.159398607,4.708007152
10.34833783,-4.80895539,-1.167759132,0.3927796948,4.964271268
10.35831583,-4.966102819,-1.048266603,0.4204570515,5.092919026
10.36829283,-5.209556905,-0.8549395269,0.2837022257,5.286860287
10.37827083,-5.53399025,-0.6474043018,0.2708748963,5.578311001
10.38824883,-6.084543611,-0.507833603,0.3648321967,6.11658961
10.39822683,-6.790853932,-0.3798941857,0.5284852378,6.821972836
10.40820383,-7.645214,-0.3120413411,0.6769708939,7.681468382
10.41818183,-8.621725911,-0.1320482558,1.077529578,8.689802324
10.42815983,-9.61702902,0.0351914674,1.770869168,9.778776161
10.43813683,-10.29107148,0.1589717603,2.497832294,10.59106182
10.44811483,-10.60516753,0.2292892063,3.101723371,11.05182518
10.45809283,-10.70973329,0.06638168514,3.514656079,11.2718943
10.46807083,-10.69952756,-0.225366894,3.606674881,11.29330704
10.47804783,-10.69125492,-0.4264988333,3.563383266,11.27752337
10.48802583,-10.54373903,-0.6273980534,3.579090056,11.15230678
10.49800383,-10.14167278,-0.9484464455,3.725914811,10.8459909
10.50798083,-9.442879057,-1.314603767,3.968311136,10.32684082
10.51795883,-8.664462626,-1.70460545,4.127396332,9.747512135
10.52793683,-7.828509593,-2.179124542,4.232881272,9.1625013
10.53791383,-7.064600104,-2.708046713,4.198576535,8.65275312
10.54789183,-6.521359856,-3.206184463,4.00397652,8.296962164
10.55786983,-6.088785181,-3.708388951,3.800298411,8.078844076
10.56784783,-5.608600137,-4.360970378,3.717286952,8.01827166
10.57782483,-5.144196728,-5.040392863,3.66879687,8.082598015
10.58780283,-4.852234434,-5.629672918,3.605086485,8.260390107
10.59778083,-4.601742346,-6.179333408,3.558556974,8.486667292
10.60775783,-4.289714746,-6.678134817,3.48632515,8.669117619
10.61773583,-3.890916805,-7.192771071,3.383981042,8.850226944
10.62771383,-3.40172471,-7.687954223,3.19440437,8.993363688
10.63769183,-2.913338946,-8.005260397,2.921409273,9.005907505
10.64766883,-2.500086688,-8.234968264,2.603218123,8.991211284
10.65764683,-2.250624149,-8.210600578,2.249985487,8.805776831
10.66762483,-2.158177623,-8.091841289,1.926191534,8.593360223
10.67760183,-2.173007185,-7.933333213,1.758909419,8.411509878
10.68757983,-2.171345845,-7.84044376,1.671711938,8.30553562
10.69755783,-2.017591555,-7.886382995,1.612742769,8.298593354
10.70753583,-1.690030973,-7.766477652,1.45220337,8.079806584
10.71751283,-1.291615147,-7.525346079,1.417386416,7.765828195
10.72749083,-0.7117865315,-7.256033267,1.527208529,7.449095564
10.73746883,0.3809814754,-6.89016889,1.859463109,7.146829876
10.74744583,1.522137238,-6.658385847,2.341131007,7.220242257
10.75742383,2.664695456,-6.578627486,2.508398797,7.528014745
10.76740183,3.870494235,-6.312611334,1.983303044,7.665720999
10.77737983,5.040195227,-5.93798432,1.140341538,7.87169642
10.78735683,6.440408664,-5.584714261,0.2768089432,8.529039824
10.79733483,8.130482613,-5.178788272,-0.3118571538,9.644783584
10.80731283,9.638083674,-5.006620515,-0.3033947709,10.8651256
10.81728983,11.07403939,-4.948173501,0.002337132096,12.12925285
10.82726783,12.63813917,-4.656483979,0.3026340482,13.47208195
10.83724583,13.97149379,-4.4550053,0.6033642429,14.67698059
10.84722383,14.99383383,-4.222264482,0.7657946312,15.5958011
10.85720083,15.68778957,-3.934742271,0.704411146,16.18904363
10.86717883,15.88711648,-3.733893921,0.4134817618,16.32523816
10.87715683,15.46710747,-3.496415982,-0.08060445249,15.85757974
10.88713383,14.61529796,-3.207026462,-0.6569995826,14.97743641
10.89711183,13.44639628,-3.056395755,-1.219079852,13.8431674
10.90708983,12.01494058,-2.96431848,-1.75040669,12.49839609
10.91706783,10.61639185,-2.715404264,-2.244777079,11.18571501
10.92704483,9.324149004,-2.383075424,-2.439309266,9.928193835
10.93702283,8.149768485,-2.139894403,-2.188607556,8.705623323
10.94700083,7.163823845,-1.978816475,-1.60786853,7.604033662
10.95697783,6.396408951,-1.846153092,-0.9509993398,6.72508204
10.96695583,5.760798483,-1.708656986,-0.2661933231,6.014745775
10.97693383,5.167580329,-1.699580353,0.5207451323,5.464763062
10.98691183,4.61696031,-1.758588699,1.259677362,5.098602139
10.99688883,4.184560466,-1.857601356,1.890189058,4.953185215
11.00686683,3.972106563,-1.914730992,2.437492536,5.038372276
11.01684483,3.92857989,-1.983617039,2.960563399,5.304093905
11.02682183,3.836057935,-2.195206724,3.392117735,5.571421342
11.03679983,3.752914329,-2.410981261,3.71451274,5.804722345
11.04677783,3.53960147,-2.648912652,3.924831825,5.911837418
11.05675583,3.193189903,-2.930517481,4.081101587,5.953132337
11.06673283,2.684682116,-3.274996251,4.110474198,5.901619832
11.07671083,2.148305915,-3.518220541,3.924713419,5.691789657
11.08668883,1.644618134,-3.593514553,3.669913103,5.393178824
11.09666583,1.105122735,-3.6357104,3.4390317,5.125097599
11.10664383,0.6876137035,-3.566491646,3.205978933,4.844685354
11.11662183,0.5094812753,-3.555453857,2.93110688,4.635969245
11.12659983,0.5867633399,-3.518248608,2.574297502,4.39879212
11.13657683,0.5355969869,-3.651263993,2.266006857,4.330517285
11.14655483,0.1981954676,-3.863235501,1.963219905,4.337983676
11.15653283,-0.4084967181,-3.943711315,1.600732003,4.275753904
11.16650983,-1.05876981,-3.949366742,1.26265301,4.279343851
11.17648783,-1.38676908,-3.879840424,1.026585712,4.246194581
11.18646583,-1.498672362,-3.877206838,0.8530561388,4.243401524
11.19644283,-1.497047859,-3.849471155,0.7065026951,4.190313416
11.20642083,-1.480502578,-3.791594245,0.7082422417,4.131547153
11.21639883,-1.541697929,-3.798897418,0.6946141362,4.158237955
11.22637683,-1.682206813,-3.938409644,0.5578199878,4.318802314
11.23635383,-1.895926639,-3.923802715,0.314546873,4.36917673
11.24633183,-2.227808752,-3.872146658,-0.01198094487,4.467302891
11.25630983,-2.68809806,-3.79094462,-0.3206232995,4.658318537
11.26628683,-3.246802439,-3.617786345,-0.4614412093,4.882932736
11.27626483,-3.803789783,-3.39055302,-0.3802140284,5.109719092
11.28624283,-4.186233647,-3.013463743,-0.0919275856,5.158872606
11.29622083,-4.148046944,-2.621925997,0.289247725,4.915735309
11.30619783,-3.943480642,-2.410339821,0.4972440031,4.648443742
11.31617583,-3.799127798,-2.279956852,0.4641008154,4.454993248
11.32615383,-3.777550403,-2.152627884,0.1395894098,4.350078052
11.33613358,-3.987019302,-1.859524505,-0.2663450584,4.407390837
11.34611158,-4.274495321,-1.436523476,-0.4657152316,4.533409382
11.35608958,-4.293702255,-1.124085109,-0.4374264023,4.459908995
11.36606758,-3.907856188,-0.9434634483,-0.2518194053,4.028011455
11.37604458,-3.391728895,-0.8963097471,0.07379449278,3.508937401
11.38602258,-2.97960778,-0.8826202458,0.3568280894,3.128003725
11.39600058,-2.9268121,-0.780703277,0.4577834836,3.063542459
11.40597758,-3.365335148,-0.64477247,0.2977451912,3.439456991
11.41595558,-4.132278172,-0.5337800378,-0.06284061134,4.167084468
11.42593358,-4.939168205,-0.2943388957,-0.3182627785,4.95815582
11.43591158,-5.493880105,-0.02476763606,-0.1305157006,5.495486001
11.44588858,-5.738920541,0.2037047142,0.3786957988,5.755007827
11.45586658,-5.854934562,0.3649393469,1.013243828,5.953159036
11.46584458,-5.883038034,0.3524660665,1.656220618,6.121881702
11.47582158,-5.963474672,0.2896196079,2.203504508,6.364145017
11.48579958,-6.246788058,0.283187086,2.433566423,6.710052273
11.49577758,-6.648564863,0.2862276381,2.406600234,7.076515081
11.50575558,-7.024447274,0.2612840009,2.260733546,7.383904455
11.51573258,-7.403302994,0.1970862508,2.122140502,7.703974203
11.52571058,-7.654839687,0.08096931875,2.033559862,7.920763371
11.53568858,-7.547163795,-0.129611721,2.052434382,7.822337722
11.54566558,-7.226179138,-0.4206469399,2.096662721,7.535954044
11.55564358,-6.876021552,-0.8067245561,2.127578705,7.24272518
11.56562158,-6.57720135,-1.246003649,2.060968978,7.00426269
11.57559958,-6.461100791,-1.654418213,1.849919284,6.921352787
11.58557658,-6.520174626,-1.965897637,1.647982475,7.006659468
11.59555458,-6.698890094,-2.235066608,1.591165081,7.238954175
11.60553258,-6.890709173,-2.544392502,1.71488427,7.54298576
11.61550958,-6.921308237,-2.895673923,2.014137459,7.76828069
11.62548758,-6.606022861,-3.398854312,2.542410589,7.852108015
11.63546558,-6.294288499,-3.982461398,3.082548012,8.061027771
11.64544358,-6.224937013,-4.650000002,3.465016434,8.507566028
11.65542058,-6.130293396,-5.286719686,3.677767375,8.891337077
11.66539858,-5.967834356,-5.939646099,3.70007655,9.197010881
11.67537658,-5.786163704,-6.58685218,3.634211758,9.490722162
11.68535358,-5.607824796,-6.988274644,3.59858058,9.6557477
11.69533158,-5.319842409,-7.187835436,3.655833885,9.660787903
11.70530958,-4.851429857,-7.548396973,3.770360667,9.732948581
11.71528758,-4.150951548,-8.018679757,3.85375161,9.81738383
11.72526458,-3.218417715,-8.378987525,3.819256838,9.754607492
11.73524258,-2.244037699,-8.767351987,3.652880749,9.759390545
11.74522058,-1.37714734,-8.944460056,3.421173719,9.67493308
11.75519758,-0.5621938513,-8.811875026,3.230922863,9.402343641
11.76517558,0.2009804964,-8.564184047,3.124373145,9.118516826
11.77515358,0.8098399526,-8.42617397,3.126735128,9.024008039
11.78513158,1.691995929,-8.392279415,2.958026292,9.057765925
11.79510858,2.976663707,-7.786100323,2.567210969,8.722067256
11.80508658,4.041868232,-6.863244801,2.215028785,8.267235361
11.81506458,4.977006122,-5.924304759,1.968109639,7.983823167
11.82504158,5.758794642,-5.237890173,1.884064685,8.009301401
11.83501958,6.236512746,-4.971450682,1.946624045,8.209674676
11.84499758,6.788760045,-4.816914035,1.941620582,8.547503393
11.85497558,7.594763054,-4.610752321,1.86903851,9.079249295
11.86495258,8.670884038,-4.631968943,1.780840278,9.990533439
11.87493058,10.27940278,-4.732385516,1.418006514,11.40492598
11.88490858,12.22084794,-4.50085858,0.6822373348,13.0411771
11.89488558,13.97515999,-4.070611974,-0.3498055834,14.56012852
11.90486358,14.95106145,-3.604247994,-1.505671479,15.45289257
11.91484158,15.07320511,-3.25050548,-2.554926846,15.6299376
11.92481958,14.72844392,-3.026906784,-3.227342028,15.37871781
11.93479658,14.03056002,-2.911930059,-3.307225519,14.70624669
11.94477458,13.20158388,-2.868508636,-2.925253817,13.82270844
11.95475258,12.31429464,-2.751417266,-2.469856583,12.85738468
11.96472958,11.26908145,-2.565634852,-2.177132688,11.76072216
11.97470758,10.16968328,-2.330408968,-1.933251463,10.61087769
11.98468558,9.112687958,-2.195509317,-1.625214295,9.513288837
11.99466358,8.080367882,-2.06270297,-1.307828014,8.441415922
12.00464058,7.115962046,-1.876578494,-0.9323169011,7.418064269
12.01461858,6.299571458,-1.713260499,-0.5292718345,6.549808453
12.02459658,5.613625234,-1.608538036,-0.0757132566,5.840027002
12.03457358,5.052078524,-1.568107463,0.4851855826,5.312048896
12.04455158,4.643811309,-1.585065558,1.085889342,5.025591702
12.05452958,4.21089691,-1.656039062,1.740133132,4.847904855
12.06450758,3.819004823,-1.762814482,2.35062747,4.818481321
12.07448458,3.529698041,-1.927565045,2.826055804,4.915370451
12.08446258,3.321354438,-2.105275962,3.145797343,5.035833904
12.09444058,3.066518162,-2.281772997,3.34776368,5.081096664
12.10441758,2.81604157,-2.478509585,3.463937915,5.106071461
12.11439558,2.581955893,-2.696001449,3.504439824,5.120158056
12.12437358,2.358027121,-2.949940762,3.464933111,5.125251591
12.13435058,2.162926,-3.256661137,3.30707583,5.120628984
12.14432858,1.969310364,-3.526112528,2.997774494,5.029742021
12.15430658,1.756064018,-3.69196997,2.641629944,4.867505712
12.16428458,1.529703243,-3.789370549,2.33269406,4.705399319
12.17426158,1.29445397,-3.868482792,2.101914398,4.588988378
12.18423958,1.110456273,-3.909137898,1.844925177,4.462983436
12.19421758,0.9635857639,-4.036078611,1.703548858,4.48558879
12.20419458,0.969379039,-4.193884436,1.632606637,4.603668843
12.21417258,0.9092482466,-4.330342662,1.505460979,4.673864858
12.22415058,0.841690321,-4.316000027,1.3798891,4.608730059
12.23412858,1.000201321,-4.092246965,1.214016455,4.384144598
12.24410558,1.179892543,-4.093639187,0.8915372497,4.352570146
12.25408358,1.258507481,-4.474508688,0.5521166137,4.680801409
12.26406158,1.061574135,-4.738576548,0.1726405039,4.859099926
12.27403858,0.5841660798,-4.887588161,-0.07251541436,4.92290834
12.28401658,-0.05822160333,-4.923494743,-0.04949843466,4.924087767
12.29399458,-0.6728186399,-4.844780695,0.3204677635,4.901763407
12.30397258,-1.131153516,-4.574515371,0.8706138656,4.792042118
12.31394958,-1.494878981,-4.267604377,1.261133904,4.694418922
12.32392758,-1.566220567,-3.933469332,1.46341102,4.479598159
12.33390621,-1.350844225,-3.601568508,1.487107446,4.124022841
12.34388321,-1.063978948,-3.522378497,1.420215007,3.944136425
12.35386121,-0.9466127586,-3.524737263,1.362553567,3.895690018
12.36383921,-1.03221775,-3.464013929,1.23478138,3.819627081
12.37381721,-1.34822935,-3.386136618,0.9852302559,3.775489668
12.38379421,-2.079602008,-3.205131379,0.6859552869,3.88177103
12.39377221,-3.11811487,-2.817735801,0.4222075617,4.223805702
12.40375021,-4.162142242,-2.305338446,0.3381643617,4.76994429
12.41372721,-5.155721006,-1.733446257,0.5857904363,5.470781064
12.42370521,-5.815547717,-1.253401546,1.077341298,6.045847745
12.43368321,-6.184192445,-0.8861320835,1.604790701,6.4501798
12.44366121,-6.687025509,-0.741153295,2.054206381,7.034584723
12.45363821,-7.554141862,-0.5393097496,2.199645491,7.886339745
12.46361621,-8.39292027,-0.1956004733,2.037428526,8.638893749
12.47359421,-8.91058889,0.07227392435,1.784410003,9.087790542
12.48357121,-9.171231451,0.2588158911,1.628416669,9.318273061
12.49354921,-9.172049477,0.4366390747,1.768195674,9.351131548
12.50352721,-8.889139549,0.5038703603,2.200972517,9.171421224
12.51350521,-8.536406264,0.4972840565,2.625445436,8.944858136
12.52348221,-8.13188536,0.4126871252,2.863636444,8.631238837
12.53346021,-7.675949889,0.3110326964,2.803536715,8.177821602
12.54343821,-7.3290761,0.1995409119,2.508902242,7.749178248
12.55341521,-7.102888842,0.1080091828,2.173403041,7.428753372
12.56339321,-6.928735371,-0.001575239897,2.029186145,7.21976265
12.57337121,-6.765114489,-0.182372902,2.028854169,7.065145658
12.58334921,-6.591182043,-0.4395030409,2.163162228,6.950979389
12.59332621,-6.45845668,-0.6478878665,2.305038922,6.888005938
12.60330421,-6.346250365,-0.8769654036,2.321894398,6.814334569
12.61328221,-6.26878119,-1.117419868,2.286215419,6.765576525
12.62325921,-6.179629278,-1.421203771,2.205685519,6.713619499
12.63323721,-6.042538968,-1.72071219,2.167151345,6.646026826
12.64321521,-5.86202665,-2.049303491,2.199835964,6.588040643
12.65319321,-5.707732662,-2.45537683,2.323607194,6.633719764
12.66317021,-5.577978854,-2.906230486,2.385194747,6.726750903
12.67314821,-5.495843015,-3.402044553,2.361170438,6.881375112
12.68312621,-5.42450523,-3.859292139,2.199528109,7.011227903
12.69310321,-5.431064637,-4.307037415,1.983344267,7.20976344
12.70308121,-5.550353683,-4.752174833,1.766294745,7.517272695
12.71305921,-5.546802669,-5.276960099,1.643431588,7.830338123
12.72303721,-5.469112469,-5.737186257,1.590066097,8.084232031
12.73301421,-5.383924384,-6.082685366,1.635241393,8.286115944
12.74299221,-5.255217812,-6.420731614,1.880635,8.507637552
12.75297021,-5.003306313,-6.751639581,2.32471758,8.719060897
12.76294721,-4.861920931,-7.027467361,2.898591099,9.023602552
12.77292521,-4.679891261,-7.361870794,3.555295689,9.420119491
12.78290321,-4.407227993,-7.684550559,4.085246093,9.755265835
12.79288121,-4.249067242,-8.112467342,4.34616552,10.1368562
12.80285821,-4.014484844,-8.614007587,4.320449758,10.43951634
12.81283621,-3.178901062,-8.952729773,4.132539835,10.36024458
12.82281421,-2.165368382,-9.339417838,3.852147426,10.33211428
12.83279121,-0.9609390217,-9.558956228,3.590080775,10.25600936
12.84276921,0.60382705,-9.247098489,3.499492787,9.905548311
12.85274721,2.335121531,-8.678198905,3.612911229,9.685920521
12.86272521,4.149849932,-7.83644368,3.785344449,9.641573347
12.87270221,5.386794198,-7.083835105,3.779201072,9.668538269
12.88268021,5.577773032,-6.690111085,3.340920391,9.329034643
12.89265821,5.497252779,-6.475926406,2.615072476,8.88797024
12.90263621,6.462959036,-6.387028263,1.891560523,9.281269888
12.91261321,8.810548877,-6.289750475,1.516101158,10.93093296
12.92259121,11.40769554,-6.046994546,1.308833735,12.97746918
12.93256921,13.58493202,-5.618538065,0.8371657455,14.72478164
12.94254621,15.05600143,-5.017535512,-0.2401001233,15.87187732
12.95252421,15.56213291,-4.421934033,-1.683010806,16.26548513
12.96250221,15.42683653,-3.908962189,-2.885769032,16.17389667
12.97247921,15.27845173,-3.638749198,-3.413154262,16.07237397
12.98245721,15.37796199,-3.547811546,-3.20770357,16.10459698
12.99243521,15.43744805,-3.532781278,-2.550536464,16.0405917
13.00241321,15.19380978,-3.456744086,-2.053830113,15.71684298
13.01239021,14.404645,-3.214419681,-1.976113307,14.89064522
13.02236821,13.19306566,-2.971582476,-1.958901151,13.66472018
13.03234621,11.83339155,-2.823464318,-1.612036133,12.27190967
13.04232421,10.36695431,-2.753663766,-1.009970849,10.77387799
13.05230121,8.903516098,-2.703605753,-0.2937758088,9.309585769
13.06227921,7.479686927,-2.650607175,0.375414049,7.944329463
13.07225721,6.169259825,-2.602446583,0.8788675028,6.75314024
13.08223421,5.109870649,-2.554933863,1.216947665,5.841183674
13.09221221,4.440791888,-2.496614318,1.467659607,5.301673356
13.10219021,4.008695515,-2.459517244,1.739263067,5.014369434
13.11216721,3.698252218,-2.466474261,2.032499762,4.887905485
13.12214521,3.581526591,-2.526633339,2.273961702,4.937824478
13.13212321,3.501378806,-2.676274697,2.483384408,5.058586553
13.14210121,3.286996784,-2.894510327,2.690841281,5.140346748
13.15207821,2.951395549,-3.150647609,2.86792713,5.182887426
13.16205621,2.566340026,-3.414292715,3.031859668,5.237906922
13.17203421,2.087161581,-3.667973582,3.136530968,5.258146078
13.18201221,1.683439991,-3.870306539,3.127977954,5.253331228
13.19198921,1.366486404,-3.960530246,2.956898364,5.127995013
13.20196721,1.073190359,-4.04873257,2.670035133,4.967198465
13.21194521,0.8385790175,-4.115185007,2.28340554,4.780366437
13.22192221,0.5452335638,-4.272259346,1.823038464,4.676852446
13.23190021,0.2869089118,-4.402529463,1.390663764,4.62585431
13.24187821,0.01460539453,-4.424443658,1.10771349,4.561024466
13.25185621,-0.2667489548,-4.414685825,0.9542907375,4.524519504
13.26183321,-0.4297937393,-4.378927762,0.8660796422,4.484397947
13.27181121,-0.6855353107,-4.420680975,0.7730773383,4.539826815
13.28178921,-1.169333203,-4.52888487,0.5595595345,4.71075845
13.29176621,-1.763733957,-4.35808887,0.2260612509,4.706888543
13.30174421,-2.352818422,-3.802764181,0.02365023315,4.471837349
13.31172221,-2.74630943,-3.237683414,0.03290871441,4.245691034
13.32170021,-2.577324898,-3.017795945,0.4021378711,3.988910987
13.33167721,-1.518245624,-3.011913062,1.040981849,3.529919727
13.34165196,-0.1027934664,-3.130354262,1.652407648,3.541205351
13.35162996,0.8494627324,-3.422885199,2.028873319,4.068667713
13.36160696,0.6868221366,-3.728628504,1.73086208,4.167766633
13.37158496,-0.1097843975,-3.56072863,0.811413146,3.653660121
13.38156296,-1.246383718,-3.209731384,-0.142619437,3.446184591
13.39154096,-2.65639124,-2.89857765,-0.7124472669,3.995716197
13.40151796,-3.795418324,-2.494397054,-0.8995488122,4.629946543
13.41149596,-4.318129583,-2.212515067,-0.8331191799,4.922961871
13.42147396,-4.085454839,-2.100581818,-0.5478127706,4.626389958
13.43145096,-3.395040758,-2.086509324,-0.05960066915,3.985395231
13.44142896,-2.647297651,-2.080156909,0.6725800735,3.433307672
13.45140696,-2.298246358,-2.052787846,1.247892592,3.324621811
13.46138496,-2.518755385,-1.98381409,1.315431733,3.465545798
13.47136196,-3.163441316,-1.72494382,1.154526883,3.783612622
13.48133996,-4.035169369,-1.467452908,0.8907918759,4.385147665
13.49131796,-5.019670916,-1.24591711,0.676679264,5.216061768
13.50129496,-5.965311282,-1.047079033,0.6730990139,6.093798116
13.51127296,-6.728768197,-0.7772504961,0.7886361945,6.819265857
13.52125096,-7.166600688,-0.5932327724,0.9913734868,7.259126114
13.53122896,-7.506009922,-0.616451481,1.181953979,7.623464605
13.54120596,-7.819197317,-0.5587786388,1.27385189,7.941963164
13.55118396,-8.222951651,-0.4542543966,1.44775627,8.361774879
13.56116196,-8.730684682,-0.4739963508,1.690779709,8.905518715
13.57113896,-9.113326474,-0.3800766188,1.905682572,9.318197451
13.58111696,-9.172978599,-0.3166436845,2.043815586,9.403243151
13.59109496,-8.896154453,-0.461807245,2.067430151,9.144894609
13.60107296,-8.525757315,-0.7079411101,1.971509502,8.779326177
13.61104996,-8.264053484,-0.992508139,1.802144608,8.516300698
13.62102796,-8.11412035,-1.338964437,1.700269886,8.397779022
13.63100596,-8.131491258,-1.710499443,1.732812126,8.488203361
13.64098296,-8.356330733,-2.000274003,1.760121839,8.770825976
13.65096096,-8.681417212,-2.218235398,1.825490202,9.144396512
13.66093896,-8.818837305,-2.571638773,1.972336299,9.395495084
13.67091696,-8.631621739,-3.089069996,2.13764761,9.413648846
13.68089396,-8.235587484,-3.665951614,2.277680824,9.297953129
13.69087196,-7.71745635,-4.314824152,2.398025,9.161187907
13.70084996,-7.130468988,-5.004930085,2.507056276,9.065221692
13.71082696,-6.617525504,-5.634580486,2.551287247,9.058101769
13.72080496,-6.079612069,-6.226133938,2.538193577,9.06470371
13.73078296,-5.624784061,-6.847397677,2.53533078,9.216992614
13.74076096,-5.110272353,-7.547104738,2.556498578,9.466221972
13.75073796,-4.651288436,-8.091993316,2.544772864,9.67422911
13.76071596,-4.322836299,-8.400802901,2.51436588,9.776627171
13.77069396,-3.83993347,-8.670551332,2.562189965,9.822849223
13.78067096,-3.215471888,-9.005629533,2.727523496,9.943842676
13.79064896,-2.591390083,-9.225332814,2.910598648,10.01467187
13.80062696,-2.148758928,-9.20067686,3.031834233,9.922783804
13.81060496,-1.860145772,-9.174378422,3.091515886,9.858338207
13.82058196,-1.721847427,-9.12215577,3.008310007,9.758504678
13.83055996,-1.659348439,-8.890572116,2.848454441,9.482056871
13.84053796,-1.645008289,-8.67481746,2.638797553,9.215300471
13.85051496,-1.695262477,-8.604569596,2.457155553,9.107697086
13.86049296,-1.635131173,-8.604357927,2.261150452,9.045519922
13.87047096,-1.174938636,-8.530146235,2.173874912,8.88085625
13.88044896,-0.2393367693,-8.417921795,2.261573499,8.719713534
13.89042596,1.36580725,-8.193975189,2.488580244,8.671775509
13.90040396,3.502835348,-7.810535837,2.76318888,8.994972947
13.91038196,5.648965221,-7.424046577,2.888622181,9.765828882
13.92035896,7.754910105,-7.132538903,2.619088928,10.85685814
13.93033696,10.14399881,-6.751145491,1.888790404,12.33070178
13.94031496,12.72286064,-6.320311532,0.9563635755,14.23840413
13.95029296,14.99249482,-5.920665452,0.04958234221,16.11929399
13.96026996,16.56871237,-5.353257492,-0.8013448253,17.43048333
13.97024796,17.24721626,-4.778501337,-1.652627796,17.97308327
13.98022596,17.13339904,-4.182040901,-2.466740601,17.80807788
13.99020296,16.40717953,-3.695780016,-2.875666213,17.06234996
14.00018096,15.27264428,-3.412883536,-2.719968893,15.88394372
14.01015896,13.96739138,-3.133118826,-2.226470324,14.48660159
14.02013696,12.80896674,-2.732682787,-1.665042312,13.20263421
14.03011396,11.86645405,-2.26061017,-1.178911819,12.13725353
14.04009196,10.94253317,-1.951787136,-0.8025639698,11.144174
14.05006996,10.09225913,-1.64854527,-0.7360504299,10.25247122
14.06004796,9.245133825,-1.370388544,-0.8713681564,9.386679214
14.07002496,8.487186157,-1.139635779,-0.8628920326,8.606723025
14.08000296,7.859874642,-0.9764803362,-0.6933993772,7.950594062
14.08998096,7.261020942,-0.9540825766,-0.4100661108,7.334906468
14.09995796,6.707841597,-0.96765221,-0.09975759208,6.778011601
14.10993596,6.187654581,-1.018883175,0.2484952632,6.275901691
14.11991396,5.712759513,-1.191342123,0.6507895473,5.871834836
14.12989196,5.317671338,-1.475684618,1.112771916,5.629701137
14.13986896,5.014289138,-1.836674171,1.632891397,5.584156327
14.14984696,4.735895307,-2.151354361,2.084899878,5.603912691
14.15982496,4.505995652,-2.474442261,2.406741444,5.676201697
14.16980196,4.166557182,-2.840651039,2.623463815,5.684369751
14.17977996,3.688007312,-3.245781807,2.7566055,5.633415603
14.18975796,3.229462228,-3.660147083,2.788973932,5.621786064
14.19973596,2.854754231,-3.93721155,2.758849077,5.591288289
14.20971296,2.468760814,-4.14788556,2.662657994,5.512665614
14.21969096,2.134929532,-4.379641707,2.496792074,5.474774538
14.22966896,1.838502157,-4.557403495,2.218119623,5.391666853
14.23964596,1.631903509,-4.671984948,1.925540447,5.310203238
14.24962396,1.446109402,-4.816461461,1.698396292,5.307926466
14.25960196,1.409392542,-5.04153424,1.58699777,5.470102079
14.26957996,1.494834834,-5.242672026,1.578213206,5.675464569
14.27955696,1.547986609,-5.553626955,1.645670779,5.99560399
14.28953496,1.450533697,-5.901446239,1.528962401,6.266485597
14.29951296,1.048027305,-6.009234982,1.224541151,6.22163703
14.30948996,0.3552980192,-6.031432766,0.920749062,6.111644356
14.31946796,-0.4346913671,-5.927821274,0.7244013146,5.987719007
14.32944596,-1.165996197,-5.649980882,0.5828630278,5.798410162
14.33942771,-1.532867464,-5.354369633,0.5008157748,5.591938239
14.34940471,-1.57652453,-5.187450922,0.5094746241,5.445607501
14.35938271,-1.466008061,-5.110568807,0.5508778811,5.345143553
14.36936071,-1.276926064,-4.942922702,0.7513639954,5.160191165
14.37933771,-1.243072439,-4.825079672,0.9571903718,5.073739877
14.38931571,-1.576595866,-4.863370163,0.8110453561,5.176467757
14.39929371,-2.086578321,-4.796705473,0.3125333843,5.24021656
14.40927171,-2.268503911,-4.505980157,-0.1641102934,5.047464646
14.41924871,-2.433155656,-4.254559239,-0.4873958302,4.925350288
14.42922671,-2.991395767,-3.991853195,-0.7010389106,5.037340183
14.43920471,-3.480552194,-3.683887948,-0.744645106,5.122476971
14.44918171,-4.017954581,-3.365483667,-0.5337116253,5.268328713
14.45915971,-4.861444675,-3.166052683,-0.1918379362,5.804682224
14.46913771,-5.755007985,-2.877045863,0.2644040751,6.439520116
14.47911571,-6.703557342,-2.292723663,0.5966104165,7.109866863
14.48909271,-7.394852598,-1.829051741,0.7209372047,7.651733508
14.49907071,-7.721835914,-1.646727371,0.830608751,7.939040988
14.50904871,-7.951939638,-1.648076908,1.229179455,8.213427033
14.51902671,-8.613960224,-1.517127344,1.707653604,8.911681489
14.52900371,-9.304976569,-1.264135864,2.055243677,9.612734002
14.53898171,-9.844231939,-1.003254152,2.118786539,10.11951964
14.54895971,-10.19610451,-0.751661911,1.988642721,10.41538491
14.55893671,-10.3085991,-0.6208936107,1.836853681,10.48936393
14.56891471,-10.37782779,-0.6789517844,1.754572831,10.54698113
14.57889271,-10.29746834,-0.9349592578,1.782770444,10.49239121
14.58887071,-9.977702823,-1.301407771,1.992880783,10.25766979
14.59884771,-9.624401189,-1.5933458,2.189273554,9.998038197
14.60882571,-9.186444737,-1.809928422,2.386427633,9.662382969
14.61880371,-8.664702947,-2.063674192,2.587320421,9.275238826
14.62878071,-8.252790577,-2.307106059,2.741892736,8.997181028
14.63875871,-7.891403999,-2.480067283,2.915779574,8.770790234
14.64873671,-7.635993526,-2.714490345,3.094578073,8.674864172
14.65871471,-7.412204211,-3.053211946,3.216686647,8.637704986
14.66869171,-7.181388881,-3.549017826,3.170538082,8.615113785
14.67866971,-6.929653968,-4.118041372,3.003630481,8.602334853
14.68864771,-6.640515001,-4.646281757,2.778484612,8.567633885
14.69862471,-6.186149508,-5.220858988,2.679073759,8.526620111
14.70860271,-5.621323678,-5.851954236,2.68199649,8.546212813
14.71858071,-5.060787951,-6.417293451,2.724616553,8.61491528
14.72855871,-4.470328806,-6.944833925,2.817174468,8.726455744
14.73853571,-3.85030146,-7.526782156,2.881717496,8.93205277
14.74851371,-3.300792412,-7.959089613,2.854300194,9.076858907
14.75849171,-2.910501,-8.224126357,2.665088097,9.121949625
14.76846871,-2.591981821,-8.394775591,2.359709365,9.097189417
14.77844671,-2.357250465,-8.481171126,2.22833734,9.080329329
14.78842471,-2.097066618,-8.543664413,2.344087652,9.104209846
14.79840271,-1.84048714,-8.67611905,2.51911382,9.219998326
14.80837971,-1.707545138,-8.778299144,2.544755614,9.297850687
14.81835771,-1.760471795,-8.708811418,2.390518345,9.200936648
14.82833571,-1.968074117,-8.535017551,2.170777349,9.023974436
14.83831271,-2.220064699,-8.410677094,2.150334021,8.960586636
14.84829071,-2.528797978,-8.437840335,2.2744593,9.097534492
14.85826871,-2.560734301,-8.518834212,2.313989986,9.191433302
14.86824671,-2.127046316,-8.329093233,2.286049359,8.895175197
14.87822371,-1.406455632,-8.184407975,2.516786043,8.677376524
14.88820171,-0.4174634233,-8.448614414,3.056665019,8.994251624
14.89817971,1.980485855,-8.612886676,3.610992757,9.546905771
14.90815671,6.228158244,-8.226426067,4.111315027,11.10706767
14.91813471,11.17260941,-7.676808261,4.45985118,14.27062923
14.92811271,15.33620117,-7.156420101,4.108197292,17.41524333
14.93809071,17.44955799,-6.332333407,2.486471446,18.72880297
14.94806771,17.41653525,-5.299919191,-0.02922292203,18.20510087
14.95804571,16.56479708,-4.372132128,-2.254826689,17.27982306
14.96802371,15.75247849,-3.934045867,-3.326334512,16.57352699
14.97800171,15.505029,-3.613099217,-3.478091978,16.29593612
14.98797871,15.48514145,-3.155094416,-3.384496766,16.16165353
14.99795671,14.93484361,-2.637421119,-3.414166415,15.54548411
15.00793471,13.93554276,-2.20166088,-3.504685991,14.53717602
15.01791171,12.76193876,-1.913266264,-3.569228727,13.38906503
15.02788971,11.49447992,-1.671745268,-3.501793374,12.1317912
15.03786771,10.33005604,-1.489825525,-3.273054683,10.93812254
15.04784571,9.364608228,-1.358217564,-3.064348553,9.946400066
15.05782271,8.56383146,-1.303417459,-2.959573757,9.154080138
15.06780071,7.904628062,-1.341048385,-2.866212727,8.514501216
15.07777871,7.388138241,-1.428138569,-2.714666346,7.999598728
15.08775571,7.033284171,-1.502553159,-2.41376512,7.58623848
15.09773371,6.791755573,-1.579090873,-1.859540293,7.216603207
15.10771171,6.592391247,-1.708848774,-1.143853961,6.9056635
15.11768971,6.436140781,-1.90212381,-0.4096261078,6.723821584
15.12766671,6.136042378,-2.228488491,0.3569397712,6.537934155
15.13764471,5.709890869,-2.621931844,1.04040853,6.368660004
15.14762271,5.179772358,-3.044399607,1.656568235,6.232385495
15.15759971,4.690174759,-3.478442518,2.14136907,6.219546858
15.16757771,4.363562741,-3.803672254,2.446788147,6.284534561
15.17755571,4.147261662,-4.01455618,2.655233199,6.353479673
15.18753371,3.840876041,-4.227880148,2.712239459,6.323254082
15.19751071,3.409654119,-4.48759768,2.594817136,6.204623286
15.20748871,2.939169606,-4.738325703,2.365776436,6.057008055
15.21746671,2.472350712,-4.96780085,2.14290835,5.948413194
15.22744371,2.109210115,-5.196245719,2.001509227,5.954475297
15.23742171,1.842100241,-5.321385489,1.904704771,5.944609078
15.24739971,1.577953736,-5.433808735,1.720467192,5.914069895
15.25737771,1.220277362,-5.568319253,1.470046148,5.886959472
15.26735471,0.7995580624,-5.640023659,1.215845172,5.824726556
15.27733271,0.2776429023,-5.609215264,0.981082972,5.701131928
15.28731071,-0.273658171,-5.432373828,0.7516049007,5.49094565
15.29728871,-0.8720151508,-5.179871176,0.6453750256,5.292257056
15.30726571,-1.246970193,-4.888285149,0.697455883,5.092809742
15.31724371,-1.345908298,-4.683454261,0.9248365581,4.959993511
15.32722171,-1.647733969,-4.618724415,1.225113447,5.054556896
15.33719875,-2.181879165,-4.472494322,1.442168232,5.181085925
15.34717675,-2.665440099,-4.11743677,1.568642337,5.149611175
15.35715475,-2.995106995,-3.736865476,1.633859111,5.060071649
15.36713275,-3.123632303,-3.539327821,1.597750654,4.983645988
15.37710975,-2.776484279,-3.543800356,1.519605979,4.751482742
15.38708775,-2.231553016,-3.519583527,1.407510323,4.398679618
15.39706575,-1.904259213,-3.470517787,1.249471486,4.151129467
15.40704275,-2.07238362,-3.343498136,0.901330605,4.035610303
15.41702075,-2.69797196,-3.079229717,0.5128185005,4.125977601
15.42699875,-3.149610313,-2.712174262,0.1867144597,4.160624549
15.43697675,-3.203725709,-2.487986167,0.00876387991,4.056354323
15.44695375,-2.840894868,-2.469738761,-0.03880680084,3.764545014
15.45693175,-2.212956532,-2.503093033,-0.06133970417,3.341618456
15.46690975,-1.670548342,-2.434532091,-0.04198527418,2.952869965
15.47688675,-1.556911215,-2.312929886,0.05473110795,2.788657864
15.48686475,-2.275045191,-2.237089745,-0.09391794126,3.192056034
15.49684275,-3.300512331,-2.010729409,-0.3687055385,3.882313508
15.50682075,-4.393270982,-1.804070681,-0.5806472254,4.784626646
15.51679775,-5.202006395,-1.745935324,-0.5657613838,5.516271081
15.52677575,-5.579638878,-1.792100261,-0.3562053609,5.871190307
15.53675375,-5.64411671,-1.79786854,0.08080442727,5.924096056
15.54673075,-5.488890091,-1.649507137,0.7719330382,5.783136592
15.55670875,-5.51330631,-1.453840005,1.506381331,5.897404678
15.56668675,-6.131592647,-1.325960814,2.225952553,6.656535528
15.57666475,-7.294493912,-1.169204564,2.664232941,7.853331644
15.58664175,-8.457229702,-1.042457979,2.716580139,8.943783345
15.59661975,-9.211055083,-0.9595058692,2.642177829,9.630435656
15.60659775,-9.635312093,-0.7936449194,2.681859373,10.03301954
15.61657575,-9.826528909,-0.6477463639,2.984591947,10.2901912
15.62655275,-9.853713784,-0.6617118537,3.46898757,10.46744538
15.63653075,-9.773433267,-0.7715950692,3.947051244,10.5685652
15.64650875,-9.78803318,-0.8228997087,4.266536676,10.70915929
15.65648575,-9.861628575,-0.9690678209,4.439119585,10.85801977
15.66646375,-9.691952317,-1.261501109,4.616263322,10.80903381
15.67644175,-9.249304059,-1.550723106,4.728930981,10.50319742
15.68641975,-8.770359794,-1.718551059,4.733522215,10.1133012
15.69639675,-8.247250341,-1.868265508,4.770558479,9.70905672
15.70637475,-7.69795647,-2.100685313,4.898058186,9.362819372
15.71635275,-7.298161871,-2.438500596,4.995347668,9.174036744
15.72632975,-6.907649142,-2.859145782,5.009193875,8.999019643
15.73630775,-6.456129488,-3.411788353,4.895076106,8.79111357
15.74628575,-6.012579004,-4.052580623,4.61150018,8.593046601
15.75626375,-5.649355815,-4.761984122,4.185998297,8.492013639
15.76624075,-5.328409749,-5.296417294,3.731827515,8.388714038
15.77621875,-4.860310608,-5.923482056,3.459051982,8.406860263
15.78619675,-4.257006299,-6.729466939,3.328915765,8.630730449
15.79617375,-3.799261115,-7.391582835,3.144719701,8.885895781
15.80615175,-3.578987145,-7.955130463,3.012443404,9.228654557
15.81612975,-3.459713302,-8.460832756,2.944540274,9.603417333
15.82610775,-3.353600371,-9.056254141,2.836774335,10.06527015
15.83608475,-2.888260238,-9.737064171,2.706194607,10.51075426
15.84606275,-2.267725939,-10.04077908,2.732409429,10.650159
15.85604075,-1.977743365,-10.01634824,2.881886773,10.60867439
15.86601875,-1.907062368,-10.00137703,3.264275089,10.69204944
15.87599575,-1.912131904,-9.980008965,3.770275882,10.8384412
15.88597375,-1.705542466,-9.986660757,4.16585727,10.95429756
15.89595175,-1.082987954,-10.01105885,4.245949799,10.92804886
15.90592875,-0.1545419097,-10.2579891,3.897314828,10.97448343
15.91590675,1.016858869,-10.26156175,3.261687403,10.8153713
15.92588475,2.49742942,-9.928458742,2.555508644,10.55187524
15.93586275,4.259875528,-9.587690615,1.696828653,10.62777391
15.94583975,6.123894203,-9.351252018,0.5760995534,11.19284974
15.95581775,7.985333671,-9.031689988,-0.6424639893,12.07268561
15.96579575,9.679425243,-8.320829948,-1.614892205,12.8660546
15.97577275,11.03124946,-7.237484729,-2.040411045,13.35039052
15.98575075,12.58770108,-6.138060837,-1.997759115,14.14627339
15.99572875,14.18031423,-5.426560526,-1.879289848,15.29903922
16.00570675,15.20282852,-5.011136904,-1.941467385,16.12472585
16.01568375,15.43747495,-4.682359955,-2.161476183,16.27612076
16.02566175,15.10109867,-4.301927241,-2.396061213,15.88366671
16.03563975,14.49752568,-3.957546996,-2.560555376,15.24456863
16.04561675,13.77137634,-3.583732746,-2.692710343,14.48256316
16.05559475,12.81974199,-3.24393438,-2.713145485,13.49926122
16.06557275,11.77935393,-3.054777538,-2.513880269,12.42595826
16.07555075,10.5828452,-2.960740862,-2.078907359,11.18411619
16.08552775,9.325488601,-2.834129055,-1.413132275,9.848551567
16.09550575,8.252428635,-2.692684323,-0.7432892829,8.712382349
16.10548375,7.500894778,-2.498524019,-0.2532540196,7.910131626
16.11546175,6.934095513,-2.381576782,0.0914124459,7.332253732
16.12543875,6.51712998,-2.337840194,0.3055573636,6.930501083
16.13541675,6.206923496,-2.376708975,0.4278688359,6.6601589
16.14539475,5.99220672,-2.58213511,0.4958930039,6.543689554
16.15537175,5.751456971,-2.942834056,0.6496198118,6.49319147
16.16534975,5.490409783,-3.293443047,1.075803188,6.492204493
16.17532775,5.173788902,-3.554744589,1.71015972,6.506070009
16.18530575,4.753856492,-3.703870223,2.298634613,6.449924593
16.19528275,4.318495034,-3.847091923,2.800382142,6.425858368
16.20526075,3.839056972,-4.049149477,3.144494291,6.404827419
16.21523875,3.476555329,-4.250218266,3.337065907,6.425480615
16.22521575,3.139690219,-4.490197352,3.362085266,6.428308041
16.23519375,2.793885593,-4.675559351,3.212908761,6.323720001
16.24517175,2.387763429,-4.829691371,3.007979932,6.170516688
16.25514975,1.982901779,-4.954082113,2.75333983,6.004640644
16.26512675,1.665854929,-5.008252473,2.460190843,5.8232469
16.27510475,1.387536527,-5.016383611,2.125163805,5.621893217
16.28508275,1.171633205,-4.959387876,1.775475458,5.396347429
16.29505975,1.045175399,-4.926865663,1.4544028,5.242297624
16.30503775,0.9135523821,-4.987470884,1.170521942,5.203802973
16.31501575,0.6834875426,-5.099480731,0.9445197478,5.231058832
16.32499375,0.3870808522,-5.232411917,0.7923687646,5.306205265
16.33497075,-0.02673449323,-5.333005661,0.8218127114,5.396020779
16.34494587,-0.5804041274,-5.391357949,0.9053276154,5.497565605
16.35492388,-1.12285924,-5.258188782,1.005041353,5.46986931
16.36490188,-1.369893577,-4.874976887,1.215054629,5.207529722
16.37487888,-1.306557999,-4.489013876,1.624942692,4.949624039
16.38485687,-1.158280211,-4.232797657,1.99021533,4.818624919
16.39483488,-1.081588715,-4.0498681,2.151725366,4.711813645
16.40481188,-1.243735806,-3.892788498,2.067048328,4.579669185
16.41478988,-1.656378785,-3.811967699,1.79058057,4.525579211
16.42476787,-1.994998937,-3.813250578,1.315211878,4.50007589
16.43474588,-2.112740225,-3.726169749,0.7709999688,4.352292869
16.44472288,-2.18450515,-3.55678059,0.3460171723,4.188374243
16.45470088,-1.879389251,-3.527995917,0.1870419037,4.001730103
16.46467887,-1.512353677,-3.615523472,0.1916847391,3.923769446
16.47465588,-1.878104033,-3.573451002,0.1064333582,4.038335657
16.48463388,-3.037221565,-3.249118813,0.02552879736,4.447711728
16.49461188,-4.748108094,-2.750969369,-0.09859238818,5.488358899
16.50458987,-6.455507929,-2.33783844,-0.2228948374,6.869407056
16.51456688,-7.607912273,-2.017229759,-0.1664914258,7.872564032
16.52454488,-8.171417801,-1.859960123,0.102907341,8.381056643
16.53452288,-8.199410761,-1.661435457,0.4468407118,8.377969398
16.54449987,-7.934905529,-1.443009208,0.8628911555,8.111077763
16.55447788,-7.877965343,-1.287006664,1.072572236,8.054137775
16.56445588,-8.232935772,-0.9541211683,1.008254033,8.349140963
16.57443388,-8.960534052,-0.5679558438,1.020221018,9.036293225
16.58441087,-9.891723025,-0.3352150261,1.26281147,9.977637312
16.59438888,-10.71331296,-0.06190856516,1.895380801,10.87986101
16.60436688,-10.97803746,0.2313445026,2.916365465,11.36116254
16.61434488,-10.66215216,0.3740282589,3.938327783,11.3724145
16.62432187,-10.08161486,0.3518035769,4.564476871,11.07236077
16.63429988,-9.623253965,0.3017800623,4.662856275,10.6976781
16.64427788,-9.173217165,0.1614123881,4.368557725,10.16160734
16.65425488,-8.726403351,-0.07049344718,3.98949092,9.595369851
16.66423287,-8.488898222,-0.1308747196,3.652465596,9.242241403
16.67421088,-8.191114147,-0.2369490588,3.462629893,8.896083498
16.68418888,-7.643873234,-0.5081932068,3.510040287,8.426591313
16.69416588,-6.930805285,-0.8699469906,3.69067832,7.90025165
16.70414387,-6.18795162,-1.235137768,3.83784923,7.385485581
16.71412188,-5.567719914,-1.599167873,3.892107882,6.978921599
16.72409888,-5.095264889,-1.996186799,3.807354831,6.666516094
16.73407688,-4.869290469,-2.3537569,3.559117137,6.474370704
16.74405487,-4.745438256,-2.715785503,3.23591697,6.353411192
16.75403288,-4.576696967,-3.140890945,2.985583634,6.302781981
16.76400988,-4.337653436,-3.548428427,2.825605276,6.276195249
16.77398788,-4.115958301,-4.014384856,2.684055295,6.345120277
16.78396587,-3.943683541,-4.422482502,2.538654045,6.446375393
16.79394388,-3.828095489,-4.789245011,2.42170637,6.592104716
16.80392088,-3.662820138,-5.15307748,2.331268508,6.738343397
16.81389888,-3.52836663,-5.490574674,2.213553825,6.891705294
16.82387687,-3.598613325,-5.778611441,2.077079811,7.117347019
16.83385387,-3.844000208,-5.933902379,1.94147411,7.331906761
16.84383188,-4.098877122,-6.078540275,1.914284849,7.577198164
16.85380988,-4.340999798,-6.33712637,2.099158605,7.963034392
16.86378787,-4.600643947,-6.757755184,2.324277577,8.499143845
16.87376487,-4.690108393,-7.112702808,2.545732684,8.892042109
16.88374288,-4.868989045,-7.502733727,2.783110051,9.367164419
16.89372088,-5.244618564,-7.863644927,3.022665507,9.923680879
16.90369887,-5.719658643,-8.262998646,3.246912951,10.56096991
16.91367587,-5.984190187,-8.834941707,3.541334,11.24312117
16.92365388,-5.725991178,-9.6797866,4.079929805,11.96373983
16.93363188,-5.076294183,-10.67204331,4.558522652,12.66654648
16.94360888,-3.577279466,-11.24175624,4.904018252,12.77589162
16.95358687,-1.181176738,-11.56505113,5.283679134,12.76960655
16.96356488,1.756983638,-11.74150958,5.356579295,13.02470654
16.97354288,4.645739136,-11.88359575,4.735449457,13.60982078
16.98351988,6.768743856,-11.8711482,3.177455923,14.02983532
16.99349787,8.304944233,-11.34603315,0.748963421,14.08067871
17.00347588,9.633159733,-10.33914027,-1.639928521,14.22620658
17.01345288,11.81955704,-9.124449633,-3.067318061,15.24355437
17.02343088,14.11193689,-8.489257826,-3.055327469,16.74960558
17.03340887,15.68820122,-7.935604856,-2.516432871,17.76023413
17.04338688,16.41356586,-7.031207825,-2.306592381,18.00453821
17.05336388,16.32200197,-6.383321128,-2.466577756,17.69854635
17.06334188,15.82101487,-6.089614316,-2.897851134,17.19841433
17.07331987,15.14948321,-5.696501915,-3.403506941,16.53906996
17.08329788,14.29947814,-5.17931686,-3.800679649,15.67627392
17.09327488,13.21424895,-4.546980248,-3.969510984,14.52750571
17.10325288,11.97736871,-3.984717838,-3.843773628,13.19507231
17.11323087,10.64267158,-3.512564822,-3.614956293,11.77592794
17.12320788,9.390843515,-3.071725692,-3.371121553,10.43972706
17.13318588,8.393313203,-2.746575186,-3.032525959,9.33742981
17.14316388,7.575207042,-2.449242516,-2.445788274,8.328531137
17.15314187,6.936771199,-2.21326351,-1.533780799,7.441089542
17.16311888,6.477694019,-2.045129456,-0.4766191193,6.809569743
17.17309688,6.144758822,-1.955889543,0.4959353963,6.46757426
17.18307488,5.875378767,-1.978959732,1.29633385,6.333785497
17.19305187,5.673177372,-2.148095123,1.969091971,6.377819168
17.20302988,5.52204205,-2.338240728,2.501029259,6.497342954
17.21300788,5.310346531,-2.484569639,2.754042665,6.477469998
17.22298588,5.134850539,-2.620720886,2.698778291,6.365396475
17.23296287,5.062456162,-2.81712886,2.479166812,6.301662121
17.24294088,4.871636372,-3.106603457,2.356367097,6.239895181
17.25291888,4.510692428,-3.414148289,2.373469033,6.134827623
17.26289688,4.082931765,-3.744684373,2.452128117,6.058541504
17.27287387,3.576760233,-4.102974851,2.51942226,5.997925051
17.28285188,3.1030732,-4.407061055,2.534879667,5.956245912
17.29282988,2.608850161,-4.651117405,2.49478414,5.887524113
17.30280688,2.057024739,-4.917898373,2.458786342,5.870494481
17.31278487,1.61198877,-5.153218397,2.374863009,5.898655945
17.32276288,1.130944039,-5.325544029,2.290924475,5.906673224
17.33274088,0.5235227059,-5.481975174,2.189341089,5.92615746
17.34271783,0.0469754342,-5.50255328,2.075403122,5.881122122
17.35269583,-0.2257400743,-5.385898404,1.96741382,5.738429867
17.36267383,-0.3714265769,-5.285899322,1.812832734,5.600451041
17.37265083,-0.4996507902,-5.296173465,1.649514738,5.569560409
17.38262883,-0.7371497065,-5.390130034,1.543652653,5.655064543
17.39260683,-1.172863898,-5.470649702,1.562791175,5.809125075
17.40258483,-1.758670852,-5.405719296,1.627749063,5.913061076
17.41256183,-2.076878082,-5.082141398,1.744827277,5.76072964
17.42253983,-1.919199434,-4.675454101,1.995283112,5.433631586
17.43251783,-1.463970599,-4.453528293,2.288661602,5.216808996
17.44249583,-0.9408596832,-4.447917305,2.63099152,5.252742301
17.45247283,-0.3356556138,-4.476444116,2.968866445,5.381949887
17.46245083,0.1555239496,-4.518822981,3.37164751,5.64020884
17.47242883,-0.1098902321,-4.774656792,3.810539517,6.109798258
17.48240583,-1.061653803,-4.765660851,3.65906301,6.101423953
17.49238383,-2.09134731,-4.368530243,2.796467723,5.592675727
17.50236183,-2.768437926,-3.836404383,1.64822952,5.009881005
17.51233983,-2.944260192,-3.383658568,0.6799423027,4.536533359
17.52231683,-2.596861907,-3.033813223,0.4526335484,4.019028685
17.53229483,-2.005862771,-2.780370339,0.9295214935,3.552176077
17.54227283,-1.361715953,-2.902464879,1.543125819,3.558062676
17.55224983,-0.8744698119,-2.978868692,1.957391839,3.670114296
17.56222783,-0.7131901556,-3.179643366,1.993490063,3.820049053
17.57220583,-1.083888425,-3.440742595,1.547568387,3.92536516
17.58218383,-2.647619832,-3.457811787,0.603998812,4.396722381
17.59216083,-5.246410736,-2.80932692,-0.8605170397,6.013121729
17.60213883,-7.705240347,-1.892739321,-2.2474744,8.24647392
17.61211683,-9.40266717,-1.247798451,-2.891602507,9.916073615
17.62209483,-10.38386212,-0.9165454987,-2.70391624,10.76920662
17.63207183,-10.45022334,-0.955648461,-1.777194539,10.64325383
17.64204983,-9.798494434,-1.261370131,-0.5405095983,9.894124438
17.65202783,-8.831335144,-1.696132835,0.7117827308,9.020863688
17.66200483,-8.050102694,-1.952861562,1.908132409,8.500517099
17.67198283,-7.810118346,-2.021240656,2.912100506,8.576927872
17.68196083,-8.0507301,-1.890115676,3.699024636,9.059225997
17.69193883,-8.953821448,-1.615495638,3.94436211,9.916588987
17.70191583,-10.00173605,-1.244489512,3.658691711,10.72238328
17.71189383,-10.425513,-1.024756995,3.275909586,10.97602077
17.72187183,-10.5919154,-1.123974012,2.980820493,11.06061844
17.73184883,-10.44038364,-1.503401005,2.958198785,10.95503378
17.74182683,-9.792731418,-2.176931836,3.180567226,10.52390748
17.75180483,-8.936147069,-2.924425852,3.507683859,10.03547892
17.76178283,-8.330286065,-3.462921669,3.794078143,9.78675234
17.77175983,-8.003548917,-3.745346278,4.022463369,9.708997145
17.78173783,-7.841448312,-4.037638063,4.084338605,9.71970445
17.79171583,-7.624504332,-4.362825699,4.053419698,9.67458142
17.80169383,-7.003104937,-4.726308505,4.150356009,9.41312519
17.81167083,-6.15029672,-5.063741965,4.442686386,9.121682671
17.82164883,-5.22502279,-5.534449841,4.76291266,8.97865999
17.83162683,-4.250331118,-6.156233398,4.959271517,8.975460893
17.84160383,-3.214158896,-6.968833237,4.848497478,9.077630852
17.85158183,-2.299826568,-7.563665223,4.383578053,9.039579104
17.86155983,-1.920539616,-7.821987024,3.799154403,8.905365102
17.87153783,-1.842610557,-7.772596178,3.316497156,8.649139749
17.88151483,-1.7164867,-7.703052319,3.088470364,8.47478559
17.89149283,-1.504683884,-7.725889789,3.199386782,8.49644175
17.90147083,-1.485197015,-7.839623396,3.427456552,8.684063771
17.91144883,-1.588181393,-7.928746072,3.582195805,8.844176683
17.92142583,-1.592751138,-7.990902559,3.66213426,8.933230504
17.93140383,-1.624710265,-8.010607091,3.720795281,8.980747571
17.94138183,-1.708674966,-8.073024949,3.752526951,9.065029536
17.95135883,-2.009425626,-8.191876624,3.674604032,9.20039938
17.96133683,-2.568787086,-8.201258481,3.711543524,9.361349427
17.97131483,-3.434741013,-8.246718244,3.738496557,9.684119172
17.98129283,-4.330959544,-8.367149252,3.697831511,10.12128228
17.99126983,-4.714793876,-8.554154903,3.670985775,10.43450928
18.00124783,-4.271749468,-8.912063558,3.751325348,10.57095844
18.01122583,-3.243111969,-9.280566198,3.859887385,10.56150628
18.02120383,-2.028892615,-9.667681695,3.984778942,10.65171056
18.03118083,-0.6846048725,-9.751400374,4.073454891,10.59016184
18.04115883,1.008344153,-9.746167116,4.255304174,10.68232863
18.05113683,3.119255077,-10.06428956,4.345397196,11.39746259
18.06111383,6.515163562,-10.45353052,4.077820129,12.97506353
18.07109183,10.95806805,-10.59828185,3.466902161,15.63400922
18.08106983,15.35720203,-10.1197352,2.539660351,18.56616734
18.09104783,18.88202057,-9.246196264,1.163181055,21.05649155
18.10102483,20.95630162,-8.293779559,-0.8026852995,22.55210989
18.11100283,21.69360276,-7.278716955,-2.843445423,23.05812879
18.12098083,21.63087617,-6.754783044,-4.443461435,23.09255827
18.13095783,20.8232377,-6.34490726,-5.199925371,22.38089141
18.14093583,19.44399179,-6.0795688,-5.06853025,20.99333162
18.15091383,17.71038591,-5.918752828,-4.664436193,19.24698337
18.16089183,15.75726736,-5.603307238,-4.347979619,17.27985687
18.17086883,13.65308483,-5.100726188,-4.036958325,15.12353019
18.18084683,11.59327447,-4.597754838,-3.631681083,12.98970631
18.19082483,10.09836947,-4.01801627,-3.528579176,11.42682772
18.20080283,9.012690631,-3.429708607,-3.604090412,10.29470549
18.21077983,8.024957328,-2.964226679,-3.335545338,9.182180712
18.22075783,7.261269448,-2.667036681,-2.821985265,8.234240675
18.23073583,6.634913369,-2.645060506,-2.110239956,7.447921399
18.24071283,5.971961905,-2.768332676,-1.337025501,6.716817103
18.25069083,5.353466238,-2.882162177,-0.5607000339,6.105804132
18.26066883,4.763727762,-2.988620678,0.3318476146,5.633389618
18.27064683,4.225048926,-3.193376137,1.342455225,5.463595484
18.28062383,3.737409267,-3.436557158,2.274295578,5.563323962
18.29060183,3.392410095,-3.670964432,3.131428396,5.898327722
18.30057983,3.081411898,-3.912704115,3.815695884,6.274064699
18.31055783,2.801969953,-4.221316064,4.268786684,6.625185634
18.32053483,2.608533242,-4.500239945,4.401491875,6.813936892
18.33051283,2.4704185,-4.774233454,4.227054229,6.838439887
18.34049008,2.279879084,-5.04748729,3.84377129,6.741628461
18.35046708,2.065982966,-5.316432897,3.426242377,6.653711836
18.36044508,1.7379625,-5.695614892,3.149196037,6.736317862
18.37042308,1.334117826,-6.049571414,2.995279487,6.881052527
18.38040108,0.9567155048,-6.268058474,2.863723859,6.95735409
18.39037808,0.6714566772,-6.332792414,2.740539398,6.932940936
18.40035608,0.3985493618,-6.452780787,2.626107341,6.978084354
18.41033408,0.1909553721,-6.578766065,2.403145699,7.006549518
18.42031108,-0.04349202856,-6.502966855,2.136267667,6.845006137
18.43028908,-0.3406675547,-6.462480149,1.854280722,6.731869061
18.44026708,-0.4814613448,-6.34801564,1.593957126,6.562759093
