"Time (s)","Linear Acceleration x (m/s^2)","Linear Acceleration y (m/s^2)","Linear Acceleration z (m/s^2)","Absolute acceleration (m/s^2)"
8.988291665E-3,9.716486129E-3,1.816218272E-2,-3.748825371E-2,4.277433986E-2
1.896629168E-2,3.788944351E-3,4.496627608E-3,-7.072031915E-2,7.096435232E-2
2.894429170E-2,-1.768778509E-2,-7.527988655E-3,8.763806820E-3,2.112658668E-2
3.892129171E-2,6.062601039E-3,1.486151171E-2,-8.162713051E-4,1.607127750E-2
4.889612499E-2,1.045831050E-2,-8.197677573E-3,-3.090370417E-2,3.363951705E-2
5.887412501E-2,1.127164564E-2,-5.615876047E-3,4.124041200E-3,1.325125560E-2
6.885212503E-2,1.708849231E-2,1.233253612E-2,-5.649872124E-2,6.030102419E-2
7.883012498E-2,1.760692450E-2,-2.312464155E-3,-3.808817804E-2,4.202452364E-2
8.880812500E-2,1.961182397E-2,-1.109985170E-2,1.100855291E-2,2.508024291E-2
9.878612502E-2,-3.997374749E-3,-2.080430193E-3,-5.260973811E-2,5.280238384E-2
1.087641250E-1,-1.541485931E-2,-7.983093895E-4,-4.093577206E-2,4.374920136E-2
1.187411250E-1,3.367389796E-3,-4.878788833E-3,1.504722476E-2,1.617284352E-2
1.287191250E-1,1.185301990E-2,1.123145973E-2,-4.303141415E-2,4.602545353E-2
1.386971250E-1,7.711832196E-3,2.922904333E-3,-3.060666561E-2,3.169832338E-2
1.486751250E-1,5.559788458E-3,-4.306693599E-3,-2.167562842E-3,7.359156618E-3
1.586531250E-1,1.104327875E-2,4.689832404E-3,-4.018732846E-2,4.194007513E-2
1.686311250E-1,7.019776537E-4,-4.965291079E-3,-6.657055020E-3,8.334462770E-3
1.786091250E-1,4.885497142E-4,3.007022012E-3,-1.952794611E-2,1.976414789E-2
1.885871250E-1,1.501934085E-2,-6.746499147E-4,-4.242973566E-2,4.501464451E-2
1.985641250E-1,-5.179526437E-3,5.403192714E-5,-1.024666071E-2,1.148148376E-2
2.085421250E-1,-6.567873561E-4,-7.790610865E-3,-2.835958064E-2,2.941752541E-2
2.185201250E-1,1.948211171E-2,-1.054318763E-2,-4.123339534E-2,4.680709747E-2
2.284981250E-1,1.853190491E-4,9.565405268E-4,-7.703706622E-3,7.765076217E-3
2.384761250E-1,7.038529882E-3,-2.891904954E-4,-3.015759945E-2,3.096942587E-2
2.484541250E-1,1.126839198E-2,7.327639293E-3,-3.988561213E-2,4.208958316E-2
2.584321250E-1,1.983529724E-3,-2.073101074E-2,4.422833920E-3,2.129015397E-2
2.684101250E-1,7.300769510E-3,4.561833199E-3,-3.389747858E-2,3.497357019E-2
2.783881250E-1,-1.300287143E-2,2.418202828E-2,-2.117510676E-2,3.467319287E-2
2.883651250E-1,-3.901650575E-3,-1.323798660E-2,-1.608569026E-2,2.119473042E-2
2.983431250E-1,2.995158560E-3,-1.098671721E-2,-4.063347101E-2,4.219902720E-2
3.083211250E-1,2.699615156E-2,-7.476432659E-3,-1.024724543E-2,2.982776028E-2
3.182991250E-1,1.624667027E-2,-1.311292928E-3,-7.253471017E-3,1.784058928E-2
3.282771250E-1,-2.480296375E-3,1.701333275E-2,-1.818133235E-2,2.502331328E-2
3.382551250E-1,-2.628519409E-2,-1.642948827E-3,-2.401977718E-2,3.564492116E-2
3.482331250E-1,-2.002310021E-2,-6.112213293E-3,-3.524760067E-2,4.099606136E-2
3.582111250E-1,-2.772153064E-2,9.120761063E-3,-2.776491880E-2,4.028104094E-2
3.681881250E-1,-2.491907209E-2,9.043413363E-3,5.268341303E-4,2.651454381E-2
3.781661250E-1,-2.920649501E-2,1.794821117E-3,-5.710156918E-2,6.416252750E-2
3.881441250E-1,-7.147672959E-3,-8.007853199E-4,-3.513591886E-3,8.004736960E-3
3.981221250E-1,3.960627967E-2,-7.563117631E-3,-1.563720882E-2,4.324789518E-2
4.081001250E-1,4.189160910E-2,-5.754847918E-4,-2.536872983E-2,4.897765356E-2
4.180781250E-1,2.069683650E-2,-2.201462989E-2,7.835268974E-5,3.021604060E-2
4.280561250E-1,1.870247115E-2,-1.118114627E-2,-2.851160824E-2,3.588470794E-2
4.380341250E-1,1.504531870E-2,-1.553453537E-2,-2.166393399E-3,2.173422794E-2
4.480111250E-1,1.557530142E-2,6.545062568E-3,-2.656448543E-2,3.148173668E-2
4.579891250E-1,-1.843262215E-2,7.882302515E-3,-1.414032161E-2,2.453244683E-2
4.679671250E-1,-4.093000250E-2,-6.813102588E-4,-9.947867990E-3,4.212706216E-2
4.779451250E-1,-5.666574376E-3,1.679000566E-3,-3.823728204E-2,3.869132778E-2
4.879231250E-1,-9.803221350E-3,1.553714834E-3,-2.012611628E-3,1.012757544E-2
4.979011250E-1,-1.767030854E-3,-7.474934310E-3,-3.209770560E-2,3.300393531E-2
5.078791250E-1,-5.294642353E-3,-1.986895756E-2,-2.072136283E-2,2.919218371E-2
5.178571250E-1,1.999556805E-2,-6.156871403E-3,-1.847544730E-2,2.791186056E-2
5.278341250E-1,1.664389721E-2,-7.806160804E-3,-1.428416312E-2,2.328073832E-2
5.378121250E-1,1.073603840E-2,-8.437577868E-3,-2.042140067E-2,2.456600997E-2
5.477901250E-1,6.960040148E-3,6.480724923E-3,-3.404190481E-2,3.534534251E-2
5.577681250E-1,-1.290274814E-2,1.397910291E-2,-2.700653493E-2,3.303406056E-2
5.677461250E-1,-1.394128216E-2,2.891324800E-2,-3.793381155E-2,4.969214542E-2
5.777241250E-1,-2.472312870E-2,1.378746042E-2,-1.098984182E-2,3.036616177E-2
5.877021250E-1,-2.135609179E-2,1.651288418E-2,-1.143715382E-2,2.931836435E-2
5.976801250E-1,-1.022501916E-2,7.893741131E-5,-1.892158985E-2,2.150776163E-2
6.076571250E-1,9.150186719E-3,2.651063623E-3,-1.128629565E-2,1.476937794E-2
6.176351250E-1,2.548839675E-2,-5.398688531E-3,-1.158391893E-2,2.851300378E-2
6.276131250E-1,3.164308915E-2,-1.992746626E-2,-1.382924974E-2,3.987025396E-2
6.375911250E-1,2.547268693E-2,-1.581599657E-2,-2.251061082E-2,3.749308105E-2
6.475691250E-1,2.259529951E-2,-7.546672337E-3,-1.502851367E-2,2.816657676E-2
6.575471250E-1,-9.257660141E-3,5.388748264E-3,-2.939863086E-2,3.128933325E-2
6.675251250E-1,3.125503503E-3,2.070389427E-3,-3.568614185E-2,3.588253063E-2
6.775031250E-1,-3.098586211E-2,2.160007143E-3,-2.416011035E-2,3.935098746E-2
6.874801250E-1,-3.772947420E-2,5.920908842E-3,-1.517878711E-2,4.109703107E-2
6.974581250E-1,-2.302576651E-2,1.066137448E-2,-2.161657155E-2,3.333357158E-2
7.074361250E-1,-2.075873476E-3,1.414310818E-2,-1.772408009E-2,2.277015095E-2
7.174141250E-1,-1.106590587E-2,-1.590616247E-3,-1.907186329E-2,2.210701930E-2
7.273921250E-1,-1.105154593E-3,3.902285546E-4,-1.473089039E-2,1.477744148E-2
7.373701250E-1,1.987505602E-2,2.682364499E-3,-6.646530032E-3,2.112792684E-2
7.473481250E-1,1.538669903E-2,-2.289375876E-2,-2.251353443E-2,3.560525143E-2
7.573261250E-1,9.793394145E-3,-5.377739053E-3,-1.981855273E-2,2.275094896E-2
7.673041250E-1,9.510644723E-3,-4.301358014E-3,-1.906835496E-2,2.173835792E-2
7.772811250E-1,-5.747284224E-3,1.192544200E-2,-1.143481493E-2,1.749292530E-2
7.872591250E-1,-3.247466372E-2,-6.671188837E-3,-1.502792895E-2,3.639982407E-2
7.972371250E-1,-9.807824891E-3,1.107572280E-3,-1.547699511E-2,1.835640278E-2
8.072151250E-1,-1.799347570E-2,7.408924727E-3,-2.011676073E-2,2.798823674E-2
8.171931250E-1,7.481192658E-4,1.737460845E-2,-3.059438646E-2,3.519166356E-2
8.271711250E-1,8.452777202E-3,-1.560932491E-3,-2.161130905E-2,2.325800145E-2
8.371491250E-1,1.665487216E-2,-1.922283109E-2,-2.310995042E-2,3.436527041E-2
8.471271250E-1,3.049838705E-2,-8.581492463E-3,-2.924835742E-2,4.311913772E-2
8.571041250E-1,2.343191730E-3,-7.926540356E-4,-1.398127735E-2,1.419841414E-2
8.670821250E-1,1.925822959E-2,-9.302737378E-4,-2.550672412E-2,3.197401744E-2
8.770601250E-1,1.472335411E-2,-6.507804841E-3,-2.894839525E-2,3.312307757E-2
8.870381250E-1,-3.589011831E-3,-2.821509959E-3,-1.682419360E-2,1.743259632E-2
8.970161250E-1,7.044513000E-4,1.362607727E-2,-1.996765673E-2,2.418415904E-2
9.069941250E-1,-7.741450856E-3,1.818293120E-2,-2.655337572E-2,3.310031436E-2
9.169721250E-1,-1.279961102E-2,8.360230168E-3,-1.383100390E-2,2.061601707E-2
9.269501250E-1,1.688035199E-3,6.165340729E-4,-1.892158985E-2,1.900673932E-2
9.369271250E-1,8.805714911E-3,7.153702900E-4,-1.937124074E-2,2.129078057E-2
9.469051250E-1,1.723961314E-2,-3.822151283E-3,-1.727676809E-2,2.470424695E-2
9.568831250E-1,1.768681665E-2,1.744955331E-3,-1.592956960E-2,2.386670358E-2
9.668611250E-1,2.429903654E-2,-6.798310960E-3,-2.071960866E-2,3.264907950E-2
9.768391250E-1,2.340389178E-2,-6.869400311E-3,-3.119723439E-2,3.960048289E-2
9.868171250E-1,4.154083554E-3,7.145699523E-3,-1.009112477E-2,1.304408797E-2
9.967951250E-1,1.564365446E-3,2.386641568E-3,-2.745618582E-2,2.760408370E-2
1.006773125E0,-8.035095285E-3,-5.612833668E-3,-3.958214164E-2,4.077759918E-2
1.016750125E0,-8.802046697E-4,-4.827607423E-5,-2.641070366E-2,2.642541123E-2
1.026728125E0,2.342883381E-5,3.511472270E-3,-5.903933644E-3,6.869309928E-3
1.036706125E0,-2.494088723E-3,-1.222460931E-3,-2.147214532E-2,2.165104879E-2
1.046684625E0,-6.909972222E-3,-1.667817766E-2,-3.584284723E-2,4.013251828E-2
1.056662625E0,9.965470164E-3,-1.534711383E-4,-2.132421076E-2,2.353839658E-2
1.066640625E0,4.606793948E-3,-2.098145429E-3,-1.638448298E-2,1.714864564E-2
1.076618625E0,1.830258442E-3,-2.764992965E-3,-7.252301574E-3,7.974390897E-3
1.086596625E0,6.929651757E-3,-2.425150964E-3,-2.222117364E-2,2.340260645E-2
1.096574625E0,-5.981674204E-3,-1.921504699E-3,-2.177269220E-2,2.266103997E-2
1.106551625E0,-1.917341755E-2,4.255740596E-3,-2.169317007E-4,1.964124049E-2
1.116529625E0,-4.889989905E-3,6.731853699E-3,-9.944944382E-3,1.296656370E-2
1.126507625E0,-1.086275396E-2,-1.700982442E-3,-2.685743093E-2,2.902092971E-2
1.136485625E0,-2.870465772E-2,-2.142812675E-3,-1.832400441E-2,3.412210660E-2
1.146463625E0,-5.945588204E-3,1.516350213E-2,-2.461034596E-2,2.951187802E-2
1.156441625E0,6.694847220E-3,5.993633587E-3,-6.647699475E-3,1.117750112E-2
1.166419625E0,-3.120820021E-3,-1.155549598E-2,-2.296318531E-2,2.589549931E-2
1.176397625E0,-1.653697539E-2,-1.439550689E-2,-1.353396535E-2,2.576568245E-2
1.186374625E0,1.264825836E-2,4.153624456E-4,-2.401217580E-2,2.714287295E-2
1.196352625E0,3.416292847E-4,8.240965242E-3,-1.652890921E-2,1.847254877E-2
1.206330625E0,2.977164667E-3,-6.437309347E-3,-2.236676931E-2,2.346433103E-2
1.216308625E0,-1.585173654E-2,-3.273481457E-3,-3.778412282E-2,4.110514773E-2
1.226286625E0,-1.757239852E-2,3.096694546E-3,-1.533256888E-2,2.352586609E-2
1.236264625E0,-9.063574837E-3,4.159782305E-3,-2.222000420E-2,2.435530259E-2
1.246242625E0,-1.162537363E-2,9.409111021E-3,-1.817782402E-2,2.353962549E-2
1.256220625E0,-3.531930672E-3,-6.206828551E-3,-1.922506034E-2,2.050858845E-2
1.266197625E0,1.015065445E-2,-1.039957453E-2,-2.057108939E-2,2.518643792E-2
1.276175625E0,1.608646342E-2,4.733704794E-3,-9.195916057E-3,1.912451669E-2
1.286153625E0,3.084119378E-2,5.859823711E-4,-1.069221854E-2,3.264729922E-2
1.296131625E0,-1.540615701E-4,-4.718328444E-3,-2.371396780E-2,2.417930163E-2
1.306109625E0,-6.964305646E-3,1.282531022E-2,-2.850225270E-2,3.202137636E-2
1.316087625E0,-2.187295825E-2,1.773305191E-2,-1.757673025E-2,3.319380784E-2
1.326065625E0,-9.430342581E-3,-6.636653719E-3,-2.521143973E-2,2.772351397E-2
1.336043625E0,3.550802789E-3,7.877387200E-4,-2.625867605E-2,2.650937194E-2
1.346020625E0,-3.235858278E-3,-9.031015439E-3,-1.817665458E-2,2.055287791E-2
1.355998625E0,-3.251385377E-3,7.546197250E-4,-1.727793753E-2,1.759738853E-2
1.365976625E0,8.008602373E-3,7.834081259E-3,-2.730825126E-2,2.951696340E-2
1.375954625E0,7.853140669E-3,-1.869683750E-3,-5.004047155E-3,9.497790460E-3
1.385932625E0,1.763525266E-2,-2.876090063E-3,-1.937241018E-2,2.635458796E-2
1.395910625E0,2.235058669E-2,-9.120852426E-3,-2.565875173E-2,3.522939418E-2
1.405888625E0,-7.222218106E-3,-2.428330388E-3,-2.850342214E-2,2.950427590E-2
1.415866625E0,-1.103234834E-3,-7.580668414E-3,-3.344198048E-2,3.430815820E-2
1.425844625E0,6.595153335E-3,-1.504611013E-2,-2.685567677E-2,3.148188134E-2
1.435821625E0,-1.281192101E-2,4.545616312E-3,-3.059672534E-2,3.348085348E-2
1.445799625E0,-1.437756439E-2,3.381855944E-3,-2.101781666E-2,2.568851737E-2
1.455777625E0,-1.949738756E-2,-3.810712667E-3,-2.625809133E-2,3.292653965E-2
1.465755625E0,1.018553903E-2,-1.245422216E-2,-1.323400319E-2,2.083246734E-2
1.475733625E0,1.395818541E-2,4.315035017E-3,-1.443034351E-2,2.053497701E-2
1.485711625E0,1.101455887E-2,7.300047744E-3,-1.727442920E-2,2.174895649E-2
1.495689625E0,2.097530558E-2,-1.697163479E-3,-1.622543871E-2,2.657270535E-2
1.505666625E0,1.436061432E-2,-9.797475776E-3,-2.011559129E-2,2.658674083E-2
1.515644625E0,5.391788359E-3,-3.156920867E-3,-1.936714768E-2,2.035003539E-2
1.525622625E0,3.942729549E-3,7.772904765E-3,-3.209010422E-2,3.325263830E-2
1.535600625E0,-1.151347368E-2,1.148438836E-3,-3.029325485E-2,3.242777016E-2
1.545578625E0,-2.888810041E-4,1.066833632E-2,-1.337725997E-2,1.711280037E-2
1.555556625E0,7.969595050E-4,-7.750073215E-3,-9.635041952E-3,1.239083584E-2
1.565534625E0,9.196408273E-3,-1.143295113E-3,-4.077146530E-2,4.181140313E-2
1.575512625E0,7.298228483E-3,1.199146072E-2,-1.637337327E-2,2.156725809E-2
1.585490625E0,2.166404820E-4,1.067051989E-2,-2.251002610E-2,2.491200921E-2
1.595467625E0,8.261817646E-3,9.288128475E-3,-2.011442184E-2,2.364565346E-2
1.605445625E0,1.402968475E-2,7.163387351E-4,-1.532438278E-2,2.078898514E-2
1.615423625E0,1.358179717E-2,-7.861508355E-3,-1.577227950E-2,2.224934446E-2
1.625401625E0,6.927371115E-3,-6.033047475E-4,-5.592861772E-3,8.923707188E-3
1.635379625E0,6.274535197E-3,1.206470624E-2,-1.562083662E-2,2.071080551E-2
1.645357625E0,5.449882502E-3,2.012072587E-3,-2.984126508E-2,3.040149268E-2
1.655335625E0,-5.580576909E-3,-7.608899502E-3,-2.460274458E-2,2.635020363E-2
1.665313625E0,-1.031124732E-2,1.067520680E-2,-1.532204390E-2,2.133182811E-2
1.675290625E0,-7.843456218E-3,7.604550635E-3,-1.127986372E-2,1.570300357E-2
1.685268625E0,9.712097291E-3,3.200309034E-3,-1.771530926E-2,2.045480369E-2
1.695246625E0,6.436376305E-3,-6.232017260E-3,-1.861227214E-2,2.065627395E-2
1.705224625E0,1.855821852E-2,6.195188938E-3,-2.385020792E-2,3.084834288E-2
1.715202625E0,4.449877292E-3,-8.996526003E-3,-3.178429484E-2,3.333137091E-2
1.725180625E0,-1.153294765E-4,-1.978451097E-2,-2.250476360E-2,2.996505565E-2
1.735158625E0,4.673725152E-3,-9.820389552E-3,-3.088674724E-2,3.274560906E-2
1.745136625E0,5.485821180E-3,2.034460114E-2,-3.507686198E-2,4.091922868E-2
1.755113625E0,-1.725911795E-2,8.969994262E-3,-7.981449366E-4,1.946727985E-2
1.765091625E0,-1.890134158E-3,1.297343664E-2,-1.022911906E-2,1.662881662E-2
1.775069625E0,3.680262656E-4,6.506123766E-3,-2.774152994E-2,2.849662389E-2
1.785047625E0,1.078749618E-3,-4.362698961E-3,-2.160253823E-2,2.206505157E-2
1.795025625E0,3.124071392E-3,8.359873854E-4,-1.815969765E-2,1.844541449E-2
1.805003625E0,9.564149030E-3,-1.456579791E-2,-2.205043495E-2,2.810439640E-2
1.814981625E0,6.849633981E-3,-2.925398536E-3,-3.103234291E-2,3.191366085E-2
1.824959625E0,1.829540901E-2,7.831376921E-3,-2.280063272E-2,3.026419184E-2
1.834936625E0,-2.533767563E-3,1.416614986E-2,-3.088499308E-2,3.407319441E-2
1.844914625E0,-3.631996860E-3,3.771892637E-3,-1.741359293E-2,1.818383332E-2
1.854892625E0,-4.047422118E-3,-6.493789796E-3,-3.073647380E-2,3.167462318E-2
1.864870625E0,6.730729938E-3,7.615568982E-3,-2.040736735E-2,2.279825122E-2
1.874848625E0,-7.396619307E-3,1.253643036E-3,-2.400106609E-2,2.514622778E-2
1.884826625E0,-1.267935253E-2,6.316865841E-3,-2.220480144E-2,2.633860250E-2
1.894804625E0,-1.952845546E-3,-3.997951476E-3,-1.157690227E-2,1.240249523E-2
1.904782625E0,3.903251707E-3,9.519988848E-3,-2.759301066E-2,2.944893545E-2
1.914759625E0,1.738684421E-2,6.992913606E-3,-2.864258587E-2,3.422865638E-2
1.924737625E0,1.188341172E-2,-7.316091042E-3,-1.531970501E-2,2.072278996E-2
1.934715625E0,1.974287240E-2,-5.083395699E-3,-1.981036663E-2,2.842661690E-2
1.944693625E0,7.103268381E-3,2.438755791E-2,-3.058795452E-2,3.975968265E-2
1.954671625E0,9.882957044E-3,1.317153848E-2,-2.130666912E-2,2.692835707E-2
1.964649625E0,-2.852326613E-3,5.765528223E-3,-1.292468548E-2,1.443691717E-2
1.974627625E0,5.645359947E-3,5.889863782E-3,-1.846375287E-2,2.018590484E-2
1.984605625E0,3.464860140E-3,1.051663762E-2,-3.477982342E-2,3.649987726E-2
1.994582625E0,-3.054537491E-3,1.091113281E-2,-1.382574141E-2,1.787551801E-2
2.004560625E0,-1.351936558E-2,-4.050430236E-3,-2.385488570E-2,2.771704895E-2
2.014538625E0,3.706561422E-3,-2.094472647E-3,-2.655045211E-2,2.688962478E-2
2.024516625E0,1.523798903E-2,-9.475412965E-3,-2.505414963E-2,3.081704356E-2
2.034494625E0,9.001565800E-3,-4.825825850E-3,-2.610197067E-2,2.802908587E-2
2.044472625E0,-9.167570765E-3,-5.012278939E-3,-1.517469406E-2,1.842386045E-2
2.054453000E0,-1.709105732E-3,-4.022738189E-3,-1.996531785E-2,2.043813547E-2
2.064431000E0,-6.945566005E-3,-1.089208368E-3,-2.834847093E-2,2.920724338E-2
2.074408000E0,-1.228715510E-2,6.445276178E-4,-1.712240160E-2,2.108473933E-2
2.084386000E0,-1.164582747E-2,-7.110360414E-3,-4.316940844E-2,4.527449997E-2
2.094364000E0,-1.303752646E-2,1.235448145E-2,-2.535645068E-2,3.107345972E-2
2.104342000E0,2.324452089E-3,-1.418520813E-2,-1.413038135E-2,2.015665856E-2
2.114320000E0,1.072356282E-2,-8.244053302E-3,-1.488057911E-2,2.010947163E-2
2.124298000E0,1.142624853E-2,-4.923538305E-5,-1.847193897E-2,2.172036162E-2
2.134276000E0,2.277082334E-2,3.834604025E-3,-2.056582689E-2,3.092196338E-2
2.144254000E0,2.127657651E-2,-4.779733345E-4,-1.667333543E-2,2.703555587E-2
2.154232000E0,2.381456047E-2,-3.088005949E-3,-2.745033860E-2,3.647177210E-2
2.164209000E0,7.025197773E-3,2.741832510E-3,-2.355843186E-2,2.473602153E-2
2.174187000E0,-5.249661048E-3,-6.340848561E-4,-1.757322192E-2,1.835154308E-2
2.184165000E0,-1.299726975E-2,1.707222518E-3,-1.323107958E-2,1.862538849E-2
2.194143000E0,-8.703643311E-3,-5.223491332E-3,-1.218267381E-2,1.585735822E-2
2.204121000E0,-4.206780443E-3,-1.276702993E-3,-3.493477464E-2,3.521030320E-2
2.214099000E0,6.168971256E-3,-1.624465230E-2,-2.819878221E-2,3.312274524E-2
2.224077000E0,3.809497543E-3,-2.419340294E-3,-1.263232470E-2,1.341421284E-2
2.234055000E0,-7.116510269E-3,-5.367954103E-3,-7.242946029E-3,1.148563959E-2
2.244032000E0,8.654905854E-3,-2.026599264E-3,-1.891866624E-2,2.090288096E-2
2.254010000E0,3.785575350E-3,3.369320976E-3,-2.475652635E-2,2.526991297E-2
2.263988000E0,9.095694552E-3,5.339147430E-4,-2.715096116E-2,2.863898420E-2
2.273966000E0,6.049996406E-3,1.254687312E-2,-1.308022141E-2,1.910807876E-2
2.283944000E0,-2.147307722E-3,2.439248236E-3,-2.894781053E-2,2.912965151E-2
2.293922000E0,-6.384165923E-3,6.684290254E-3,-2.475652635E-2,2.642580004E-2
2.303900000E0,-1.303750476E-2,1.243330009E-2,-2.670189500E-2,3.221109558E-2
2.313877000E0,2.849363034E-3,6.366695082E-3,-9.786484838E-3,1.201786010E-2
2.323855000E0,8.981374634E-3,1.345754955E-3,-2.295967698E-2,2.469054300E-2
2.333833000E0,7.876587776E-3,9.047195781E-4,-2.251061082E-2,2.386601668E-2
2.343811000E0,-1.035701777E-3,1.489468552E-3,-1.727150559E-2,1.736652240E-2
2.353789000E0,4.235037798E-3,1.012331187E-2,-3.209127367E-2,3.391558394E-2
2.363767000E0,1.110310764E-2,-2.109392183E-3,-2.894897997E-2,3.107687205E-2
2.373745000E0,1.674904089E-3,-9.875097563E-3,-2.760119677E-2,2.936237249E-2
2.383723000E0,-4.568493543E-3,5.357520478E-3,-6.044851542E-3,9.279783892E-3
2.393700000E0,-1.447600889E-2,2.858996093E-3,-1.098574877E-2,1.839606937E-2
2.403678000E0,-3.158196519E-3,4.211658072E-3,-7.991974354E-3,9.569948957E-3
2.413656000E0,-7.731004668E-3,-5.656230971E-3,-1.622602344E-2,1.884264362E-2
2.423634000E0,-1.607290176E-2,1.304205920E-2,-1.442975879E-2,2.523195232E-2
2.433612000E0,-1.308542909E-3,7.830728246E-3,-1.406255364E-3,8.062886800E-3
2.443590000E0,4.769244902E-3,2.489333292E-3,-1.936890185E-2,2.010215998E-2
2.453568000E0,2.305418946E-3,-4.130674135E-3,-3.044645190E-2,3.081174871E-2
2.463546000E0,-4.379875157E-3,3.321264172E-3,-3.119489551E-2,3.167547328E-2
2.473524000E0,7.747021699E-3,1.386594102E-2,-2.850108325E-2,3.262809238E-2
2.483501000E0,8.649339579E-3,-3.491409011E-3,-3.493769825E-2,3.616135742E-2
2.493479000E0,-6.643634975E-3,-4.580818377E-3,-1.637571216E-2,1.825611490E-2
2.503457000E0,-1.688767243E-3,-1.830872856E-3,-1.203415453E-2,1.228921908E-2
2.513435000E0,-1.570659997E-2,5.266331322E-3,-2.909925342E-2,3.348429598E-2
2.523413000E0,-8.363817298E-3,8.532403260E-3,-2.221415699E-2,2.522348342E-2
2.533391000E0,9.508736384E-3,1.058087477E-2,-1.547699511E-2,2.102161640E-2
2.543369000E0,8.106358226E-3,-4.196537538E-3,-1.772174120E-2,1.993449478E-2
2.553347000E0,1.666940112E-2,-5.253101997E-3,-2.625575244E-2,3.154090282E-2
2.563324000E0,1.028303907E-2,3.596604075E-3,-1.622602344E-2,1.954380439E-2
2.573302000E0,1.131609932E-2,-4.048155304E-3,-2.206271410E-2,2.512379388E-2
2.583280000E0,1.457557830E-2,1.161187593E-2,-2.774971604E-2,3.342648479E-2
2.593258000E0,7.514832420E-3,8.394454652E-3,-1.831991136E-2,2.150717851E-2
2.603236000E0,-3.416659440E-3,-1.020626924E-2,-2.700185716E-2,2.906788234E-2
2.613214000E0,3.816526764E-3,-9.175834525E-3,-1.832049608E-2,2.084232215E-2
2.623192000E0,-4.216941122E-3,-2.136225421E-3,-2.355960131E-2,2.402916697E-2
2.633169000E0,7.889115892E-4,-2.635650728E-3,-2.460800707E-2,2.476132162E-2
2.643147000E0,-5.876021184E-3,-6.917466251E-3,-1.517878711E-2,1.768543306E-2
2.653125000E0,-4.146426214E-3,1.855312390E-3,-2.386131763E-2,2.428986442E-2
2.663103000E0,1.392552095E-3,2.084687697E-3,-2.221357226E-2,2.235459498E-2
2.673081000E0,9.933228252E-3,2.835451914E-3,-1.038816333E-2,1.465000848E-2
2.683059000E0,4.331971386E-3,-5.641485024E-3,-2.849874437E-2,2.937295967E-2
2.693037000E0,1.792268670E-3,3.222592408E-3,-3.149134934E-2,3.170650425E-2
2.703015000E0,2.769759817E-3,2.177585335E-3,-1.307788253E-2,1.354416696E-2
2.712992000E0,-4.906297013E-3,1.515735341E-3,-2.490270674E-2,2.542663971E-2
2.722970000E0,8.378811067E-3,-7.298713848E-3,-3.612936080E-2,3.779955569E-2
2.732948000E0,1.368687803E-2,-4.928855617E-3,-1.846609175E-2,2.350788788E-2
2.742926000E0,-4.148308287E-3,-1.808763072E-3,-2.490446091E-2,2.531229461E-2
2.752904000E0,-2.110128795E-2,-7.056593439E-3,-2.625282884E-2,3.441323708E-2
2.762882000E0,7.527402792E-3,-1.147511504E-2,-7.092087865E-3,1.544790498E-2
2.772860000E0,5.435294156E-3,3.556331377E-3,-2.146162033E-2,2.242300298E-2
2.782838000E0,1.200646363E-2,-1.907394636E-2,-3.403605759E-2,4.082185463E-2
2.792816000E0,-2.597089940E-3,2.930350397E-3,-2.475535691E-2,2.506311085E-2
2.802793000E0,-1.300146330E-2,-9.403117625E-3,-1.906601608E-2,2.491926239E-2
2.812771000E0,2.926112307E-3,-3.900339520E-3,-2.639959395E-2,2.684610479E-2
2.822749000E0,-2.389211145E-3,-1.138504964E-2,-2.265737593E-2,2.546928286E-2
2.832727000E0,9.741598321E-4,8.511718735E-3,-2.625107467E-2,2.761371515E-2
2.842705000E0,-3.626544789E-3,1.651411758E-2,-2.535235763E-2,3.047310197E-2
2.852683000E0,-1.669884848E-2,6.210592696E-3,-2.789823532E-2,3.310188116E-2
2.862661000E0,7.788345069E-3,4.477797747E-3,-2.909691453E-2,3.045224830E-2
2.872638000E0,1.260489988E-2,2.329466762E-3,-3.583173752E-2,3.805552956E-2
2.882616000E0,1.760919829E-3,9.761332674E-3,-2.490387619E-2,2.680648249E-2
2.892594000E0,-5.325921531E-3,-5.409935284E-3,-1.876546919E-2,2.024291664E-2
2.902572000E0,1.039840623E-2,1.653720494E-3,-1.562083662E-2,1.883805139E-2
2.912550000E0,7.904174756E-3,-3.241997855E-3,-1.576994061E-2,1.793537163E-2
2.922528000E0,1.905928493E-3,5.437051747E-3,-1.681893110E-2,1.777837278E-2
2.932506000E0,-1.618727764E-2,1.392482431E-2,-2.130900800E-2,3.016624788E-2
2.942484000E0,-4.528275663E-3,7.078474816E-3,-2.684690595E-2,2.813123611E-2
2.952461000E0,5.975877238E-3,4.057730120E-3,-1.891340375E-2,2.024581744E-2
2.962439000E0,-1.913373985E-2,1.058755338E-2,-3.493068159E-2,4.121102769E-2
2.972417000E0,2.193689161E-3,1.069664050E-2,-1.981095135E-2,2.262087937E-2
2.982395000E0,-4.181010439E-4,6.319131637E-3,-3.298238933E-2,3.358488111E-2
2.992373000E0,6.725628470E-3,-4.727291130E-3,-2.609787762E-2,2.736202800E-2
3.002351000E0,1.340925178E-2,-1.203216283E-2,-3.702515423E-2,4.117575769E-2
3.012329000E0,5.422393737E-3,-1.073426368E-2,-9.782391787E-3,1.550232110E-2
3.022307000E0,-1.241804708E-3,6.037588203E-3,-1.502266645E-2,1.623807432E-2
3.032284000E0,2.413567310E-3,9.884562744E-3,-1.951215863E-2,2.200577702E-2
3.042262000E0,-1.091647753E-3,-1.355028274E-3,-2.175632000E-2,2.182579337E-2
3.052237417E0,-7.109193255E-3,1.136323222E-2,-3.702340007E-2,3.937506607E-2
3.062215417E0,1.071559484E-2,-2.209827248E-3,-1.891048014E-2,2.184750715E-2
3.072193417E0,-6.108084839E-3,-1.005784133E-2,-1.546822429E-2,1.943540159E-2
3.082171417E0,-4.601400120E-3,-5.579029452E-3,-3.013654947E-2,3.099209684E-2
3.092149417E0,-1.944364799E-3,-9.401774593E-4,-2.145460367E-2,2.156303566E-2
3.102127417E0,4.376241204E-3,4.346144032E-3,-3.043417275E-2,3.105284731E-2
3.112104417E0,-6.475183773E-3,-8.802581169E-3,-2.145226479E-2,2.407515534E-2
3.122082417E0,5.446221140E-3,-5.813840842E-3,-1.875786781E-2,2.037939339E-2
3.132060417E0,2.751347939E-3,2.110552490E-3,-5.885807276E-3,6.831330367E-3
3.142038417E0,-3.559957336E-3,5.864556301E-3,-1.741359293E-2,1.871629065E-2
3.152016417E0,5.674792455E-3,5.609371020E-3,-1.157631755E-2,1.405985208E-2
3.161994417E0,6.875309197E-3,6.698012939E-3,-3.118553996E-2,3.262929905E-2
3.171972417E0,1.582808158E-3,1.142943366E-2,-1.651663005E-2,2.014786102E-2
3.181950417E0,-5.119119674E-3,-4.805333186E-3,-4.392428398E-3,8.281910438E-3
3.191927417E0,3.398345778E-3,5.085085910E-3,-7.535891533E-3,9.705488856E-3
3.201905417E0,2.419022352E-2,-2.066963324E-3,-2.100729167E-2,3.210522628E-2
3.211883417E0,-2.962973749E-4,7.230438469E-3,-2.879110515E-2,2.968660924E-2
3.221861417E0,4.862826619E-3,1.612816480E-2,-1.906075358E-2,2.543771039E-2
3.231839417E0,4.260800950E-3,-3.345639752E-3,-2.430161297E-2,2.489811485E-2
3.241817417E0,1.680283070E-3,-1.802395089E-3,-2.460157514E-2,2.472467347E-2
3.251795417E0,2.981202900E-3,-3.780562961E-3,-2.490036786E-2,2.536155647E-2
3.261773417E0,-1.372185626E-2,3.347092420E-3,-8.283750415E-3,1.637415304E-2
3.271750417E0,3.333231549E-3,1.685057916E-3,-1.741476238E-2,1.781077768E-2
3.281728417E0,-1.026052729E-3,1.917756999E-2,-1.397250652E-2,2.375000870E-2
3.291706417E0,-5.983916017E-3,6.921723755E-3,-2.430102825E-2,2.596646847E-2
3.301684417E0,5.246288620E-3,5.358269652E-3,-3.013830364E-2,3.105723658E-2
3.311662417E0,4.755439991E-3,-6.362519804E-3,-3.148550212E-2,3.247202968E-2
3.321640417E0,-9.383192552E-3,-7.415886568E-3,-2.475009441E-2,2.748830387E-2
3.331618417E0,-4.177691687E-3,-2.453181054E-3,-7.684995532E-3,9.084622251E-3
3.341596417E0,8.846613443E-3,-1.714915261E-3,-2.040853679E-2,2.230945714E-2
3.351573417E0,7.711834480E-3,1.150182950E-2,-1.711480021E-2,2.201546864E-2
3.361551417E0,-1.383019877E-2,1.366531757E-2,-2.205511272E-2,2.940141662E-2
3.371529417E0,-7.264491648E-3,6.350861918E-3,-2.265503705E-2,2.462431704E-2
3.381507417E0,2.753942641E-3,-2.758414848E-3,-2.774562299E-2,2.801807716E-2
3.391485417E0,2.850952746E-3,-3.020251337E-3,-2.594935834E-2,2.627963181E-2
3.401463417E0,3.752827516E-4,-4.983664127E-3,-2.475067914E-2,2.525022501E-2
3.411441417E0,-5.132932579E-3,-4.591854997E-3,-3.178663373E-2,3.252417890E-2
3.421418417E0,6.963427422E-3,-3.395752218E-3,-1.472328901E-2,1.663717806E-2
3.431396417E0,-6.805951169E-3,-8.841127111E-3,-1.412511885E-2,1.800015229E-2
3.441374417E0,8.866537374E-3,-2.652635062E-3,-4.395936728E-3,1.024579023E-2
3.451352417E0,1.303873473E-2,3.281165063E-3,-2.909516037E-2,3.205156789E-2
3.461330417E0,3.589726745E-3,6.387260836E-3,-2.370578170E-2,2.481224143E-2
3.471308417E0,-1.053843677E-2,1.281134086E-3,-2.161013961E-2,2.407692024E-2
3.481286417E0,-1.389707287E-3,7.790985452E-3,-3.104111373E-2,3.203406753E-2
3.491264417E0,-1.002100843E-4,-6.034984365E-3,-2.490329146E-2,2.562430495E-2
3.501241417E0,1.166584619E-2,5.854880987E-3,-3.103994429E-2,3.367268537E-2
3.511219417E0,-5.343494012E-3,-2.840330685E-3,-1.951391280E-2,2.043069258E-2
3.521197417E0,3.112303871E-3,-9.674994880E-3,-1.083313644E-2,1.485425213E-2
3.531175417E0,-1.399823427E-2,-4.446917139E-3,-2.759827316E-2,3.126324225E-2
3.541153417E0,-3.893379963E-3,-1.113998735E-2,-1.262940109E-2,1.728466076E-2
3.551131417E0,3.956834815E-3,1.017675907E-2,-1.397718430E-2,1.773653427E-2
3.561109417E0,4.562875876E-3,-2.919660956E-3,-1.816905320E-2,1.895939742E-2
3.571087417E0,-5.587670084E-3,-4.575263523E-4,-1.622251511E-2,1.716395595E-2
3.581064417E0,-8.021648973E-4,3.494049395E-3,-3.328644454E-2,3.347893726E-2
3.591042417E0,-5.240642403E-3,-5.035594711E-3,-1.771764815E-2,1.915036822E-2
3.601020417E0,-1.034055420E-2,5.969888410E-3,-1.607048750E-2,2.002066925E-2
3.610998417E0,-9.472077083E-3,-2.106989343E-3,-1.517235518E-2,1.800999750E-2
3.620976417E0,-6.035595353E-3,5.112248054E-3,-1.771647871E-2,1.940198725E-2
3.630954417E0,3.631920344E-4,-5.197535176E-3,-2.535060346E-2,2.588048253E-2
3.640932417E0,8.654358820E-4,-4.804483512E-3,-1.577111006E-2,1.650938986E-2
3.650910417E0,-4.030321296E-3,-6.573375883E-3,-9.034532905E-3,1.187752268E-2
3.660887417E0,-1.294055404E-2,-2.546407599E-3,-2.954188764E-2,3.235220636E-2
3.670865417E0,-2.511274056E-3,1.647128672E-2,-2.624756634E-2,3.108929917E-2
3.680843417E0,2.937440146E-3,1.524606664E-3,-2.130725384E-2,2.156274672E-2
3.690821417E0,1.634766836E-2,-8.843246726E-3,-2.714452922E-2,3.289794432E-2
3.700799417E0,-4.826178738E-3,7.001684429E-3,-3.223511517E-2,3.333793989E-2
3.710777417E0,1.997203301E-3,1.420316091E-3,-2.819235027E-2,2.829867015E-2
3.720755417E0,3.642363106E-3,-6.851794710E-3,-2.175632000E-2,2.309873069E-2
3.730733417E0,-4.602722595E-3,1.444006450E-3,-2.040853679E-2,2.097089850E-2
3.740710417E0,1.786823451E-3,-1.785753365E-2,-2.789297283E-2,3.316778828E-2
3.750688417E0,3.359915181E-3,-2.038339376E-3,-4.091647625E-2,4.110476719E-2
3.760666417E0,-5.436187227E-3,-9.245297620E-3,-2.085994184E-2,2.345559279E-2
3.770644417E0,1.147863250E-2,-3.069788218E-5,-3.418282270E-2,3.605863717E-2
3.780622417E0,5.203280750E-3,2.268893262E-3,-2.849406660E-2,2.905398145E-2
3.790600417E0,1.123249670E-2,1.697510658E-3,-2.085935712E-2,2.375212209E-2
3.800578417E0,2.507609267E-3,-1.582293101E-3,-2.220655560E-2,2.240363514E-2
3.810556417E0,1.614771186E-2,-8.159286948E-3,-2.520033002E-2,3.102223710E-2
3.820533417E0,-9.602456287E-3,6.549877385E-3,-3.313324749E-2,3.511296271E-2
3.830511417E0,1.301306980E-3,-1.123304944E-3,-2.894254804E-2,2.899355619E-2
3.840489417E0,1.526032950E-2,-1.448702496E-3,-2.460157514E-2,2.898644329E-2
3.850467417E0,1.298456805E-2,-6.108503966E-3,-1.846492231E-2,2.338517017E-2
3.860445417E0,1.309986440E-3,3.324717684E-3,-1.427188396E-2,1.471246016E-2
3.870423417E0,-2.791634342E-4,3.181689307E-3,-2.774269938E-2,2.792594579E-2
3.880401417E0,-7.417785771E-3,-3.290045522E-3,-7.533552647E-3,1.107259503E-2
3.890378417E0,1.346915262E-3,7.260049134E-3,-1.157456338E-2,1.372927572E-2
3.900356417E0,3.339592681E-3,1.321750307E-2,-2.414841592E-2,2.773087194E-2
3.910334417E0,8.248134933E-3,1.597774518E-2,-2.130433023E-2,2.787820936E-2
3.920312417E0,2.085997610E-3,-4.003405832E-3,-3.777067423E-2,3.803948575E-2
3.930290417E0,-6.475597189E-4,-3.263577735E-3,-2.429751992E-2,2.452426854E-2
3.940268417E0,2.826080380E-3,5.906875525E-4,-3.940438628E-3,4.884946129E-3
3.950246417E0,-5.608762315E-3,-1.263345759E-3,-1.876020670E-2,1.962140700E-2
3.960224417E0,-3.107068785E-3,-1.377403010E-3,-2.369934976E-2,2.394181060E-2
3.970201417E0,7.872049331E-3,-1.037618567E-2,-3.956693888E-2,4.165545633E-2
3.980179417E0,7.861307357E-5,-1.093703415E-2,-2.564530313E-2,2.788021644E-2
3.990157417E0,-8.498243872E-3,5.578609183E-4,-2.444954753E-2,2.589037914E-2
4.000135417E0,7.890984260E-3,-3.164805472E-5,-2.534767985E-2,2.654757066E-2
4.010113417E0,-1.373581763E-4,1.703765351E-2,-1.322172403E-2,2.156651318E-2
4.020091417E0,-1.965642954E-2,3.918630341E-3,-2.310059488E-2,3.058379260E-2
4.030069417E0,1.088871240E-2,3.745507076E-3,-2.759125650E-2,2.989766406E-2
4.040047417E0,-1.073606467E-2,2.320677666E-3,-1.995771646E-2,2.278067330E-2
4.050027250E0,-7.490028577E-3,2.089182744E-3,-2.400048137E-2,2.522872011E-2
4.060005250E0,-5.652638131E-3,-2.918628557E-3,-1.681425333E-2,1.797748107E-2
4.069983250E0,1.789828143E-3,-5.370302126E-4,-1.576701701E-2,1.587736475E-2
4.079961250E0,-9.467253130E-3,1.692412617E-3,-2.744273722E-2,2.907915007E-2
4.089939250E0,4.949152992E-3,5.507711694E-4,-2.265211344E-2,2.319300988E-2
4.099917250E0,7.066972246E-3,1.038414337E-2,-1.037939250E-2,1.629430327E-2
4.109895250E0,-1.020107298E-2,3.684915304E-3,-2.085994184E-2,2.351122422E-2
4.119873250E0,-1.715117401E-3,2.902420806E-3,-1.427539229E-2,1.466807756E-2
4.129850250E0,-1.060109220E-2,8.100960972E-3,-2.385547042E-2,2.733298728E-2
4.139828250E0,1.424277808E-2,-5.651014159E-3,-2.939395308E-2,3.314807938E-2
4.149806250E0,7.956024256E-3,5.931369876E-3,-3.373434126E-2,3.516369223E-2
4.159784250E0,5.178345573E-3,4.299622122E-4,-6.041927934E-3,7.969003924E-3
4.169762250E0,6.915879966E-3,3.830063296E-3,-1.517293990E-2,1.710897091E-2
4.179740250E0,8.118637379E-3,-8.646652373E-3,-1.906426191E-2,2.245268252E-2
4.189718250E0,-8.725794208E-3,-3.593104882E-3,-2.520208418E-2,2.691087019E-2
4.199695250E0,-6.193859610E-3,-1.179309393E-2,-2.190834761E-2,2.564013760E-2
4.209673250E0,-6.734108075E-4,1.412559394E-4,-3.523122847E-2,3.523794680E-2
4.219651250E0,-9.910100915E-3,5.184844891E-3,-2.490153730E-2,2.729797202E-2
4.229629250E0,2.268814234E-2,-2.309156824E-3,-2.340465009E-2,3.267815255E-2
4.239607250E0,-1.687712003E-3,-2.807440097E-3,-2.100846112E-2,2.126230303E-2
4.249585250E0,-1.956442954E-2,7.388084885E-3,-3.298414350E-2,3.905514593E-2
4.259563250E0,1.032646378E-2,-1.031304488E-2,-2.834379315E-2,3.188048556E-2
4.269541250E0,2.033986398E-2,-9.201123733E-3,-2.999153852E-2,3.738800781E-2
4.279518250E0,1.500438934E-4,9.327012459E-3,-2.759651899E-2,2.913045717E-2
4.289496250E0,9.061120605E-3,4.665584732E-3,-1.592138350E-2,1.890402180E-2
4.299474250E0,-4.030581680E-5,-2.174798772E-4,-2.086169600E-2,2.086286850E-2
4.309452250E0,8.231825541E-3,-1.019768114E-2,-2.550146163E-2,2.867194094E-2
4.319430250E0,4.927373256E-3,-1.476796540E-3,-1.233002365E-2,1.335999320E-2
4.329408250E0,-1.047257223E-2,-1.047998289E-2,-2.400925219E-2,2.821256814E-2
4.339386250E0,1.121065301E-2,-1.187057868E-2,-1.328329521E-1,1.338326662E-1
4.349364250E0,-2.035388360E-3,7.800066909E-3,-2.894839525E-2,3.004984920E-2
4.359341250E0,1.510612290E-2,-7.070042035E-3,2.115990400E-1,2.122553514E-1
4.369319250E0,2.143597252E-2,4.577985219E-2,-6.547010422E-2,8.271414831E-2
4.379297250E0,-4.062223339E-2,9.049251443E-3,-1.927084404E-1,1.971512054E-1
4.389275250E0,-8.897432143E-2,-7.187698977E-2,7.463503003E-2,1.365764227E-1
4.399253250E0,1.810433069E-2,7.543683861E-2,-7.819423020E-2,1.101490855E-1
4.409231250E0,3.722739480E-3,8.789460565E-2,1.425878620E-1,1.675428867E-1
4.419209250E0,3.929074016E-2,-7.020258475E-3,-5.620752990E-2,6.893716494E-2
4.429186250E0,3.634501342E-4,-1.233829746E-1,-3.481549144E-2,1.282014390E-1
4.439164250E0,-5.972147353E-2,1.376195194E-2,-1.919944954E-1,2.015389094E-1
4.449142250E0,2.657199910E-1,4.507180005E-2,1.726548296E-1,3.200754145E-1
4.459120250E0,4.993180927E-2,-2.802993472E-2,-1.828617293E-1,1.916175223E-1
4.469098250E0,-6.248461412E-3,-1.024271475E-1,4.616610646E-2,1.125241006E-1
4.479076250E0,-9.991290875E-2,9.933082757E-2,-6.026549757E-2,1.532355469E-1
4.489054250E0,-3.137067286E-2,7.745930828E-2,3.628489673E-2,9.110794304E-2
4.499032250E0,-7.099638996E-2,-5.448974585E-3,1.105708480E-3,7.121377186E-2
4.509009250E0,-9.661381831E-2,-2.251206349E-2,-9.274794996E-2,1.358057624E-1
4.518987250E0,-4.448324125E-2,3.516506357E-2,2.449398637E-3,5.675684982E-2
4.528965250E0,6.503554189E-4,3.408045989E-2,-3.466287911E-2,4.861497605E-2
4.538943250E0,2.260868324E-1,-7.587004420E-2,-3.239883721E-2,2.406682448E-1
4.548921250E0,-2.959463821E-2,-1.329239129E-1,-9.028100967E-3,1.364775287E-1
4.558899250E0,7.001790410E-2,-2.064708492E-2,1.871109009E-2,7.535856887E-2
4.568877250E0,-6.210601833E-2,3.161925718E-2,1.252473593E-2,7.080821949E-2
4.578855250E0,-2.730257581E-1,-1.736601853E-1,5.348857462E-2,3.279663887E-1
4.588832250E0,-3.656494182E-1,-7.168595941E-2,-1.702773517E-1,4.096739561E-1
4.598810250E0,-4.013141446E-1,-9.030692015E-2,-4.290710235E-1,5.943991299E-1
4.608788250E0,-9.345284642E-1,-9.211643239E-2,-1.122832636E0,1.463756132E0
4.618766250E0,7.785794221E-1,4.901793241E-1,-1.170828336E0,1.489060334E0
4.628744250E0,1.131716968E0,8.224574400E-1,-5.396436256E-1,1.499478169E0
4.638722250E0,1.183426601E0,5.375830668E-1,4.497556658E0,4.681614034E0
4.648700250E0,5.337834730E-1,-7.462578412E-1,8.515604210E-1,1.251791002E0
4.658677250E0,-8.183033587E-1,4.612119985E-1,-1.461855953E0,1.737630491E0
4.668655250E0,-5.790156329E-1,1.731921887E-1,-1.020660728E0,1.186171556E0
4.678633250E0,-1.347182406E-1,3.352761661E-1,1.641044462E-1,3.968493180E-1
4.688611250E0,2.789747336E-1,3.479852720E-1,3.762121940E-1,5.834863035E-1
4.698589250E0,7.896835770E-1,4.958389903E-1,8.381515861E-2,9.362058731E-1
4.708567250E0,-8.210356895E-2,1.565035775E-1,3.536027652E-1,3.953090960E-1
4.718545250E0,-5.418724380E-1,4.992422160E-2,1.031377505E0,1.166129377E0
4.728523250E0,-2.688307098E-1,-2.452450152E-1,5.811956942E-1,6.857138638E-1
4.738500250E0,1.321189340E-1,-6.924609721E-1,6.606423980E-1,9.661293851E-1
4.748478250E0,8.929595849E-1,-1.138246042E0,1.104195220E0,1.819952735E0
4.758456250E0,1.364672598E0,-1.091998586E0,1.248079410E0,2.147671862E0
4.768434250E0,1.237363949E0,-1.313824626E0,1.633737196E0,2.434399704E0
4.778412250E0,1.282849878E0,-1.572651334E0,6.868771005E-1,2.142600331E0
4.788390250E0,9.979497041E-1,-1.678265059E0,-3.474637735E-1,1.983231780E0
4.798368250E0,3.724885409E-1,-1.324672234E0,-1.972347701E-1,1.390109994E0
4.808346250E0,3.995124713E-1,-1.222255036E0,1.261889949E0,1.801633656E0
4.818323250E0,1.116279369E0,-8.915813962E-1,2.353575051E0,2.753236738E0
4.828301250E0,8.509914869E-1,-2.522692206E-1,3.383946251E0,3.498416570E0
4.838279250E0,8.608826369E-2,-2.750999482E-1,4.421769142E0,4.431154873E0
4.848257250E0,-4.360922138E-1,-6.959641121E-1,5.419629237E0,5.481507414E0
4.858235250E0,-4.852197888E-1,-9.504646119E-1,6.216564385E0,6.307495063E0
4.868213250E0,-1.192576177E-1,-9.285283439E-1,6.859290329E0,6.922878815E0
4.878191250E0,4.040165815E-1,-1.074750324E0,7.348160827E0,7.437323793E0
4.888169250E0,1.010346240E0,-1.424831238E0,7.620834619E0,7.818443827E0
4.898146250E0,1.910576545E0,-1.698845066E0,7.665820758E0,8.080914873E0
4.908124250E0,2.821826805E0,-1.542459383E0,7.667946805E0,8.315004250E0
4.918102250E0,3.300930699E0,-1.398399338E0,7.595957056E0,8.399418300E0
4.928080250E0,3.343672676E0,-1.548371795E0,7.174735335E0,8.065632604E0
4.938058250E0,3.257475946E0,-1.712923407E0,6.358176346E0,7.346540859E0
4.948036250E0,2.837934715E0,-2.103182659E0,5.440978006E0,6.487024927E0
4.958014250E0,2.158818331E0,-2.366613465E0,4.389277918E0,5.433885951E0
4.967991250E0,1.703647091E0,-1.805747955E0,3.433921233E0,4.237328655E0
4.977969250E0,2.445074036E0,-1.227708296E0,3.135498058E0,4.161370300E0
4.987947250E0,3.814917619E0,-1.242380714E0,3.726743946E0,5.475922454E0
4.997925250E0,5.794266191E0,-1.340678549E0,4.706374177E0,7.584253263E0
5.007903250E0,8.140421711E0,-1.930019999E0,5.353334675E0,9.932252261E0
5.017881250E0,9.223075204E0,-3.340614874E0,5.171833009E0,1.108930479E1
5.027859250E0,7.595639552E0,-4.487581893E0,3.962486140E0,9.671268161E0
5.037837250E0,5.226938338E0,-4.624666355E0,2.412442480E0,7.384328135E0
5.047814250E0,3.943665707E0,-4.566489483E0,1.373855358E0,6.188117965E0
5.057788917E0,3.973432712E0,-4.361631698E0,6.008557874E-1,5.930685143E0
5.067766917E0,4.606535894E0,-4.179542971E0,3.113759279E-1,6.227817222E0
5.077744917E0,5.610574157E0,-4.065180203E0,5.523162961E-1,6.950488166E0
5.087722917E0,6.547581695E0,-4.357294233E0,8.507681233E-1,7.910792975E0
5.097700917E0,6.586128879E0,-5.200810640E0,9.192986602E-1,8.442193729E0
5.107678917E0,5.811717206E0,-6.055314549E0,3.354544696E-1,8.399727429E0
5.117655917E0,4.802222906E0,-6.491622671E0,-7.360317189E-1,8.108282952E0
5.127633917E0,3.707500759E0,-6.370434449E0,-1.814191627E0,7.590737001E0
5.137611917E0,3.492499809E0,-6.360976578E0,-2.848643598E0,7.795790421E0
5.147589917E0,3.577530604E0,-6.565643744E0,-3.571592757E0,8.286294577E0
5.157567917E0,3.944790711E0,-6.569830935E0,-3.908866003E0,8.602516242E0
5.167545917E0,4.453569224E0,-6.437176323E0,-4.028212352E0,8.803295553E0
5.177523917E0,4.529277803E0,-6.433905391E0,-3.720054731E0,8.703350113E0
5.187501917E0,3.963325800E0,-6.997851214E0,-3.162308418E0,8.641647270E0
5.197478917E0,2.861387020E0,-6.869881391E0,-3.138999663E0,8.076888317E0
5.207456917E0,1.385455649E0,-6.607157806E0,-3.412632691E0,7.564395779E0
5.217434917E0,-1.970979452E-2,-6.326676226E0,-3.735514185E0,7.347195844E0
5.227412917E0,-1.318023219E0,-5.664437538E0,-3.894305266E0,6.999189334E0
5.237390917E0,-2.259123808E0,-4.973242854E0,-3.857498798E0,6.687083208E0
5.247368917E0,-2.453439063E0,-4.370316567E0,-3.848223360E0,6.318849038E0
5.257346917E0,-2.348875059E0,-3.925936949E0,-3.745433401E0,5.912568506E0
5.267323917E0,-2.436289764E0,-4.126095911E0,-3.466749256E0,5.914264594E0
5.277301917E0,-3.412173100E0,-4.186645876E0,-2.972444941E0,6.164929673E0
5.287279917E0,-4.740894969E0,-3.594135527E0,-2.636316580E0,6.507231393E0
5.297257917E0,-5.981575313E0,-2.889602174E0,-2.473140671E0,7.088403821E0
5.307235917E0,-6.796839727E0,-2.365046119E0,-2.424644449E0,7.594035431E0
5.317213917E0,-6.783228579E0,-2.082086197E0,-2.220806419E0,7.435001952E0
5.327191917E0,-6.293635365E0,-2.061374483E0,-1.633714977E0,6.821153531E0
5.337169917E0,-5.841290669E0,-1.898801714E0,-9.071019530E-1,6.208780765E0
5.347146917E0,-5.804367841E0,-1.728523778E0,-6.798282820E-1,6.094312675E0
5.357124917E0,-5.885043045E0,-1.512483485E0,-1.247222793E0,6.202975304E0
5.367102917E0,-5.880075835E0,-1.649860893E0,-1.777517306E0,6.360573918E0
5.377080917E0,-6.721681956E0,-9.102068245E-1,-2.050636071E0,7.086225588E0
5.387058917E0,-7.464649642E0,-8.601195753E-1,-1.821411184E0,7.731645275E0
5.397036917E0,-8.263481627E0,-8.919714054E-1,-1.000960216E0,8.371538863E0
5.407014917E0,-9.161066067E0,-1.134767095E0,-4.220332416E-1,9.240721828E0
5.416992917E0,-1.005223845E1,-1.077936837E0,-2.799531372E-1,1.011374409E1
5.426969917E0,-1.096112497E1,-6.248776111E-1,-8.411137855E-1,1.101109464E1
5.436947917E0,-1.101437907E1,-1.251050380E0,-1.686953291E0,1.121282680E1
5.446925917E0,-1.086431379E1,-1.783896033E0,-2.349030011E0,1.125759927E1
5.456903917E0,-1.100678471E1,-1.722085701E0,-2.954746881E0,1.152585866E1
5.466881917E0,-1.071431400E1,-2.191996602E0,-3.065767672E0,1.135783012E1
5.476859917E0,-1.031642852E1,-2.813249232E0,-3.117795320E0,1.113838930E1
5.486837917E0,-9.713726764E0,-3.411299233E0,-2.990583296E0,1.072086930E1
5.496814917E0,-9.113888977E0,-4.147315749E0,-2.736943945E0,1.038046542E1
5.506792917E0,-8.665712761E0,-4.719231620E0,-2.600794744E0,1.020440385E1
5.516770917E0,-8.741731242E0,-4.780316312E0,-2.295505476E0,1.022441365E1
5.526748917E0,-8.705337587E0,-4.996043487E0,-1.601990031E0,1.016413917E1
5.536726917E0,-8.337996789E0,-5.532172936E0,-3.406447506E-1,1.001215095E1
5.546704917E0,-7.990332456E0,-6.136448759E0,1.147832991E0,1.013996729E1
5.556682917E0,-7.587548760E0,-6.696826612E0,2.528337218E0,1.043124498E1
5.566659917E0,-7.107740276E0,-7.415889126E0,3.522398962E0,1.085922087E1
5.576637917E0,-6.570561837E0,-8.062465462E0,4.033885905E0,1.115562045E1
5.586615917E0,-6.178271554E0,-8.700941650E0,4.016951199E0,1.140233844E1
5.596593917E0,-5.725190109E0,-9.342492889E0,3.542237687E0,1.151552964E1
5.606571917E0,-5.052500693E0,-9.844816661E0,3.028012201E0,1.147244683E1
5.616549917E0,-4.421974379E0,-1.028840047E1,2.831675855E0,1.155090602E1
5.626527917E0,-3.966497037E0,-1.092663342E1,3.055069314E0,1.201906257E1
5.636505917E0,-3.564918160E0,-1.149622473E1,3.542625650E0,1.254679325E1
5.646482917E0,-3.192739960E0,-1.193841924E1,4.001610444E0,1.298970087E1
5.656460917E0,-2.884472412E0,-1.235053100E1,4.199643652E0,1.336011991E1
5.666438917E0,-2.548919417E0,-1.261833465E1,4.198162552E0,1.354045525E1
5.676416917E0,-2.293090137E0,-1.290103934E1,4.121682141E0,1.373620552E1
5.686394917E0,-1.932985414E0,-1.327445656E1,4.072754979E0,1.401909279E1
5.696372917E0,-1.383194677E0,-1.348867983E1,4.083745113E0,1.416102699E1
5.706350917E0,-6.651579103E-1,-1.339602719E1,4.253898211E0,1.407094985E1
5.716328917E0,3.244343685E-1,-1.295193116E1,4.745360195E0,1.379768901E1
5.726305917E0,1.313285805E0,-1.235512223E1,5.475689417E0,1.357781056E1
5.736283917E0,2.082725006E0,-1.190104618E1,6.091782464E0,1.353079662E1
5.746261917E0,2.881378065E0,-1.146599930E1,6.251534243E0,1.337359936E1
5.756239917E0,4.032553909E0,-1.085257492E1,6.035147502E0,1.305614334E1
5.766217917E0,5.587630852E0,-1.005393765E1,5.826978439E0,1.289406680E1
5.776195917E0,7.771315638E0,-9.080189134E0,5.668863881E0,1.322797033E1
5.786173917E0,1.043812545E1,-7.905076543E0,5.393835415E0,1.416114962E1
5.796150917E0,1.303695202E1,-6.663162437E0,4.801798983E0,1.540834596E1
5.806128917E0,1.494982535E1,-5.645379124E0,3.837765030E0,1.643459838E1
5.816106917E0,1.585638819E1,-4.503767570E0,2.701227690E0,1.670346071E1
5.826084917E0,1.585268690E1,-3.196264077E0,1.712148943E0,1.626207982E1
5.836062917E0,1.549912331E1,-1.826529252E0,1.132937794E0,1.564744646E1
5.846040917E0,1.457848973E1,-1.003745903E0,1.164827412E0,1.465935509E1
5.856018917E0,1.377437011E1,5.423935711E-2,1.343045794E0,1.383979718E1
5.865996917E0,1.333046353E1,1.384358127E0,1.619331411E0,1.349962739E1
5.875973917E0,1.245849867E1,1.859397621E0,1.999641334E0,1.275421946E1
5.885951917E0,1.159163258E1,2.192658507E0,2.013581096E0,1.196779871E1
5.895929917E0,1.099531013E1,2.631216053E0,1.759436545E0,1.144184250E1
5.905907917E0,1.047049212E1,2.797029641E0,1.513044233E0,1.094275482E1
5.915885917E0,1.021431859E1,2.807490894E0,1.228619292E0,1.066413685E1
5.925863917E0,1.049882773E1,2.432485566E0,9.711967921E-1,1.082060964E1
5.935841917E0,1.094783074E1,1.846316230E0,9.372956590E-1,1.114192105E1
5.945818917E0,1.091290416E1,1.853826393E0,1.082110141E0,1.112201024E1
5.955796917E0,1.045509524E1,2.015192004E0,1.376314112E0,1.073611921E1
5.965774917E0,9.622176324E0,2.112087384E0,1.651832575E0,9.988780765E0
5.975752917E0,8.761001326E0,2.084946363E0,1.893579859E0,9.202596930E0
5.985730917E0,8.079187914E0,2.105253158E0,2.239083792E0,8.644007429E0
5.995708917E0,7.318758688E0,1.771040930E0,2.558165034E0,7.952673956E0
6.005686917E0,6.481665448E0,9.591252154E-1,2.584740337E0,7.043634770E0
6.015663917E0,6.324139704E0,-4.426225305E-2,2.424937395E0,6.773257969E0
6.025641917E0,6.611954277E0,-1.039540218E0,2.362685306E0,7.097947948E0
6.035619917E0,6.659117333E0,-1.917013160E0,2.446319493E0,7.348691188E0
6.045597917E0,6.355810563E0,-2.585943986E0,2.356622620E0,7.255143306E0
6.055576500E0,5.883201172E0,-2.849831752E0,2.100802550E0,6.866365006E0
6.065554500E0,5.377125826E0,-3.104238843E0,1.911389016E0,6.496398149E0
6.075532500E0,4.933524472E0,-3.485210086E0,1.937050106E0,6.343383653E0
6.085510500E0,4.569525065E0,-3.880988817E0,2.077153194E0,6.344856099E0
6.095487500E0,4.297951719E0,-4.309629486E0,2.269001509E0,6.495664949E0
6.105465500E0,3.921688946E0,-4.867460876E0,2.430377937E0,6.706605437E0
6.115443500E0,3.452918837E0,-5.402269439E0,2.412782495E0,6.850451295E0
6.125421500E0,3.158487555E0,-5.590742156E0,2.338565541E0,6.833837157E0
6.135399500E0,2.743962650E0,-5.847591628E0,2.181594113E0,6.817845096E0
6.145377500E0,2.516225880E0,-5.999861895E0,2.034471151E0,6.816803378E0
6.155355500E0,2.594813335E0,-6.121045439E0,1.993879488E0,6.940879550E0
6.165332500E0,2.942166889E0,-6.294129454E0,2.115654185E0,7.262809665E0
6.175310500E0,3.151057206E0,-6.604351727E0,2.243784807E0,7.653835215E0
6.185288500E0,2.917137297E0,-7.040346438E0,2.139758747E0,7.915474432E0
6.195266500E0,2.468420506E0,-7.107639704E0,1.874240777E0,7.753993839E0
6.205244500E0,2.135405788E0,-6.896236546E0,1.644865032E0,7.404297222E0
6.215222500E0,2.045081508E0,-6.772912336E0,1.695495780E0,7.275259846E0
6.225200500E0,2.017120416E0,-6.939580202E0,1.995745042E0,7.497302609E0
6.235178500E0,1.853166535E0,-7.120053343E0,2.350109699E0,7.723496709E0
6.245155500E0,1.602799578E0,-7.143866129E0,2.660501541E0,7.789868947E0
6.255133500E0,1.283892437E0,-7.114876803E0,2.788174325E0,7.748791375E0
6.265111500E0,9.505654764E-1,-6.987187062E0,2.528780144E0,7.491267368E0
6.275089500E0,6.287399894E-1,-6.847693546E0,2.154773812E0,7.206196713E0
6.285067500E0,1.114625484E-1,-6.709606871E0,1.822366619E0,6.953579536E0
6.295045500E0,-5.529431176E-1,-6.449268950E0,1.464825462E0,6.636605285E0
6.305023500E0,-1.280151388E0,-6.082497670E0,1.282259017E0,6.346633255E0
6.315000500E0,-2.070103791E0,-5.687763836E0,1.371890986E0,6.206292938E0
6.324978500E0,-3.094279865E0,-5.193508637E0,1.413452117E0,6.208457678E0
6.334956500E0,-4.108794585E0,-4.602249300E0,1.407833236E0,6.328102874E0
6.344934500E0,-4.882484127E0,-4.096614250E0,1.331684654E0,6.511089277E0
6.354912500E0,-5.366134815E0,-3.564909389E0,1.087923589E0,6.533571729E0
6.364890500E0,-5.676362350E0,-3.130433199E0,7.799684282E-1,6.529092762E0
6.374868500E0,-6.160180269E0,-2.751624257E0,5.032116714E-1,6.765536119E0
6.384846500E0,-7.140465388E0,-2.508935571E0,4.485827436E-1,7.581703644E0
6.394823500E0,-8.778207927E0,-2.319788085E0,5.617572105E-1,9.096918288E0
6.404801500E0,-1.068186897E1,-2.067345659E0,7.564051723E-1,1.090634639E1
6.414779500E0,-1.221219991E1,-1.688265698E0,8.405195622E-1,1.235696326E1
6.424757500E0,-1.309786129E1,-1.309995284E0,8.101830380E-1,1.318811794E1
6.434735500E0,-1.336540416E1,-9.993768632E-1,7.253868628E-1,1.342233096E1
6.444713500E0,-1.344335339E1,-8.716722116E-1,7.674776061E-1,1.349342746E1
6.454691500E0,-1.387471067E1,-1.035395127E0,7.915434301E-1,1.393578775E1
6.464668500E0,-1.464930770E1,-1.132767932E0,6.791517591E-1,1.470872620E1
6.474646500E0,-1.512916764E1,-1.125146964E0,6.424848931E-1,1.518454662E1
6.484624500E0,-1.530805969E1,-1.065770828E0,8.414492695E-1,1.536816827E1
6.494602500E0,-1.503437726E1,-1.104128855E0,1.334513537E0,1.513382062E1
6.504580500E0,-1.426414810E1,-1.292760032E0,1.884345936E0,1.444603437E1
6.514558500E0,-1.324605313E1,-1.571191285E0,2.289823590E0,1.353402592E1
6.524536500E0,-1.217958063E1,-1.870323435E0,2.479077934E0,1.256925302E1
6.534513500E0,-1.128335801E1,-2.207271576E0,2.406422771E0,1.174636482E1
6.544491500E0,-1.033497705E1,-2.531021674E0,2.254210246E0,1.087654749E1
6.554469500E0,-9.431975169E0,-2.890964575E0,2.224845675E0,1.011285173E1
6.564447500E0,-8.566864411E0,-3.308838766E0,2.218243876E0,9.447760883E0
6.574425500E0,-7.703581492E0,-3.640187028E0,2.275951217E0,8.819074971E0
6.584403500E0,-6.901037110E0,-4.033132784E0,2.483501645E0,8.370080864E0
6.594381500E0,-6.173223653E0,-4.527547612E0,2.729151068E0,8.127462285E0
6.604359500E0,-5.629965863E0,-5.172217171E0,2.776400664E0,8.133679778E0
6.614336500E0,-4.983397713E0,-5.638143779E0,2.793799639E0,8.026720031E0
6.624314500E0,-4.207252341E0,-5.949557129E0,2.731064570E0,7.781832431E0
6.634292500E0,-3.714526774E0,-6.460787964E0,2.591637128E0,7.890251788E0
6.644270500E0,-3.201205559E0,-6.851556217E0,2.516077653E0,7.970080701E0
6.654248500E0,-2.702506476E0,-7.199680141E0,2.526535398E0,8.094585629E0
6.664226500E0,-2.350926263E0,-7.547485977E0,2.844454360E0,8.401328435E0
6.674204500E0,-2.174472497E0,-7.943868726E0,3.478452458E0,8.940526410E0
6.684181500E0,-2.050928432E0,-8.512333277E0,4.257224692E0,9.736020098E0
6.694159500E0,-1.646711583E0,-9.111346607E0,4.927570837E0,1.048852947E1
6.704137500E0,-1.135547114E0,-9.576689664E0,5.202934349E0,1.095778162E1
6.714115500E0,-7.536660442E-1,-9.910996617E0,5.097220783E0,1.117038612E1
6.724093500E0,-5.421971047E-1,-1.016609894E1,4.572657419E0,1.116031994E1
6.734071500E0,-3.152893232E-1,-1.036201926E1,3.920407529E0,1.108334091E1
6.744049500E0,-3.184700623E-2,-1.034178789E1,3.372207381E0,1.087774672E1
6.754026500E0,3.388229775E-1,-1.033289545E1,2.966888916E0,1.075574075E1
6.764004500E0,7.345335160E-1,-1.039034317E1,2.874544717E0,1.080563640E1
6.773982500E0,1.089757860E0,-1.049884176E1,2.956426201E0,1.096146461E1
6.783960500E0,1.522491287E0,-1.040759596E1,3.124135456E0,1.097252277E1
6.793938500E0,2.070619808E0,-1.018038720E1,3.486292697E0,1.095819267E1
6.803916500E0,2.677842628E0,-9.805320473E0,3.975140684E0,1.091406864E1
6.813894500E0,3.362412125E0,-9.174211192E0,4.402662487E0,1.071706132E1
6.823872500E0,4.092365663E0,-8.538087924E0,4.790945089E0,1.061129384E1
6.833849500E0,5.088497906E0,-7.878848857E0,5.048539789E0,1.065161135E1
6.843827500E0,6.614037639E0,-7.134035205E0,4.970230368E0,1.092442869E1
6.853805500E0,8.523488011E0,-6.251602655E0,4.637140805E0,1.154276650E1
6.863783500E0,1.050590988E1,-5.147998003E0,4.016715556E0,1.236972230E1
6.873761500E0,1.206026118E1,-3.790104375E0,3.009931440E0,1.299517134E1
6.883739500E0,1.288487763E1,-2.253526853E0,1.765657983E0,1.319909099E1
6.893717500E0,1.303650997E1,-9.789870375E-1,7.628078735E-1,1.309545279E1
6.903694500E0,1.275371523E1,-1.149012959E-1,1.086811741E-1,1.275469585E1
6.913672500E0,1.225103478E1,6.138114631E-1,-2.936728978E-1,1.226991693E1
6.923650500E0,1.200027460E1,1.697160190E0,-3.756812668E-1,1.212551358E1
6.933628500E0,1.200520848E1,2.815837795E0,-1.697680593E-2,1.233102840E1
6.943606500E0,1.213716844E1,3.545705963E0,6.645408829E-1,1.266193126E1
6.953584500E0,1.221910898E1,3.999099650E0,1.181077043E0,1.291101721E1
6.963562500E0,1.214759286E1,4.405799226E0,1.249658743E0,1.298216954E1
6.973540500E0,1.196952526E1,4.803573028E0,9.983348894E-1,1.293601644E1
6.983517500E0,1.157877572E1,5.019475034E0,7.487956790E-1,1.264214664E1
6.993495500E0,1.090836204E1,4.963817727E0,6.109205997E-1,1.200021136E1
7.003473500E0,1.009072716E1,4.752253770E0,5.683037531E-1,1.116824336E1
7.013451500E0,9.275483798E0,4.368215078E0,6.140501026E-1,1.027097659E1
7.023429500E0,8.429982846E0,3.783040354E0,8.298088519E-1,9.277100185E0
7.033407500E0,7.693851725E0,3.121601565E0,1.191239431E0,8.388015384E0
7.043385500E0,7.125436875E0,2.457747291E0,1.622975396E0,7.710150552E0
7.053362417E0,6.670776097E0,1.763520241E0,2.163702657E0,7.231242394E0
7.063340417E0,6.297614980E0,1.007314458E0,2.776250975E0,6.955731905E0
7.073318417E0,5.879886970E0,2.093572176E-1,3.267525848E0,6.730053966E0
7.083296417E0,5.532491024E0,-4.288833278E-1,3.469543641E0,6.544473311E0
7.093274417E0,5.400771382E0,-9.106383491E-1,3.530997877E0,6.516558887E0
7.103252417E0,5.408978534E0,-1.514984924E0,3.568460988E0,6.654783386E0
7.113230417E0,5.279015395E0,-2.278854067E0,3.487039679E0,6.724628252E0
7.123207417E0,5.122463213E0,-2.839489782E0,3.177216772E0,6.663110235E0
7.133185417E0,4.948526673E0,-3.336776762E0,2.762215319E0,6.576612263E0
7.143163417E0,4.740130153E0,-3.849306849E0,2.414253070E0,6.566172018E0
7.153141417E0,4.569344094E0,-4.290176969E0,2.141461456E0,6.623471978E0
7.163119417E0,4.499247673E0,-4.727663890E0,2.063805755E0,6.844949208E0
7.173097417E0,4.484509181E0,-5.242206003E0,2.154663008E0,7.227317555E0
7.183075417E0,4.393559834E0,-5.683595356E0,2.213096572E0,7.516942239E0
7.193052417E0,4.092013368E0,-6.085426540E0,2.221041769E0,7.662246154E0
7.203030417E0,3.580713536E0,-6.331549881E0,2.193146750E0,7.597363094E0
7.213008417E0,2.797420235E0,-6.462906411E0,2.191097885E0,7.375339259E0
7.222986417E0,2.012374231E0,-6.552288703E0,2.247194026E0,7.213322278E0
7.232964417E0,1.589190330E0,-6.568617638E0,2.451969365E0,7.189187530E0
7.242942417E0,1.523869768E0,-6.559425815E0,2.772697915E0,7.282588813E0
7.252920417E0,1.659578674E0,-6.495642048E0,3.145656133E0,7.405587046E0
7.262898417E0,1.802806221E0,-6.585817223E0,3.374928382E0,7.616642328E0
7.272875417E0,1.948221504E0,-6.636407332E0,3.397000744E0,7.705652689E0
7.282853417E0,1.860733125E0,-6.639448469E0,3.433162850E0,7.702675567E0
7.292831417E0,1.481221054E0,-6.755833789E0,3.397745972E0,7.705840881E0
7.302809417E0,1.109804747E0,-6.839136731E0,3.052711424E0,7.571294793E0
7.312787417E0,7.558567035E-1,-6.702660964E0,2.398302450E0,7.158829373E0
7.322765417E0,4.188506752E-2,-6.595497873E0,1.766336552E0,6.828051799E0
7.332743417E0,-9.614255100E-1,-6.356060239E0,1.230296273E0,6.545033972E0
7.342720417E0,-2.061624159E0,-5.854044616E0,8.451296532E-1,6.263735041E0
7.352698417E0,-3.181853029E0,-5.297343493E0,7.091690254E-1,6.220044814E0
7.362676417E0,-4.119768054E0,-4.710948454E0,8.732565147E-1,6.318868657E0
7.372654417E0,-4.341519030E0,-4.144987096E0,1.266586432E0,6.134651311E0
7.382632417E0,-3.629865523E0,-3.801882421E0,1.740629561E0,5.537149531E0
7.392610417E0,-3.262628220E0,-3.558371032E0,1.604730037E0,5.087426245E0
7.402588417E0,-4.180148157E0,-3.231675984E0,7.080361274E-1,5.330917692E0
7.412565417E0,-6.000129697E0,-2.655332310E0,-5.258579376E-1,6.582467063E0
7.422543417E0,-8.235423762E0,-1.781569426E0,-1.754466558E0,8.606645518E0
7.432521417E0,-1.033790300E1,-9.188677204E-1,-2.485818604E0,1.067219989E1
7.442499417E0,-1.154778781E1,-2.462192345E-1,-2.408011898E0,1.179875199E1
7.452477417E0,-1.167595878E1,1.349952525E-1,-1.298605639E0,1.174872818E1
7.462455417E0,-1.108334231E1,1.836446714E-1,6.386435647E-1,1.110324581E1
7.472433417E0,-1.020609507E1,8.835493684E-2,2.174996992E0,1.043565020E1
7.482411417E0,-9.931199917E0,1.202620232E-1,2.368819327E0,1.021050928E1
7.492388417E0,-1.051842994E1,1.059152949E-1,1.373251340E0,1.060822349E1
7.502366417E0,-1.178570400E1,-1.033021742E-1,-7.805009633E-3,1.178615930E1
7.512344417E0,-1.323334128E1,-2.443235672E-1,-1.058730780E0,1.327787356E1
7.522322417E0,-1.417788646E1,-3.720729500E-1,-1.332126703E0,1.424519092E1
7.532300417E0,-1.420191852E1,-4.738431537E-1,-6.199627340E-1,1.422333895E1
7.542278417E0,-1.353328356E1,-5.801560593E-1,8.684168474E-1,1.357352176E1
7.552256417E0,-1.267758098E1,-7.867124605E-1,2.235166157E0,1.289712928E1
7.562233417E0,-1.189429147E1,-1.069709512E0,3.027777143E0,1.232014134E1
7.572211417E0,-1.130593060E1,-1.466419120E0,3.120876510E0,1.182008130E1
7.582189417E0,-1.079761577E1,-1.853552744E0,2.655600697E0,1.127281594E1
7.592167417E0,-1.016320106E1,-2.287854102E0,2.085566022E0,1.062424199E1
7.602145417E0,-9.384267737E0,-2.760140727E0,1.683215897E0,9.925526361E0
7.612123417E0,-8.469273797E0,-3.254895862E0,1.542175208E0,9.203328207E0
7.622101417E0,-7.364625417E0,-3.771056485E0,1.626483871E0,8.432320222E0
7.632078417E0,-6.267936852E0,-4.314261650E0,1.762529576E0,7.810659157E0
7.642056417E0,-5.379857646E0,-4.811624059E0,1.849273020E0,7.450798956E0
7.652034417E0,-4.703089796E0,-5.248638525E0,1.915258849E0,7.303114162E0
7.662012417E0,-4.107211744E0,-5.706533983E0,1.954600378E0,7.297546234E0
7.671990417E0,-3.559394295E0,-6.142361464E0,2.002575759E0,7.376191549E0
7.681968417E0,-3.041775377E0,-6.417615632E0,2.142170870E0,7.418024257E0
7.691946417E0,-2.482012944E0,-6.713294125E0,2.458104264E0,7.567759433E0
7.701924417E0,-1.917606068E0,-7.106840975E0,2.857757945E0,7.896276473E0
7.711901417E0,-1.430089200E0,-7.586940649E0,3.159928017E0,8.342180087E0
7.721879417E0,-1.137641879E0,-8.064984443E0,3.255848374E0,8.771473749E0
7.731857417E0,-7.456848872E-1,-8.432317055E0,3.178937023E0,9.042436478E0
7.741835417E0,-4.126114038E-1,-8.648688592E0,3.005243728E0,9.165236080E0
7.751813417E0,-2.564154629E-1,-8.696837490E0,2.858903123E0,9.158278128E0
7.761791417E0,-2.294329016E-1,-8.781648429E0,2.796050817E0,9.218887610E0
7.771769417E0,-2.186018117E-1,-8.942979541E0,2.670728613E0,9.335816041E0
7.781746417E0,-2.268752564E-1,-9.056868099E0,2.595914366E0,9.424282654E0
7.791724417E0,-2.967178354E-1,-8.906298203E0,2.754668025E0,9.327292484E0
7.801702417E0,-3.483774740E-1,-8.759537183E0,3.067141768E0,9.287530196E0
7.811680417E0,-3.211670174E-1,-8.715917539E0,3.436861798E0,9.374560567E0
7.821658417E0,2.386402197E-2,-8.739160221E0,3.663784052E0,9.476117583E0
7.831636417E0,6.868320769E-1,-8.588954607E0,3.679974115E0,9.369316358E0
7.841614417E0,1.289547133E0,-8.184809094E0,3.498776211E0,8.994190719E0
7.851591417E0,1.678454217E0,-7.723990613E0,3.151554804E0,8.509379368E0
7.861569417E0,1.865864933E0,-7.303091658E0,2.841305635E0,8.055409203E0
7.871547417E0,2.034796548E0,-6.809965557E0,2.397291759E0,7.500868994E0
7.881525417E0,2.751146539E0,-5.827103570E0,2.075490246E0,6.769904213E0
7.891503417E0,3.551571305E0,-4.962905561E0,1.718236041E0,6.340065097E0
7.901481417E0,4.126535330E0,-4.713632911E0,1.812832149E0,6.521732089E0
7.911459417E0,5.135687860E0,-3.992526795E0,1.881127628E0,6.771573019E0
7.921437417E0,6.490823357E0,-2.904572216E0,1.744134382E0,7.321839410E0
7.931414417E0,7.869883906E0,-2.041335490E0,1.626231126E0,8.291366049E0
7.941392417E0,9.086704686E0,-1.329528201E0,1.522376390E0,9.308784946E0
7.951370417E0,9.811593951E0,-7.117511559E-1,1.409028114E0,9.937772678E0
7.961348417E0,1.010020433E1,-8.472381592E-2,1.350240208E0,1.019040992E1
7.971326417E0,1.030748695E1,6.233798468E-1,1.524094301E0,1.043818726E1
7.981304417E0,1.072241356E1,1.285699811E0,1.950008413E0,1.097386484E1
7.991282417E0,1.120992634E1,1.842270541E0,2.458175308E0,1.162321105E1
8.001259417E0,1.157451427E1,2.346425661E0,2.905397843E0,1.216208989E1
8.011237417E0,1.175133173E1,2.775683210E0,3.119650349E0,1.247118411E1
8.021215417E0,1.170781909E1,3.142424669E0,3.157622167E0,1.252670900E1
8.031193417E0,1.140808263E1,3.415012507E0,3.204295812E0,1.233183568E1
8.041171417E0,1.099883016E1,3.554929361E0,3.305774825E0,1.202247623E1
8.051149250E0,1.064023212E1,3.562453558E0,3.484777976E0,1.174943796E1
8.061127250E0,1.034147916E1,3.486269601E0,3.676536829E0,1.151595372E1
8.071104250E0,1.004128311E1,3.309949152E0,3.879691320E0,1.126211057E1
8.081082250E0,9.708287099E0,2.985410557E0,3.867812701E0,1.086846308E1
8.091060250E0,9.429732762E0,2.671274743E0,3.661063342E0,1.046226331E1
8.101038250E0,9.114335704E0,2.273461180E0,3.583245088E0,1.005382447E1
8.111016250E0,8.727444155E0,1.781449558E0,3.650607351E0,9.626462385E0
8.120994250E0,8.268053564E0,1.257127976E0,3.741684752E0,9.161947679E0
8.130972250E0,7.776218528E0,7.239811921E-1,3.813852257E0,8.691328575E0
8.140949250E0,7.226903608E0,1.190107191E-1,3.861963147E0,8.194941040E0
8.150927250E0,6.660119546E0,-4.418898743E-1,3.749263912E0,7.655680173E0
8.160905250E0,6.184102982E0,-8.596979910E-1,3.599351828E0,7.206770699E0
8.170883250E0,5.686283906E0,-1.356287398E0,3.530511389E0,6.829191081E0
8.180861250E0,5.219956763E0,-1.848759781E0,3.474274038E0,6.537311483E0
8.190839250E0,4.766943145E0,-2.406899319E0,3.416129326E0,6.339309967E0
8.200817250E0,4.369243019E0,-2.896837519E0,3.309662054E0,6.199662497E0
8.210794250E0,4.022135341E0,-3.315903372E0,3.140394808E0,6.085627940E0
8.220772250E0,3.797131851E0,-3.653735611E0,2.993500180E0,6.060448625E0
8.230750250E0,3.657443331E0,-3.915144158E0,3.009073946E0,6.144898006E0
8.240728250E0,3.538914422E0,-4.265691753E0,3.118340280E0,6.359566615E0
8.250706250E0,3.442618967E0,-4.554705589E0,3.250985537E0,6.570074225E0
8.260684250E0,3.261706699E0,-4.860823701E0,3.300641554E0,6.720161628E0
8.270662250E0,3.079227962E0,-5.088775064E0,3.260919956E0,6.783131685E0
8.280639250E0,2.808574383E0,-5.351499819E0,3.158377043E0,6.819236462E0
8.290617250E0,2.382345399E0,-5.656655479E0,3.078547639E0,6.866642293E0
8.300595250E0,1.906273579E0,-5.811759891E0,3.022321398E0,6.822379249E0
8.310573250E0,1.426076256E0,-5.811856370E0,2.896447510E0,6.648366426E0
8.320551250E0,1.289570375E0,-5.784493740E0,2.717157552E0,6.519685939E0
8.330529250E0,1.554818788E0,-5.846612220E0,2.487603759E0,6.541292562E0
8.340507250E0,2.172761017E0,-5.970884264E0,2.284955052E0,6.752286199E0
8.350485250E0,2.678021553E0,-6.155276209E0,2.104897940E0,7.034900140E0
8.360462250E0,2.680439669E0,-6.408026199E0,1.944024373E0,7.212959680E0
8.370440250E0,2.176221692E0,-6.654718473E0,1.669273942E0,7.197756199E0
8.380418250E0,1.524027643E0,-6.842435730E0,1.384176278E0,7.145455265E0
8.390396250E0,9.060947701E-1,-6.964686976E0,1.237520216E0,7.131572666E0
8.400374250E0,2.787376472E-1,-7.144123406E0,1.187474774E0,7.247502346E0
8.410352250E0,-4.846435457E-1,-7.291532882E0,1.014873154E0,7.377757021E0
8.420330250E0,-1.321597037E0,-7.270555996E0,6.371865848E-1,7.417116014E0
8.430307250E0,-2.093573345E0,-7.005743786E0,2.218980333E-1,7.315239851E0
8.440285250E0,-2.663426026E0,-6.485505314E0,-2.208113283E-2,7.011141487E0
8.450263250E0,-2.995936130E0,-6.003457932E0,8.133476973E-4,6.709481433E0
8.460241250E0,-2.878167944E0,-5.652822629E0,5.065556940E-1,6.363556636E0
8.470219250E0,-2.503052688E0,-5.351940699E0,9.472732016E-1,5.983800508E0
8.480197250E0,-2.531221064E0,-5.064952338E0,9.665704751E-1,5.744134465E0
8.490175250E0,-3.110566115E0,-4.758370543E0,7.235701329E-1,5.730729928E0
8.500152250E0,-3.874225928E0,-4.330688818E0,3.727963968E-1,5.822668574E0
8.510130250E0,-4.619098637E0,-3.877055980E0,1.334486639E-1,6.032034800E0
8.520108250E0,-5.100956569E0,-3.462310635E0,1.947464874E-1,6.168085525E0
8.530086250E0,-5.378839061E0,-2.883059140E0,6.074615331E-1,6.132939683E0
8.540064250E0,-5.813012365E0,-2.489832133E0,1.186469345E0,6.434134465E0
8.550042250E0,-6.441131380E0,-2.198740781E0,1.703960648E0,7.016132579E0
8.560020250E0,-7.302047930E0,-1.826353251E0,1.804241566E0,7.740203990E0
8.569997250E0,-8.300447724E0,-1.345133250E0,1.498007680E0,8.541126558E0
8.579975250E0,-9.115101104E0,-9.946903199E-1,1.137153636E0,9.239458608E0
8.589953250E0,-9.671867132E0,-8.259139484E-1,1.004316445E0,9.758883091E0
8.599931250E0,-1.023251045E1,-6.408063036E-1,1.181999441E0,1.032046634E1
8.609909250E0,-1.104546521E1,-5.118184805E-1,1.412012679E0,1.114710903E1
8.619887250E0,-1.199918468E1,-4.206045476E-1,1.531840693E0,1.210387859E1
8.629865250E0,-1.302069910E1,-3.347513419E-1,1.491010755E0,1.311006394E1
8.639843250E0,-1.393612983E1,-2.932135990E-1,1.390271416E0,1.400837404E1
8.649820250E0,-1.444473935E1,-2.872102627E-1,1.407962751E0,1.451603747E1
8.659798250E0,-1.434679381E1,-3.774827939E-1,1.693805058E0,1.445136539E1
8.669776250E0,-1.364983144E1,-5.796058363E-1,2.173141086E0,1.383388533E1
8.679754250E0,-1.281415088E1,-9.062845123E-1,2.616641868E0,1.310994390E1
8.689732250E0,-1.199640491E1,-1.242714005E0,2.808053981E0,1.238318360E1
8.699710250E0,-1.120824585E1,-1.563547804E0,2.796172439E0,1.165710243E1
8.709688250E0,-1.052543256E1,-1.929826164E0,2.732778096E0,1.104432143E1
8.719665250E0,-9.846545098E0,-2.348345886E0,2.697553300E0,1.047597120E1
8.729643250E0,-9.118384316E0,-2.792758250E0,2.793100312E0,9.937094169E0
8.739621250E0,-8.344842124E0,-3.257523016E0,3.077562675E0,9.472023981E0
8.749599250E0,-7.488695732E0,-3.727105304E0,3.581479229E0,9.099388506E0
8.759577250E0,-6.535083856E0,-4.194679658E0,4.143437583E0,8.801746045E0
8.769555250E0,-5.755994411E0,-4.645424556E0,4.653586099E0,8.738838855E0
8.779533250E0,-5.101185195E0,-5.028417181E0,5.017622636E0,8.745490647E0
8.789510250E0,-4.325854340E0,-5.504082327E0,5.295215106E0,8.777655783E0
8.799488250E0,-3.419780912E0,-6.094580941E0,5.512423965E0,8.900878401E0
8.809466250E0,-2.602706784E0,-6.660691404E0,5.620927237E0,9.095807583E0
8.819444250E0,-1.769765067E0,-7.271551192E0,5.609762564E0,9.352911908E0
8.829422250E0,-9.283130202E-1,-7.700645020E0,5.398045410E0,9.449899102E0
8.839400250E0,-4.809931290E-1,-7.990276322E0,5.019180334E0,9.448176614E0
8.849378250E0,-2.534925860E-1,-8.205965490E0,4.647435705E0,9.434022829E0
8.859355250E0,-8.082518488E-2,-8.456267250E0,4.369627181E0,9.518856560E0
8.869333250E0,7.269024611E-2,-8.678926883E0,4.201224446E0,9.642579663E0
8.879311250E0,2.453808899E-1,-8.872804182E0,4.068276304E0,9.764104563E0
8.889289250E0,4.123589502E-1,-9.027667689E0,4.030066212E0,9.894961216E0
8.899267250E0,5.370500200E-1,-9.151781858E0,3.969254876E0,9.989920829E0
8.909245250E0,7.593275376E-1,-9.237200907E0,3.844084116E0,1.003391457E1
8.919223250E0,1.112553304E0,-9.195538327E0,3.541179049E0,9.916433281E0
8.929201250E0,1.354505021E0,-9.044824004E0,3.205321999E0,9.691110062E0
8.939178250E0,1.384741265E0,-8.930146072E0,2.808050473E0,9.463094879E0
8.949156250E0,1.407884545E0,-8.712902130E0,2.301245980E0,9.120994215E0
8.959134250E0,1.454182506E0,-8.464646310E0,1.824809001E0,8.780365130E0
8.969112250E0,1.399421285E0,-8.244795095E0,1.436051606E0,8.485120524E0
8.979090250E0,1.396715632E0,-7.844077805E0,1.120322426E0,8.045837029E0
8.989068250E0,1.712446274E0,-7.283160254E0,1.005908788E0,7.549089218E0
8.999046250E0,2.354764083E0,-6.658772932E0,1.190458316E0,7.162496901E0
9.009023250E0,3.346000745E0,-5.981371245E0,1.451005568E0,7.005564939E0
9.019001250E0,4.605330490E0,-5.177460369E0,1.671005595E0,7.127932694E0
9.028979250E0,5.861947128E0,-4.347534061E0,1.760061028E0,7.507415758E0
9.038957250E0,7.174576875E0,-3.450168307E0,1.679622052E0,8.136297986E0
9.048935250E0,8.658595530E0,-2.498265572E0,1.806294670E0,9.191044981E0
9.058913250E0,1.000963564E1,-1.547171507E0,2.139893964E0,1.035208633E1
9.068891250E0,1.111297950E1,-6.570393437E-1,2.548192315E0,1.142030202E1
9.078868250E0,1.187060557E1,1.761035174E-1,2.913037230E0,1.222407768E1
9.088846250E0,1.225278193E1,1.037606544E0,3.249062972E0,1.271863603E1
9.098824250E0,1.244239076E1,1.975211082E0,3.579189459E0,1.309676081E1
9.108802250E0,1.256129506E1,2.835697863E0,4.072562313E0,1.350603864E1
9.118780250E0,1.276961732E1,3.415044667E0,4.734711539E0,1.404076743E1
9.128758250E0,1.298780734E1,3.726448662E0,5.317264956E0,1.452042926E1
9.138736250E0,1.306336038E1,3.900472909E0,5.502525798E0,1.470179797E1
9.148713250E0,1.302657438E1,3.973648474E0,5.240312090E0,1.459254581E1
9.158691250E0,1.282247615E1,3.840845928E0,4.697479978E0,1.418570795E1
9.168669250E0,1.230632137E1,3.609918916E0,4.105479798E0,1.346595799E1
9.178647250E0,1.144854770E1,3.386969846E0,3.515379964E0,1.244583085E1
9.188625250E0,1.035527391E1,3.065327377E0,3.028895130E0,1.121615511E1
9.198603250E0,9.139837750E0,2.622827638E0,2.693135436E0,9.882754545E0
9.208581250E0,8.015133421E0,2.163853953E0,2.456790394E0,8.657970127E0
9.218558250E0,6.984152357E0,1.739472397E0,2.355697883E0,7.573206777E0
9.228536250E0,6.089644722E0,1.299536077E0,2.360670355E0,6.659229038E0
9.238514250E0,5.333015016E0,8.373253745E-1,2.470963753E0,5.936987857E0
9.248492250E0,4.726624255E0,3.856648028E-1,2.591502642E0,5.404220585E0
9.258470250E0,4.287152204E0,-5.878322840E-2,2.678074178E0,5.055216196E0
9.268448250E0,3.911156065E0,-5.690960509E-1,2.581324978E0,4.720619739E0
9.278426250E0,3.669787680E0,-1.109491628E0,2.234527203E0,4.437502125E0
9.288403250E0,3.537546174E0,-1.595115167E0,1.773903434E0,4.266773807E0
9.298381250E0,3.410671535E0,-2.073685210E0,1.498292585E0,4.263535075E0
9.308359250E0,3.304878154E0,-2.507136383E0,1.492144823E0,4.408451954E0
9.318337250E0,3.199972381E0,-2.848962271E0,1.771394686E0,4.636188995E0
9.328315250E0,3.031039889E0,-3.188165098E0,2.277849808E0,4.953806542E0
9.338293250E0,2.847519763E0,-3.541057427E0,2.896299575E0,5.388507004E0
9.348271250E0,2.569224750E0,-3.825164865E0,3.391100027E0,5.721220276E0
9.358248250E0,2.330423293E0,-4.090763526E0,3.625144481E0,5.941960237E0
9.368226250E0,2.181752134E0,-4.327652358E0,3.656212492E0,6.070956028E0
9.378204250E0,2.130852707E0,-4.486297844E0,3.534931299E0,6.096157880E0
9.388182250E0,2.050664430E0,-4.653810632E0,3.317729457E0,6.072108922E0
9.398160250E0,1.878510268E0,-4.924032687E0,3.056950656E0,6.092605850E0
9.408138250E0,1.717531890E0,-5.172689626E0,2.712773310E0,6.088166619E0
9.418116250E0,1.585386570E0,-5.350605195E0,2.302825897E0,6.037005354E0
9.428094250E0,1.525028248E0,-5.504841295E0,1.918023266E0,6.025595580E0
9.438071250E0,1.613287437E0,-5.570137153E0,1.647039612E0,6.028421330E0
9.448049250E0,1.853466205E0,-5.590995340E0,1.655139467E0,6.118337399E0
9.458027250E0,2.253607690E0,-5.662019130E0,1.828218220E0,6.362357276E0
9.468005250E0,2.480623645E0,-5.823716277E0,1.969243706E0,6.629259817E0
9.477983250E0,2.227557321E0,-6.067286139E0,1.910149114E0,6.739632211E0
9.487961250E0,1.570218600E0,-6.199900990E0,1.636627767E0,6.601735316E0
9.497939250E0,6.224957478E-1,-6.179270843E0,1.227028849E0,6.330599411E0
9.507916250E0,-3.009298772E-1,-6.087116970E0,9.268591100E-1,6.164626478E0
9.517894250E0,-1.021919049E0,-5.940820804E0,8.035863554E-1,6.081399625E0
9.527872250E0,-1.247740856E0,-5.642022237E0,8.858514172E-1,5.845853650E0
9.537850250E0,-8.330814654E-1,-5.335586622E0,1.354673274E0,5.567553233E0
9.547828250E0,-7.451106906E-2,-5.149194344E0,1.950584072E0,5.506771514E0
9.557806250E0,3.472333932E-1,-4.994968768E0,2.109566357E0,5.433282087E0
9.567784250E0,1.906174761E-1,-4.715417481E0,1.741959218E0,5.030498878E0
9.577761250E0,-2.270175630E-1,-4.374832372E0,1.130044884E0,4.524123860E0
9.587739250E0,-7.695315868E-1,-4.249385623E0,6.076368034E-1,4.361041105E0
9.597717250E0,-1.216707929E0,-4.202926571E0,3.610646895E-1,4.390368738E0
9.607695250E0,-1.310470955E0,-4.119172808E0,3.375012875E-1,4.335761279E0
9.617673250E0,-1.884150054E0,-3.890799860E0,3.129676862E-1,4.334315834E0
9.627651250E0,-3.141565713E0,-3.555404740E0,2.577759638E-1,4.751503598E0
9.637629250E0,-4.672294850E0,-3.167232651E0,1.507062824E-1,5.646628571E0
9.647606250E0,-6.064040934E0,-2.541827329E0,2.969947010E-2,6.575284076E0
9.657584250E0,-7.179531221E0,-1.844722863E0,9.219071031E-2,7.413310335E0
9.667562250E0,-7.979560715E0,-1.409101789E0,2.603579481E-1,8.107203175E0
9.677540250E0,-8.679557798E0,-1.042152169E0,3.908992302E-1,8.750634658E0
9.687518250E0,-9.379000565E0,-7.106302446E-1,4.881875432E-1,9.418544156E0
9.697496250E0,-1.025388085E1,-5.421319082E-1,5.877303962E-1,1.028500883E1
9.707474250E0,-1.136726322E1,-4.000892991E-1,5.512871861E-1,1.138765393E1
9.717451250E0,-1.227463531E1,-2.236790952E-1,5.712343776E-1,1.228995578E1
9.727429250E0,-1.287677807E1,-5.802250564E-2,7.969744702E-1,1.290154829E1
9.737407250E0,-1.313354568E1,-2.697583705E-2,1.234100326E0,1.319142727E1
9.747385250E0,-1.330667238E1,-1.081819680E-1,1.683787608E0,1.341321639E1
9.757363250E0,-1.351260196E1,-1.935519013E-1,1.975004822E0,1.365754437E1
9.767341250E0,-1.353995290E1,-2.479707679E-1,2.256226658E0,1.372888825E1
9.777319250E0,-1.326735103E1,-4.133735883E-1,2.549048055E0,1.351632816E1
9.787296250E0,-1.274919416E1,-5.185918951E-1,2.856550495E0,1.307557915E1
9.797274250E0,-1.182612580E1,-6.852071357E-1,3.184935974E0,1.226664492E1
9.807252250E0,-1.060004537E1,-1.009988098E0,3.489550181E0,1.120526655E1
9.817230250E0,-9.368819978E0,-1.348839215E0,3.643862295E0,1.014257795E1
9.827208250E0,-8.268020820E0,-1.745286283E0,3.578895052E0,9.176855795E0
9.837186250E0,-7.294908480E0,-2.148501504E0,3.359489979E0,8.313718865E0
9.847164250E0,-6.512175635E0,-2.590747474E0,3.070199862E0,7.651570503E0
9.857141250E0,-5.893938414E0,-3.126293955E0,2.758153550E0,7.219392975E0
9.867119250E0,-5.461683581E0,-3.605350487E0,2.396075538E0,6.969197777E0
9.877097250E0,-5.124384608E0,-3.975319608E0,1.992180579E0,6.784634630E0
9.887075250E0,-4.780734388E0,-4.342369215E0,1.727943150E0,6.685609862E0
9.897053250E0,-4.451601051E0,-4.876052774E0,1.799556923E0,6.843321393E0
9.907031250E0,-4.079846774E0,-5.487122478E0,2.187230829E0,7.178972175E0
9.917009250E0,-3.372372272E0,-5.388738981E0,2.334522192E0,6.772104283E0
9.926987250E0,-3.038631329E0,-5.795480658E0,2.500499209E0,7.005238947E0
9.936964250E0,-2.962176645E0,-6.583148553E0,2.836253933E0,7.756073216E0
9.946942250E0,-2.646613526E0,-6.905742365E0,2.967212852E0,7.968575335E0
9.956920250E0,-2.119123631E0,-6.818778480E0,2.890744720E0,7.703429753E0
9.966898250E0,-1.762352259E0,-6.984266962E0,2.715542843E0,7.698054522E0
9.976876250E0,-1.612363869E0,-7.493409757E0,2.617643204E0,8.099565604E0
9.986854250E0,-1.354422137E0,-7.789810966E0,2.526160299E0,8.300427704E0
9.996832250E0,-1.026002160E0,-7.991177378E0,2.366689187E0,8.397190842E0
1.000680925E1,-8.326785922E-1,-8.175023779E0,2.346485887E0,8.545780446E0
1.001678725E1,-7.146187766E-1,-8.370937663E0,2.420461936E0,8.743106618E0
1.002676525E1,-6.103616059E-1,-8.484135080E0,2.569525882E0,8.885693704E0
1.003674325E1,-6.230035054E-1,-8.573540761E0,2.804429584E0,9.042044008E0
1.004672125E1,-6.828100696E-1,-8.718592055E0,3.075811142E0,9.270420228E0
1.005669904E1,-6.467424700E-1,-8.871964522E0,3.258268829E0,9.473454811E0
1.006667704E1,-5.116318081E-1,-8.988146943E0,3.331917726E0,9.599491044E0
1.007665404E1,-2.946110105E-1,-8.988798323E0,3.351630736E0,9.597849734E0
1.008663204E1,9.617251799E-2,-8.841021641E0,3.307578398E0,9.439967568E0
1.009661004E1,6.911164780E-1,-8.615676382E0,3.230959993E0,9.227492833E0
1.010658804E1,1.449462780E0,-8.288241076E0,3.033937477E0,8.944308755E0
1.011656604E1,2.382249505E0,-7.752768854E0,2.677111434E0,8.540928711E0
1.012654404E1,3.378241122E0,-7.078267386E0,2.335274144E0,8.183390959E0
1.013652204E1,4.377835502E0,-6.387141699E0,2.077558406E0,8.017310752E0
1.014649904E1,5.237586118E0,-5.793240005E0,1.977627444E0,8.056360742E0
1.015647704E1,6.172454159E0,-5.177251039E0,1.901817708E0,8.277682602E0
1.016645504E1,7.094948323E0,-4.346406133E0,1.771385915E0,8.506899908E0
1.017643304E1,7.957400352E0,-3.434652720E0,1.578092169E0,8.809508191E0
1.018641104E1,8.788018386E0,-2.620519157E0,1.326409296E0,9.265837761E0
1.019638904E1,9.451842254E0,-2.026003506E0,1.139892180E0,9.733517677E0
1.020636704E1,1.001200493E1,-1.418032241E0,1.102522624E0,1.017185402E1
1.021634404E1,1.038194657E1,-8.066508812E-1,1.160792760E0,1.047773544E1
1.022632204E1,1.053522314E1,-2.769931304E-1,1.176535803E0,1.060433347E1
1.023630004E1,1.061190353E1,2.829023266E-1,1.054351215E0,1.066790451E1
1.024627804E1,1.067046222E1,8.622327590E-1,9.926911569E-1,1.075116948E1
1.025625604E1,1.090207511E1,1.376431641E0,1.081696304E0,1.104173323E1
1.026623404E1,1.124535462E1,1.678635042E0,1.291938936E0,1.144311681E1
1.027621204E1,1.156459622E1,1.881043428E0,1.493071606E0,1.181132816E1
1.028618904E1,1.169956282E1,2.094034106E0,1.602782475E0,1.199306719E1
1.029616704E1,1.170256361E1,2.247442825E0,1.646925591E0,1.202968654E1
1.030614504E1,1.148663179E1,2.356562394E0,1.673785215E0,1.184473102E1
1.031612304E1,1.102666524E1,2.312079701E0,1.679598224E0,1.139096612E1
1.032610104E1,1.046949576E1,2.190588593E0,1.680610231E0,1.082744063E1
1.033607904E1,9.886493275E0,1.990923720E0,1.702947764E0,1.022773473E1
1.034605704E1,9.286878267E0,1.755936402E0,1.767727897E0,9.615314998E0
1.035603404E1,8.654446346E0,1.536731304E0,1.954107896E0,9.004416823E0
1.036601204E1,8.028734044E0,1.257617973E0,2.214518615E0,8.422960645E0
1.037599004E1,7.456354782E0,9.162271178E-1,2.443041252E0,7.899692989E0
1.038596804E1,6.953862610E0,5.372866130E-1,2.582920683E0,7.437496983E0
1.039594604E1,6.389024502E0,9.575926602E-2,2.605682724E0,6.900607682E0
1.040592404E1,5.928507153E0,-3.933305025E-1,2.534627360E0,6.459585265E0
1.041590204E1,5.557910625E0,-9.107892072E-1,2.472519112E0,6.150874593E0
1.042587904E1,5.162775671E0,-1.380811206E0,2.459439768E0,5.883004011E0
1.043585704E1,4.827468259E0,-1.806175679E0,2.390245864E0,5.681548704E0
1.044583504E1,4.559129008E0,-2.158933522E0,2.332428888E0,5.557596223E0
1.045581304E1,4.347606567E0,-2.478779726E0,2.311185077E0,5.512495646E0
1.046579104E1,4.169357998E0,-2.783079938E0,2.374222447E0,5.546711845E0
1.047576904E1,4.067089904E0,-3.168542427E0,2.438656425E0,5.703325921E0
1.048574704E1,4.078867950E0,-3.605587884E0,2.571314545E0,6.020721405E0
1.049572404E1,4.096082738E0,-3.973399383E0,2.636921766E0,6.286426080E0
1.050570204E1,3.968841478E0,-4.445800028E0,2.902176027E0,6.628685108E0
1.051568004E1,3.989622775E0,-4.673396466E0,2.974418961E0,6.826777612E0
1.052565804E1,3.880481571E0,-5.037954574E0,2.919816492E0,6.997460387E0
1.053563604E1,3.717028505E0,-5.482990835E0,2.840575610E0,7.207521016E0
1.054561404E1,3.587125300E0,-5.862818363E0,2.641725839E0,7.363343159E0
1.055559204E1,3.419903119E0,-6.114014747E0,2.445092162E0,7.419931897E0
1.056556904E1,3.201421906E0,-6.295177860E0,2.365685804E0,7.448143113E0
1.057554704E1,2.996956469E0,-6.574374806E0,2.311896975E0,7.586107025E0
1.058552504E1,2.875872327E0,-6.818161014E0,2.230204648E0,7.728633387E0
1.059550304E1,2.727854741E0,-7.014509931E0,2.132421076E0,7.822516264E0
1.060548104E1,2.449529322E0,-7.190920427E0,1.933513418E0,7.838877766E0
1.061545904E1,2.118349752E0,-7.283710477E0,1.669965375E0,7.767150594E0
1.062543704E1,1.872398612E0,-7.368793897E0,1.573534264E0,7.764084630E0
1.063541404E1,1.557117329E0,-7.289870519E0,1.708770422E0,7.647661271E0
1.064539204E1,1.154252941E0,-7.158089481E0,2.007343286E0,7.523295285E0
1.065537004E1,8.778424859E-1,-6.955615021E0,2.334193286E0,7.389157330E0
1.066534804E1,4.201241988E-1,-6.784737160E0,2.534042638E0,7.254690536E0
1.067532604E1,-2.223017836E-1,-6.594252416E0,2.449972833E0,7.038178024E0
1.068530404E1,-7.931467366E-1,-6.179169686E0,2.291591934E0,6.637967562E0
1.069528204E1,-1.259784951E0,-5.741221420E0,2.035424247E0,6.220259913E0
1.070525904E1,-1.568522615E0,-5.426646481E0,1.915608951E0,5.964755894E0
1.071523704E1,-1.886893567E0,-5.272042590E0,1.894401246E0,5.911307511E0
1.072521504E1,-2.511891339E0,-4.982164536E0,1.875232758E0,5.886260226E0
1.073519304E1,-3.489601344E0,-4.553811550E0,1.749718765E0,5.998002412E0
1.074517104E1,-4.782637072E0,-4.093850856E0,1.449226114E0,6.460146169E0
1.075514904E1,-6.178509536E0,-3.671607041E0,1.004350651E0,7.256955187E0
1.076512704E1,-7.580652553E0,-3.169659246E0,5.056753957E-1,8.232177141E0
1.077510504E1,-8.860852473E0,-2.500233745E0,1.728039336E-1,9.208460052E0
1.078508204E1,-1.004735486E1,-1.882573645E0,1.292363298E-1,1.022301938E1
1.079506004E1,-1.124797768E1,-1.468391386E0,3.155403149E-1,1.134780775E1
1.080503804E1,-1.221208531E1,-1.173063142E0,6.842306507E-1,1.228736246E1
1.081501604E1,-1.288515830E1,-8.719420606E-1,1.181709493E0,1.296857836E1
1.082499404E1,-1.312830658E1,-6.054563767E-1,1.835340421E0,1.326979598E1
1.083497204E1,-1.304043228E1,-4.955959654E-1,2.606427952E0,1.330759017E1
1.084494904E1,-1.283931379E1,-4.578475106E-1,3.404639547E0,1.329094329E1
1.085492704E1,-1.273807627E1,-5.027436018E-1,4.045097941E0,1.337438430E1
1.086490504E1,-1.277550663E1,-6.301363045E-1,4.464427503E0,1.354775828E1
1.087488304E1,-1.283566045E1,-6.608768713E-1,4.657701370E0,1.367059324E1
1.088486104E1,-1.276125580E1,-6.437252337E-1,4.688319730E0,1.361045090E1
1.089483904E1,-1.243260954E1,-6.748926473E-1,4.661813132E0,1.329502770E1
1.090481704E1,-1.186466480E1,-7.895664865E-1,4.632306912E0,1.276134607E1
1.091479504E1,-1.104130667E1,-1.007679325E0,4.593596005E0,1.200112474E1
1.092477204E1,-1.016794432E1,-1.258943537E0,4.576388819E0,1.122120159E1
1.093475004E1,-9.265746430E0,-1.526335539E0,4.595228548E0,1.045465841E1
1.094472804E1,-8.274321195E0,-1.901401094E0,4.631864862E0,9.671292026E0
1.095470604E1,-7.171255656E0,-2.262818663E0,4.443962249E0,8.734761385E0
1.096468404E1,-6.546905172E0,-2.514113865E0,4.476047090E0,8.319719551E0
1.097466204E1,-5.885582743E0,-2.740554308E0,4.473471977E0,7.884330895E0
1.098464004E1,-5.273755240E0,-3.095207233E0,4.580207051E0,7.640098087E0
1.099461704E1,-4.645497646E0,-3.475893132E0,4.777004449E0,7.515467580E0
1.100459504E1,-4.090882809E0,-3.880818079E0,4.908932837E0,7.476208445E0
1.101457304E1,-3.766709665E0,-4.354624979E0,4.946912842E0,7.590968784E0
1.102455104E1,-3.478279966E0,-4.791534196E0,4.864874067E0,7.663173700E0
1.103452904E1,-3.193305970E0,-5.321738076E0,4.715345560E0,7.794394327E0
1.104450704E1,-2.989959983E0,-5.782284077E0,4.493644286E0,7.909962630E0
1.105448838E1,-2.902080132E0,-6.073332744E0,4.272042122E0,7.972313567E0
1.106446538E1,-2.706219750E0,-6.356881188E0,4.115907430E0,8.042030698E0
1.107444337E1,-2.498983026E0,-6.761734799E0,4.016744500E0,8.252285140E0
1.108442138E1,-2.224973145E0,-7.210480533E0,3.905233712E0,8.496610228E0
1.109439938E1,-1.853645422E0,-7.646394553E0,3.784512098E0,8.730743544E0
1.110437737E1,-1.330601749E0,-8.003398059E0,3.694382239E0,8.914782198E0
1.111435538E1,-7.563412915E-1,-8.327913850E0,3.578937736E0,9.095877998E0
1.112433338E1,-1.151992846E-1,-8.647084116E0,3.455889223E0,9.312814017E0
1.113431038E1,5.925406082E-1,-8.843266388E0,3.322980257E0,9.465551361E0
1.114428838E1,1.144864286E0,-8.975036901E0,3.121899188E0,9.571220201E0
1.115426638E1,1.589337534E0,-8.973503176E0,2.742532129E0,9.516892115E0
1.116424438E1,1.874980158E0,-8.839546389E0,2.220265844E0,9.304983147E0
1.117422238E1,1.764743332E0,-8.659395429E0,1.700610048E0,8.999529030E0
1.118420037E1,1.503486375E0,-8.442444432E0,1.201269818E0,8.659006204E0
1.119417838E1,1.498638448E0,-8.134193256E0,7.072441220E-1,8.301277696E0
1.120415538E1,2.013999172E0,-7.778585481E0,3.865123567E-1,8.044375461E0
1.121413338E1,2.891902761E0,-7.463246895E0,1.684404489E-1,8.005718455E0
1.122411137E1,3.924571039E0,-7.045950410E0,-6.288534254E-2,8.065459044E0
1.123408938E1,4.833437682E0,-6.426925569E0,-2.998940429E-1,8.047200043E0
1.124406738E1,5.373750229E0,-5.764192207E0,-6.126265249E-1,7.904328851E0
1.125404538E1,5.704425477E0,-5.031332603E0,-9.647172001E-1,7.667167473E0
1.126402337E1,5.996597979E0,-4.350409137E0,-1.329611231E0,7.526826224E0
1.127400038E1,6.186640674E0,-3.853439661E0,-1.700206297E0,7.484264927E0
1.128397838E1,6.527719288E0,-3.381562926E0,-1.992463292E0,7.616823281E0
1.129395638E1,7.068851615E0,-2.821202615E0,-2.073403959E0,7.888399795E0
1.130393437E1,7.719555500E0,-2.194968742E0,-1.833312607E0,8.232281580E0
1.131391238E1,8.320324164E0,-1.627091836E0,-1.144319984E0,8.554805098E0
1.132389038E1,8.818558393E0,-1.068804363E0,-1.113822953E-1,8.883789783E0
1.133386837E1,9.486482329E0,-4.418062592E-1,1.005838329E0,9.549882224E0
1.134384537E1,1.025416152E1,7.170323610E-2,2.034383150E0,1.045426633E1
1.135382338E1,1.075156193E1,4.380611175E-1,2.718678997E0,1.109861239E1
1.136380138E1,1.080285605E1,7.020611501E-1,2.701675002E0,1.115767164E1
1.137377937E1,1.070583554E1,9.999849737E-1,1.820175083E0,1.090540792E1
1.138375738E1,1.050338622E1,1.300002685E0,7.531237149E-1,1.061029332E1
1.139373538E1,1.017220928E1,1.536904966E0,5.880690962E-2,1.028782663E1
1.140371338E1,9.778919125E0,1.679871728E0,-3.440859832E-1,9.928122856E0
1.141369037E1,9.311065859E0,1.759175760E0,-6.333442332E-1,9.496934858E0
1.142366838E1,8.794374894E0,1.766938523E0,-7.352030222E-1,9.000201387E0
1.143364638E1,8.235552401E0,1.678478921E0,-6.038266115E-1,8.426518938E0
1.144362438E1,7.681982462E0,1.485641257E0,-3.142480803E-1,7.830628094E0
1.145360237E1,7.179908366E0,1.267444804E0,4.435668558E-2,7.291053970E0
1.146358038E1,6.802350143E0,1.186564363E0,3.975217867E-1,6.916496659E0
1.147355838E1,6.627585638E0,1.006583557E0,7.636837864E-1,6.746948553E0
1.148353538E1,6.688385571E0,6.831033075E-1,1.074220054E0,6.808456536E0
1.149351337E1,6.809089059E0,2.784262830E-1,1.268233301E0,6.931784093E0
1.150349138E1,6.778900470E0,-1.992076206E-1,1.293854338E0,6.904146167E0
1.151346938E1,6.637733481E0,-6.649868792E-1,1.193034307E0,6.776801913E0
1.152344737E1,6.330262324E0,-1.092742864E0,1.149859928E0,6.525985436E0
1.153342538E1,5.862941154E0,-1.543471389E0,1.300778026E0,6.200677897E0
1.154340338E1,5.322368406E0,-1.930221435E0,1.563465066E0,5.873481357E0
1.155338038E1,4.761547335E0,-2.249091155E0,1.868571317E0,5.587692083E0
1.156335837E1,4.227866700E0,-2.541657760E0,2.136915246E0,5.375991794E0
1.157333638E1,3.787812559E0,-2.802996140E0,2.254457145E0,5.223685323E0
1.158331438E1,3.410155810E0,-3.000333236E0,2.231833975E0,5.060854184E0
1.159329238E1,3.001447715E0,-3.252327765E0,2.125330450E0,4.909516657E0
1.160327037E1,2.722863557E0,-3.503172147E0,1.948435805E0,4.845885175E0
1.161324838E1,2.417055933E0,-3.803149513E0,1.801590292E0,4.853023097E0
1.162322538E1,2.030775418E0,-4.105748770E0,1.637049644E0,4.864273152E0
1.163320338E1,1.738625574E0,-4.259447511E0,1.399782497E0,4.808856728E0
1.164318137E1,1.444795094E0,-4.340737842E0,1.208923238E0,4.731905882E0
1.165315938E1,1.230264698E0,-4.436818120E0,1.181576980E0,4.753423022E0
1.166313738E1,1.192814378E0,-4.534763076E0,1.315172409E0,4.869965170E0
1.167311537E1,1.349502874E0,-4.634600190E0,1.613714576E0,5.089671076E0
1.168309338E1,1.752238184E0,-4.751832771E0,1.919469575E0,5.416144088E0
1.169307038E1,2.187050735E0,-4.894965593E0,2.101417092E0,5.758457508E0
1.170304838E1,2.365817805E0,-5.118726257E0,2.143579903E0,6.032693195E0
1.171302637E1,2.224642777E0,-5.284864365E0,2.186230955E0,6.136646693E0
1.172300438E1,1.936895594E0,-5.424054995E0,2.278777761E0,6.193929707E0
1.173298238E1,1.636414783E0,-5.484753771E0,2.407860309E0,6.209522408E0
1.174296038E1,1.588500212E0,-5.537295097E0,2.543902213E0,6.297333434E0
1.175293837E1,1.845273964E0,-5.699761738E0,2.581415610E0,6.523498020E0
1.176291538E1,2.208739520E0,-5.848973325E0,2.420308739E0,6.704245940E0
1.177289338E1,2.545459619E0,-5.979156904E0,2.022408345E0,6.805866401E0
1.178287138E1,2.433867555E0,-6.036345012E0,1.530862015E0,6.686158156E0
1.179284937E1,1.780570429E0,-5.956762653E0,1.045766041E0,6.304528449E0
1.180282738E1,9.125886878E-1,-5.734387779E0,6.721678448E-1,5.845325562E0
1.181280538E1,5.471239686E-2,-5.445956326E0,6.727316625E-1,5.487622585E0
1.182278337E1,-5.176364601E-1,-5.064917840E0,9.493166573E-1,5.179048401E0
1.183276037E1,-4.095465857E-1,-4.666327767E0,1.388159109E0,4.885624724E0
1.184273838E1,4.186834449E-1,-4.536358196E0,1.866244272E0,4.923079239E0
1.185271638E1,1.239993880E0,-4.580250320E0,1.966327407E0,5.136411324E0
1.186269438E1,8.389690268E-1,-4.576237376E0,1.567994027E0,4.909625528E0
1.187267238E1,-7.032960820E-1,-4.430035350E0,1.107433335E0,4.620199907E0
1.188265038E1,-2.923567480E0,-4.310859155E0,7.758167589E-1,5.266179366E0
1.189262838E1,-5.308157333E0,-4.201530256E0,5.967691684E-1,6.795993246E0
1.190260538E1,-6.993516088E0,-3.875715798E0,7.600374627E-1,8.031693294E0
1.191258338E1,-7.392486815E0,-3.431676487E0,1.448745911E0,8.277930269E0
1.192256138E1,-6.987399316E0,-3.000212783E0,2.505869291E0,8.006522769E0
1.193253938E1,-6.726476088E0,-2.804711713E0,3.410196156E0,8.046199487E0
1.194251737E1,-6.992216252E0,-2.580411351E0,3.779450163E0,8.356665267E0
1.195249538E1,-7.686467276E0,-2.135822402E0,3.567498536E0,8.739025250E0
1.196247338E1,-9.069373539E0,-1.533448092E0,3.006959301E0,9.677127863E0
1.197245038E1,-1.072411160E1,-9.250260079E-1,2.543215458E0,1.106029780E1
1.198242837E1,-1.179294052E1,-3.809694886E-1,2.511789597E0,1.206348502E1
1.199240638E1,-1.202526443E1,-5.132685900E-3,3.007996012E0,1.239576746E1
1.200238438E1,-1.166656464E1,2.077849013E-1,3.739423633E0,1.225296675E1
1.201236238E1,-1.116614707E1,2.216012871E-1,4.353129262E0,1.198672940E1
1.202234037E1,-1.101181566E1,1.229704535E-1,4.503981578E0,1.189794334E1
1.203231838E1,-1.109655117E1,1.052025193E-1,4.236680793E0,1.187829868E1
1.204229538E1,-1.114134902E1,1.624847674E-1,3.943196175E0,1.181968085E1
1.205227338E1,-1.108860831E1,1.870652926E-1,3.919572839E0,1.176245208E1
1.206224742E1,-1.090338723E1,1.689342463E-1,4.148236393E0,1.166705863E1
1.207222542E1,-1.035113057E1,2.107102633E-2,4.506726261E0,1.128968245E1
1.208220342E1,-9.427658170E0,-1.985720283E-1,4.882210477E0,1.061866981E1
1.209218142E1,-8.523136593E0,-5.210149813E-1,5.125703740E0,9.959324918E0
1.210215942E1,-7.887512092E0,-9.418899626E-1,5.114950125E0,9.447894924E0
1.211213642E1,-7.433072923E0,-1.322624393E0,4.817602252E0,8.955958901E0
1.212211442E1,-7.006918491E0,-1.684306256E0,4.402659856E0,8.444951635E0
1.213209242E1,-6.534438908E0,-2.054744325E0,4.120443408E0,7.993680001E0
1.214207042E1,-6.060354849E0,-2.456711749E0,3.961234251E0,7.645568017E0
1.215204842E1,-5.553325238E0,-2.839759338E0,3.882514941E0,7.346943348E0
1.216202642E1,-4.989168330E0,-3.254123445E0,3.901908985E0,7.120815526E0
1.217200442E1,-4.534598184E0,-3.622151291E0,4.034811519E0,7.068399017E0
1.218198142E1,-4.216871011E0,-4.019919831E0,4.135187162E0,7.144335479E0
1.219195942E1,-3.791248675E0,-4.487263219E0,4.128702600E0,7.180200754E0
1.220193742E1,-3.402950871E0,-4.985845358E0,4.016141360E0,7.250387575E0
1.221191542E1,-3.160639331E0,-5.372063307E0,4.029756017E0,7.422104736E0
1.222189342E1,-3.372176390E0,-6.047996759E0,3.707348732E0,7.854570200E0
1.223187142E1,-3.095367447E0,-6.136941095E0,3.597098311E0,7.757735617E0
1.224184942E1,-2.894385489E0,-6.344940004E0,3.434106005E0,7.773597306E0
1.225182642E1,-2.622699584E0,-6.871348457E0,3.600390294E0,8.188821221E0
1.226180442E1,-2.162655274E0,-7.390511625E0,3.687056847E0,8.537630123E0
1.227178242E1,-1.760108098E0,-7.837767490E0,3.619357492E0,8.810693979E0
1.228176042E1,-1.423608439E0,-8.185387384E0,3.585110642E0,9.048770409E0
1.229173842E1,-1.166495111E0,-8.457532588E0,3.397757666E0,9.188869652E0
1.230171642E1,-9.622388577E-1,-8.721961806E0,3.086491666E0,9.301878959E0
1.231169442E1,-8.660251169E-1,-8.945879175E0,2.753488934E0,9.400024204E0
1.232167142E1,-7.219783746E-1,-8.969087943E0,2.417748536E0,9.317258142E0
1.233164942E1,-4.653225911E-1,-8.923067433E0,2.178132562E0,9.196842881E0
1.234162742E1,6.393084297E-2,-8.778338320E0,2.106322029E0,9.027729687E0
1.235160542E1,8.078143309E-1,-8.653603177E0,2.198146411E0,8.964890383E0
1.236158342E1,1.640803556E0,-8.470329219E0,2.346681769E0,8.941231946E0
1.237156142E1,2.461182531E0,-8.281035553E0,2.435110673E0,8.975674530E0
1.238153942E1,3.302631361E0,-8.071989992E0,2.374380614E0,9.038920269E0
1.239151642E1,4.022165161E0,-7.643160458E0,2.127822826E0,8.895130373E0
1.240149442E1,4.589880100E0,-7.074283093E0,1.730344309E0,8.608517412E0
1.241147242E1,5.027450051E0,-6.534077550E0,1.191940293E0,8.330074736E0
1.242145042E1,5.580430006E0,-6.104885489E0,6.350266233E-1,8.295425529E0
1.243142842E1,6.290687199E0,-5.615493420E0,2.153555837E-1,8.435217235E0
1.244140642E1,7.053253582E0,-5.046226045E0,2.502608299E-3,8.672530753E0
1.245138442E1,7.645305217E0,-4.399135154E0,-7.050426453E-2,8.820887303E0
1.246136142E1,8.069959838E0,-3.629331672E0,-1.633393380E-1,8.850027114E0
1.247133942E1,8.434543675E0,-2.851138020E0,-2.411128610E-1,8.906663260E0
1.248131742E1,8.764204431E0,-2.182846295E0,-2.905870298E-1,9.036622050E0
1.249129542E1,9.055743095E0,-1.634375128E0,-3.448310646E-1,9.208505499E0
1.250127342E1,9.229552165E0,-1.198832991E0,-4.096886730E-1,9.316097816E0
1.251125142E1,9.340714751E0,-7.588247502E-1,-5.685496286E-1,9.388717470E0
1.252122942E1,9.286091816E0,-1.813993406E-1,-7.724797529E-1,9.319931969E0
1.253120642E1,9.219648736E0,4.808954805E-1,-8.360179371E-1,9.269957349E0
1.254118442E1,9.443388934E0,1.036818339E0,-7.581184065E-1,9.530337368E0
1.255116242E1,9.815187650E0,1.427410006E0,-6.591776705E-1,9.940318060E0
1.256114042E1,1.011217709E1,1.604842011E0,-6.779717910E-1,1.026115437E1
1.257111842E1,1.019096013E1,1.641939086E0,-8.981346631E-1,1.036138399E1
1.258109642E1,1.012940065E1,1.682540982E0,-1.301985184E0,1.035040420E1
1.259107442E1,9.979806651E0,1.589942136E0,-1.703675743E0,1.024826658E1
1.260105142E1,9.684194232E0,1.368212795E0,-1.894874724E0,9.962237419E0
1.261102942E1,9.317021833E0,1.079237550E0,-1.906898354E0,9.571202164E0
1.262100742E1,8.878175434E0,7.848670793E-1,-1.825212459E0,9.097769831E0
1.263098542E1,8.382868322E0,4.877285367E-1,-1.692576558E0,8.565931113E0
1.264096342E1,7.965705153E0,1.243527353E-1,-1.458414575E0,8.099067555E0
1.265094142E1,7.595710303E0,-2.253475982E-1,-1.081954751E0,7.675690369E0
1.266091942E1,7.138140535E0,-5.705642867E-1,-6.849814332E-1,7.193593919E0
1.267089642E1,6.688103735E0,-9.079620785E-1,-3.219570494E-1,6.757128314E0
1.268087442E1,6.232562367E0,-1.239254792E0,7.794923186E-2,6.355050132E0
1.269085242E1,5.722017410E0,-1.606838250E0,5.230047888E-1,5.966317659E0
1.270083042E1,5.095830899E0,-1.942012931E0,8.476264143E-1,5.518820283E0
1.271080842E1,4.474128619E0,-2.170139710E0,1.042797117E0,5.080822678E0
1.272078642E1,3.896056215E0,-2.381110175E0,1.147118169E0,4.707952823E0
1.273076442E1,3.541940649E0,-2.636672090E0,1.104027698E0,4.551511884E0
1.274074142E1,3.367347175E0,-2.840262199E0,1.037658584E0,4.525798459E0
1.275071942E1,3.210830076E0,-3.001304458E0,1.064197049E0,4.522142588E0
1.276069742E1,2.956924676E0,-3.251629608E0,1.168957519E0,4.547852276E0
1.277067542E1,2.711347174E0,-3.556667739E0,1.179399769E0,4.625178128E0
1.278065342E1,2.460079161E0,-3.797326271E0,1.009912669E0,4.635903352E0
1.279063142E1,2.197630102E0,-4.003605514E0,8.561534089E-1,4.646658352E0
1.280060942E1,1.852743197E0,-4.182436173E0,1.034191185E0,4.689880713E0
1.281058642E1,1.579411154E0,-4.363384109E0,1.418640060E0,4.852442693E0
1.282056442E1,1.618863049E0,-4.511233880E0,1.766517816E0,5.108085149E0
1.283054242E1,2.113186222E0,-4.601258197E0,2.051681261E0,5.463197690E0
1.284052042E1,3.030687302E0,-4.779676042E0,2.240566207E0,6.086912642E0
1.285049842E1,4.326603953E0,-5.492113076E0,2.153685353E0,7.315816319E0
1.286047642E1,4.513423662E0,-5.816776802E0,1.850396709E0,7.591432902E0
1.287045442E1,3.851487275E0,-5.866465856E0,1.316137200E0,7.140139564E0
1.288043142E1,3.155658088E0,-6.181983951E0,9.255183434E-1,7.002263045E0
1.289040942E1,2.304374825E0,-6.303898982E0,8.845656145E-1,6.769914478E0
1.290038742E1,1.605050172E0,-6.220505993E0,1.187441153E0,6.533061866E0
1.291036542E1,9.915585512E-1,-5.723569261E0,1.579502517E0,6.019739334E0
1.292034342E1,8.020447370E-1,-5.193937823E0,1.788203092E0,5.551390471E0
1.293032142E1,1.552727532E0,-5.935955336E0,2.043075913E0,6.466891659E0
1.294029942E1,2.138660348E0,-6.483225485E0,2.043682562E0,7.126199491E0
1.295027642E1,2.239131008E0,-6.245971202E0,1.666199183E0,6.841204838E0
1.296025442E1,1.993723367E0,-6.009218609E0,1.329516799E0,6.469409252E0
1.297023242E1,1.584425288E0,-5.990808651E0,1.119893971E0,6.297170340E0
1.298021042E1,1.078953375E0,-5.822918133E0,1.120350054E0,6.027080571E0
1.299018842E1,6.233020788E-1,-5.511466191E0,1.153602877E0,5.665294754E0
1.300016642E1,1.995888591E-2,-5.148772759E0,1.148290243E0,5.275303761E0
1.301014342E1,-4.022814202E-1,-4.814733608E0,1.269797723E0,4.995585683E0
1.302012142E1,-4.602945703E-1,-4.499562837E0,1.391351981E0,4.732208486E0
1.303009942E1,-7.885198349E-1,-4.257122074E0,1.578296821E0,4.608239657E0
1.304007742E1,-1.270626274E0,-4.058051278E0,1.847081630E0,4.636160249E0
1.305005542E1,-1.671112599E0,-3.784513267E0,1.705126437E0,4.474663580E0
1.306003462E1,-2.684905187E0,-3.463703442E0,1.821904104E0,4.746081748E0
1.307001263E1,-3.625407606E0,-3.322835830E0,1.593197281E0,5.169438639E0
1.307998963E1,-4.494564638E0,-3.122345331E0,1.341007454E0,5.634576527E0
1.308996763E1,-5.625486311E0,-3.054863784E0,1.059819531E0,6.488567363E0
1.309994562E1,-6.743376296E0,-2.863884366E0,9.648642576E-1,7.389581893E0
1.310992363E1,-7.874345917E0,-2.443669827E0,1.379408458E0,8.359402702E0
1.311990163E1,-9.045827971E0,-2.049277763E0,2.019106130E0,9.492277524E0
1.312987962E1,-1.009389284E1,-1.800894181E0,2.566392651E0,1.056959147E1
1.313985763E1,-1.074399213E1,-1.767832562E0,2.759617401E0,1.123272394E1
1.314983463E1,-1.097534891E1,-1.611775931E0,2.613293753E0,1.139672802E1
1.315981263E1,-1.106622867E1,-1.384128331E0,2.246215056E0,1.137641026E1
1.316979062E1,-1.095886327E1,-1.242137762E0,1.997122207E0,1.120839362E1
1.317976863E1,-1.065053023E1,-1.155644579E0,1.994121562E0,1.089705600E1
1.318974663E1,-1.043386517E1,-1.093897981E0,2.210958392E0,1.072149673E1
1.319972463E1,-1.053777019E1,-1.089529234E0,2.426891973E0,1.086837058E1
1.320970262E1,-1.082892644E1,-1.054894714E0,2.628259701E0,1.119313182E1
1.321968063E1,-1.118101653E1,-1.067754203E0,2.911768384E0,1.160317305E1
1.322965763E1,-1.154041097E1,-1.038680093E0,3.255765928E0,1.203577806E1
1.323963563E1,-1.168844843E1,-1.044367387E0,3.576716087E0,1.226798386E1
1.324961362E1,-1.130929743E1,-1.174531670E0,3.975321363E0,1.204503686E1
1.325959163E1,-1.061653920E1,-1.370844042E0,4.295210837E0,1.153425134E1
1.326956963E1,-9.789596726E0,-1.664095063E0,4.457244199E0,1.088450469E1
1.327954762E1,-8.994539119E0,-2.046539804E0,4.355822489E0,1.020113958E1
1.328952462E1,-8.362555094E0,-2.349443994E0,4.018690161E0,9.570897836E0
1.329950263E1,-7.766256042E0,-2.703612769E0,3.705620295E0,9.019749259E0
1.330948063E1,-7.272216606E0,-3.114587830E0,3.524500451E0,8.660709852E0
1.331945862E1,-6.760482325E0,-3.516376914E0,3.508869089E0,8.389349805E0
1.332943663E1,-6.160277917E0,-3.964166045E0,3.691938395E0,8.203294799E0
1.333941463E1,-5.479576061E0,-4.408107707E0,3.950057883E0,8.065985659E0
1.334939263E1,-4.761902261E0,-4.833707238E0,4.167377254E0,7.962880885E0
1.335936962E1,-4.021395083E0,-5.334510734E0,4.325978301E0,7.958813444E0
1.336934763E1,-3.250582371E0,-5.852569363E0,4.380560889E0,8.000510459E0
1.337932563E1,-2.673676779E0,-6.277599376E0,4.219919164E0,8.022750102E0
1.338930363E1,-2.400996555E0,-6.737117436E0,3.893377898E0,8.143213571E0
1.339928162E1,-2.184180629E0,-7.113430202E0,3.562462914E0,8.250010683E0
1.340925963E1,-1.857365713E0,-7.415661085E0,3.322027745E0,8.335328731E0
1.341923763E1,-1.583395008E0,-7.727966720E0,3.234774424E0,8.525982345E0
1.342921463E1,-1.280450181E0,-8.017223800E0,3.227078319E0,8.736673544E0
1.343919262E1,-7.902199128E-1,-8.256583666E0,3.284115568E0,8.920820389E0
1.344917063E1,-1.711003473E-1,-8.441858541E0,3.343814763E0,9.081593920E0
1.345914863E1,4.098102951E-1,-8.483694785E0,3.348371791E0,9.129765349E0
1.346912662E1,1.018679984E0,-8.345494089E0,3.348224441E0,9.049618080E0
1.347910463E1,1.486820641E0,-8.210364350E0,3.308368942E0,8.975857810E0
1.348908263E1,1.678122387E0,-8.036899096E0,3.180190081E0,8.804626669E0
1.349905963E1,1.698351853E0,-7.784243832E0,2.952193694E0,8.496722818E0
1.350903762E1,1.686221512E0,-7.501861323E0,2.681155368E0,8.143086663E0
1.351901563E1,1.705592752E0,-7.228825003E0,2.413610169E0,7.809639659E0
1.352899363E1,1.830129383E0,-6.928067034E0,2.216658404E0,7.500737355E0
1.353897163E1,1.971407761E0,-6.751618531E0,2.056272787E0,7.327964186E0
1.354894962E1,1.994860358E0,-6.622790921E0,1.916604147E0,7.177339263E0
1.355892763E1,1.941555532E0,-6.468993947E0,1.694243307E0,6.963331168E0
1.356890463E1,2.062177451E0,-6.239088444E0,1.456649593E0,6.730574158E0
1.357888263E1,2.303493357E0,-6.028357716E0,1.241442528E0,6.571784989E0
1.358886062E1,2.529849600E0,-5.702389476E0,9.889784673E-1,6.316285550E0
1.359883863E1,2.623349209E0,-5.250419002E0,7.888352922E-1,5.922087629E0
1.360881663E1,2.720128230E0,-4.784554959E0,6.292717937E-1,5.539589040E0
1.361879462E1,2.990069618E0,-4.340923199E0,4.995077527E-1,5.294680211E0
1.362877263E1,3.360022368E0,-4.084949639E0,4.268408954E-1,5.306482547E0
1.363874963E1,3.741994069E0,-3.845307353E0,3.240281332E-1,5.375304874E0
1.364872763E1,4.064296397E0,-3.563386189E0,1.488171932E-1,5.407251880E0
1.365870562E1,4.390683881E0,-3.143822154E0,-1.322917923E-1,5.401779688E0
1.366868363E1,4.707168229E0,-2.639659433E0,-4.168482962E-1,5.412854807E0
1.367866163E1,5.186727036E0,-2.031272432E0,-5.361291566E-1,5.596037841E0
1.368863963E1,5.840487846E0,-1.398447577E0,-4.641908625E-1,6.023489609E0
1.369861762E1,6.688282076E0,-8.171659291E-1,-2.408490054E-1,6.742320485E0
1.370859463E1,7.696740834E0,-4.256749606E-1,1.250146401E-1,7.709516671E0
1.371857263E1,8.664537470E0,-1.838732976E-1,3.504166174E-1,8.673569667E0
1.372855063E1,9.405729942E0,6.235704660E-2,3.332446606E-1,9.411838085E0
1.373852862E1,9.906304811E0,4.998246717E-1,1.253208880E-1,9.919697830E0
1.374850663E1,1.043765416E1,1.033564948E0,-4.017183334E-3,1.048870331E1
1.375848463E1,1.104974771E1,1.468748066E0,1.212231593E-1,1.114759348E1
1.376846263E1,1.163071770E1,1.725870019E0,4.797967887E-1,1.176785565E1
1.377843962E1,1.208997673E1,1.833935335E0,8.113817172E-1,1.225517019E1
1.378841763E1,1.247006446E1,1.769132983E0,1.024821461E0,1.263655800E1
1.379839563E1,1.266498373E1,1.588272171E0,1.169502772E0,1.281765026E1
1.380837363E1,1.270993128E1,1.474966580E0,1.282424201E0,1.285933480E1
1.381835162E1,1.253454989E1,1.337341835E0,1.486710713E0,1.269305846E1
1.382832963E1,1.210535725E1,1.014358599E0,1.756736301E0,1.227414844E1
1.383830763E1,1.139583505E1,5.613484901E-1,1.909564684E0,1.156834500E1
1.384828463E1,1.039772236E1,-2.955358207E-2,1.681397266E0,1.053283439E1
1.385826262E1,9.498520576E0,-3.368826520E-1,1.116364153E0,9.569830301E0
1.386824063E1,8.807510664E0,-5.556755215E-1,6.998450553E-1,8.852728533E0
1.387821863E1,8.229165487E0,-8.585887742E-1,6.417344029E-1,8.298684374E0
1.388819662E1,7.762981017E0,-1.162761517E0,8.826649770E-1,7.899049694E0
1.389817463E1,7.358819132E0,-1.557901733E0,1.300774225E0,7.633563415E0
1.390815263E1,7.024778811E0,-1.973687298E0,1.763048078E0,7.506750124E0
1.391812963E1,6.623438208E0,-2.388074208E0,2.205240546E0,7.378070072E0
1.392810762E1,6.139657127E0,-2.861401638E0,2.547906971E0,7.237046283E0
1.393808563E1,5.659488455E0,-3.342429265E0,2.803955083E0,7.145894421E0
1.394806363E1,5.220154399E0,-3.813506101E0,2.942938429E0,7.103078722E0
1.395804163E1,4.807677773E0,-4.268473858E0,3.008868124E0,7.098374605E0
1.396801962E1,4.468519970E0,-4.739382879E0,2.921189125E0,7.138821100E0
1.397799763E1,4.154894325E0,-5.182512948E0,2.709632185E0,7.173820035E0
1.398797463E1,3.877894471E0,-5.516273772E0,2.422953142E0,7.165057137E0
1.399795263E1,3.600352579E0,-5.798367428E0,2.153467837E0,7.156886701E0
1.400793062E1,3.241874698E0,-6.146848617E0,1.964992196E0,7.221820671E0
1.401790863E1,2.921190003E0,-6.485873104E0,1.883201343E0,7.358420228E0
1.402788663E1,2.720521455E0,-6.801273086E0,1.841570045E0,7.553140592E0
1.403786462E1,2.485346734E0,-7.117993369E0,1.837943602E0,7.760207128E0
1.404784263E1,2.376140772E0,-7.340158328E0,1.885168931E0,7.942155321E0
1.405781892E1,2.350575137E0,-7.559028381E0,1.961974740E0,8.155578362E0
1.406779692E1,2.156092359E0,-7.884169239E0,2.141761419E0,8.449615425E0
1.407777492E1,1.813908914E0,-8.256382522E0,2.240879033E0,8.745264818E0
1.408775292E1,1.605550693E0,-7.926872624E0,2.173008354E0,8.374668228E0
1.409773092E1,1.066766608E0,-7.350423700E0,2.121312536E0,7.724421431E0
1.410770892E1,7.474905074E-2,-7.334697613E0,2.117985470E0,7.634738957E0
1.411768592E1,-4.853376102E-1,-7.113860557E0,2.194849459E0,7.460558208E0
1.412766392E1,-4.574820596E-1,-6.862669435E0,2.189623510E0,7.218031084E0
1.413764192E1,-2.010635269E-1,-6.735452149E0,2.368903673E0,7.142719847E0
1.414761992E1,-3.965634280E-1,-6.698180827E0,2.385865130E0,7.121463428E0
1.415759792E1,-1.065134650E0,-6.521379737E0,2.168092892E0,6.954389426E0
1.416757592E1,-1.703991492E0,-6.106510431E0,1.947719374E0,6.632244523E0
1.417755392E1,-2.100511066E0,-5.706456215E0,1.609587757E0,6.290195706E0
1.418753092E1,-2.327077224E0,-5.503295876E0,1.259276243E0,6.106335281E0
1.419750892E1,-2.453751304E0,-5.360940149E0,9.517127001E-1,5.972129587E0
1.420748692E1,-3.068335184E0,-5.030063757E0,5.237035310E-1,5.915275783E0
1.421746492E1,-4.264808239E0,-4.550551727E0,1.830063017E-1,6.239359073E0
1.422744292E1,-5.504008652E0,-4.066613941E0,4.652980328E-2,6.843509714E0
1.423742092E1,-6.400326585E0,-3.669927721E0,2.256148890E-1,7.381290670E0
1.424739892E1,-6.878703670E0,-3.332508879E0,2.844157322E-1,7.648730085E0
1.425737592E1,-7.289280535E0,-3.066401510E0,6.251017056E-2,7.908244841E0
1.426735392E1,-8.007630858E0,-2.724283846E0,-1.069082252E-1,8.459036813E0
1.427733192E1,-9.006244075E0,-2.289937172E0,-8.034308195E-2,9.293153373E0
1.428730992E1,-1.005270389E1,-1.863201819E0,1.147364044E-1,1.022455578E1
1.429728792E1,-1.104183058E1,-1.548054729E0,4.670732109E-1,1.115959916E1
1.430726592E1,-1.200271055E1,-1.432880076E0,8.017444825E-1,1.211449545E1
1.431724392E1,-1.267738217E1,-1.415773754E0,1.057955439E0,1.279998843E1
1.432722092E1,-1.317779741E1,-1.350138759E0,1.268116064E0,1.330734149E1
1.433719892E1,-1.347460091E1,-1.258794725E0,1.536198038E0,1.362018128E1
1.434717692E1,-1.350186764E1,-1.114909366E0,1.861076356E0,1.367505239E1
1.435715492E1,-1.322886933E1,-9.794901904E-1,2.240803896E0,1.345301405E1
1.436713292E1,-1.261705411E1,-9.407658353E-1,2.731796933E0,1.294363972E1
1.437711092E1,-1.189303666E1,-1.083484675E0,3.215834123E0,1.236769377E1
1.438708892E1,-1.106700518E1,-1.299285524E0,3.654915580E0,1.172711194E1
1.439706592E1,-1.016321860E1,-1.543740361E0,3.966952243E0,1.101865948E1
1.440704392E1,-9.340531148E0,-1.848416550E0,4.011246071E0,1.033209857E1
1.441702192E1,-8.551030735E0,-2.172668046E0,3.803354166E0,9.607607194E0
1.442699992E1,-7.719989948E0,-2.518046118E0,3.453632197E0,8.824192677E0
1.443697792E1,-6.872257699E0,-2.955437729E0,3.166718681E0,8.123462640E0
1.444695592E1,-5.992882074E0,-3.386619013E0,2.950282824E0,7.489191721E0
1.445693392E1,-5.112222399E0,-3.753227155E0,2.794480255E0,6.930414983E0
1.446691092E1,-4.194409516E0,-4.027439935E0,2.741201595E0,6.428649143E0
1.447688892E1,-3.413536085E0,-4.285462359E0,2.733846967E0,6.123016861E0
1.448686692E1,-2.924000759E0,-4.557867764E0,2.710869749E0,6.055803315E0
1.449684492E1,-2.629281210E0,-4.802732198E0,2.609724905E0,6.065477749E0
1.450682292E1,-2.536012858E0,-5.101085207E0,2.433121304E0,6.194554931E0
1.451680092E1,-2.584694436E0,-5.396694703E0,2.284556272E0,6.405010258E0
1.452677892E1,-2.527621518E0,-5.622008972E0,2.221155059E0,6.552051985E0
1.453675592E1,-2.297106736E0,-5.852175261E0,2.309061953E0,6.697493691E0
1.454673392E1,-2.054645507E0,-6.137781340E0,2.419159469E0,6.909866892E0
1.455671192E1,-1.827288513E0,-6.439790028E0,2.408487862E0,7.114119250E0
1.456668992E1,-1.604496440E0,-6.659541841E0,2.203347802E0,7.195738176E0
1.457666792E1,-1.420459713E0,-6.795462708E0,1.844348642E0,7.183149805E0
1.458664592E1,-1.159578878E0,-6.794074579E0,1.533059399E0,7.060760843E0
1.459662392E1,-7.576944834E-1,-6.794452894E0,1.394917759E0,6.977426933E0
1.460660092E1,-1.814069420E-1,-6.754243931E0,1.497710349E0,6.920683192E0
1.461657892E1,3.591386166E-1,-6.753296682E0,1.835701925E0,7.007552938E0
1.462655692E1,7.717374489E-1,-6.763835703E0,2.202034664E0,7.154998866E0
1.463653492E1,9.724388138E-1,-6.711620652E0,2.455935824E0,7.212704749E0
1.464651292E1,8.258543799E-1,-6.706874467E0,2.594669201E0,7.238543282E0
1.465649092E1,4.002952307E-1,-6.627501438E0,2.579426680E0,7.123022784E0
1.466646892E1,5.210158766E-2,-6.461349297E0,2.539482888E0,6.942674028E0
1.467644592E1,-3.747261241E-3,-6.374052122E0,2.537438701E0,6.860550244E0
1.468642392E1,1.339557637E-1,-6.369287810E0,2.647524815E0,6.898924482E0
1.469640192E1,3.462015058E-1,-6.481744385E0,2.738847506E0,7.045150915E0
1.470637992E1,6.023436114E-1,-6.595583242E0,2.697147211E0,7.151163486E0
1.471635792E1,8.598139121E-1,-6.584807408E0,2.490917376E0,7.092505759E0
1.472633592E1,1.207258244E0,-6.553854588E0,2.144077208E0,7.000539229E0
1.473631392E1,1.505611838E0,-6.504436845E0,1.779771992E0,6.909569742E0
1.474629092E1,1.783362475E0,-6.448439814E0,1.334619956E0,6.822313990E0
1.475626892E1,2.229666705E0,-6.293138936E0,8.838440681E-1,6.734700559E0
1.476624692E1,2.855942970E0,-6.185481171E0,4.939046583E-1,6.830851292E0
1.477622492E1,3.584934641E0,-5.998053351E0,1.160903272E-1,6.988696398E0
1.478620292E1,4.388435335E0,-5.632001864E0,-1.908990195E-1,7.142426206E0
1.479618092E1,5.155171952E0,-5.089007199E0,-3.687654725E-1,7.253259964E0
1.480615892E1,5.841152675E0,-4.491500697E0,-4.919136813E-1,7.384756065E0
1.481613592E1,6.557924250E0,-3.710246027E0,-6.675371423E-1,7.564251575E0
1.482611392E1,7.371785917E0,-3.041993478E0,-8.247390966E-1,8.017302945E0
1.483609192E1,8.216903291E0,-2.464838210E0,-1.010133694E0,8.637898887E0
1.484606992E1,8.762677138E0,-1.811481442E0,-1.118463742E0,9.017590409E0
1.485604792E1,9.074269413E0,-1.165258278E0,-1.191375013E0,9.226026591E0
1.486602592E1,9.311103281E0,-4.895131069E-1,-1.204169744E0,9.401398416E0
1.487600392E1,9.599098533E0,3.513001317E-1,-1.110187447E0,9.669468475E0
1.488598092E1,9.889688194E0,1.099577674E0,-8.031690104E-1,9.982989737E0
1.489595892E1,1.008486124E1,1.586994554E0,-3.429627331E-1,1.021472473E1
1.490593692E1,1.008921624E1,1.895299525E0,3.336055800E-2,1.026574681E1
1.491591492E1,9.904396280E0,2.158403764E0,2.512512021E-1,1.013996547E1
1.492589292E1,9.579983400E0,2.324667587E0,3.513906173E-1,9.864260575E0
1.493587092E1,9.273550708E0,2.368280214E0,4.071965897E-1,9.579838358E0
1.494584792E1,9.080946933E0,2.340817596E0,4.399294491E-1,9.388107484E0
1.495582592E1,8.944939528E0,2.284957391E0,5.179464356E-1,9.246688161E0
1.496580392E1,8.855526245E0,2.178961405E0,7.354918747E-1,9.149271346E0
1.497578192E1,8.739366043E0,1.997787766E0,1.087998433E0,9.030582229E0
1.498575992E1,8.679430913E0,1.771581797E0,1.366887231E0,8.963225075E0
1.499573792E1,8.583308535E0,1.452630801E0,1.613200021E0,8.853571932E0
1.500571592E1,8.363870718E0,1.097795443E0,1.775948936E0,8.620526831E0
1.501569292E1,8.112649190E0,7.229047197E-1,1.952440270E0,8.375541244E0
1.502567092E1,7.809700270E0,2.520436460E-1,2.129895225E0,8.098851645E0
1.503564892E1,7.378972145E0,-3.003422320E-1,2.081414645E0,7.672791037E0
1.504562692E1,6.977060854E0,-6.362875754E-1,1.821682641E0,7.238975596E0
1.505560492E1,6.617009779E0,-8.981498659E-1,1.606845413E0,6.868292639E0
1.506558275E1,6.299324121E0,-1.172432812E0,1.613826842E0,6.607610775E0
1.507556075E1,6.057454630E0,-1.533629941E0,1.779042698E0,6.496904672E0
1.508553775E1,5.785832752E0,-1.835398309E0,1.964063512E0,6.379819203E0
1.509551575E1,5.549799952E0,-2.051930060E0,2.208381378E0,6.315666615E0
1.510549375E1,5.284432840E0,-2.429363737E0,2.540201218E0,6.346625941E0
1.511547175E1,4.611960648E0,-3.160808315E0,2.682193249E0,6.201213659E0
1.512544975E1,3.928586322E0,-3.597330446E0,2.309763034E0,5.805995358E0
1.513542775E1,3.319525429E0,-3.860161620E0,1.802539003E0,5.400855827E0
1.514540575E1,2.669005146E0,-4.165009131E0,1.473142834E0,5.161495844E0
1.515538275E1,2.082511436E0,-4.421735812E0,1.314879464E0,5.061374268E0
1.516536075E1,1.552457390E0,-4.588028287E0,1.356360196E0,5.029894680E0
1.517533875E1,1.085078041E0,-4.596745316E0,1.583950494E0,4.981602254E0
1.518531675E1,7.092128795E-1,-4.568890935E0,1.965101831E0,5.023880222E0
1.519529475E1,6.590211113E-1,-4.526457691E0,2.395425036E0,5.163447410E0
1.520527275E1,8.201942021E-1,-4.439939949E0,2.710278303E0,5.266060554E0
1.521525075E1,9.674382750E-1,-4.537239372E0,2.814670398E0,5.426310660E0
1.522522775E1,9.588087349E-1,-4.797380242E0,2.607539215E0,5.543774178E0
1.523520575E1,7.811052000E-1,-5.099641530E0,2.142720362E0,5.586386991E0
1.524518375E1,4.845632927E-1,-5.394284481E0,1.577092295E0,5.640950873E0
1.525516175E1,1.530190024E-1,-5.650802416E0,1.172012689E0,5.773092456E0
1.526513975E1,-3.396296740E-2,-5.708531976E0,1.004414532E0,5.796321192E0
1.527511775E1,-2.820638359E-2,-5.632499462E0,1.144431666E0,5.747657751E0
1.528509575E1,3.110002443E-1,-5.492423564E0,1.527257937E0,5.709286695E0
1.529507275E1,8.811771530E-1,-5.460667920E0,1.853675243E0,5.833650591E0
1.530505075E1,1.474775669E0,-5.664129390E0,1.874053667E0,6.145681587E0
1.531502875E1,1.941249577E0,-5.825326016E0,1.494833665E0,6.319604481E0
1.532500675E1,1.852336231E0,-6.002733462E0,9.248662327E-1,6.349750868E0
1.533498475E1,1.157891664E0,-6.153288156E0,3.948988719E-1,6.273724042E0
1.534496275E1,1.876769114E-1,-6.131286837E0,5.855197102E-2,6.134437973E0
1.535494075E1,-6.348608547E-1,-5.926441916E0,-1.161373973E-2,5.960360473E0
1.536491775E1,-9.644128525E-1,-5.541354234E0,1.727280660E-1,5.627302540E0
1.537489575E1,-6.268975317E-1,-5.045370598E0,6.506736262E-1,5.125635683E0
1.538487375E1,1.261098236E-1,-4.804673474E0,1.240208327E0,4.963759419E0
1.539485175E1,5.366995525E-1,-5.068929030E0,1.543233554E0,5.325754193E0
1.540482975E1,-1.722706676E-2,-5.324835931E0,1.246518788E0,5.468819210E0
1.541480775E1,-1.499955241E0,-5.062880670E0,6.112856121E-1,5.315665198E0
1.542478575E1,-3.275279256E0,-4.541144727E0,9.065647401E-2,5.599791803E0
1.543476275E1,-4.737538667E0,-3.911894860E0,-2.852037907E-2,6.143940709E0
1.544474075E1,-5.365073546E0,-3.228923700E0,1.853064501E-1,6.264527188E0
1.545471875E1,-5.086445534E0,-2.704196321E0,8.440233600E-1,5.822111416E0
1.546469675E1,-4.387736008E0,-2.568262006E0,1.619844797E0,5.335924865E0
1.547467475E1,-4.208605971E0,-2.502338743E0,2.097170552E0,5.326554959E0
1.548465275E1,-4.764138236E0,-2.175448397E0,2.180451860E0,5.673090796E0
1.549463075E1,-5.814917972E0,-1.616573280E0,2.173272648E0,6.414802740E0
1.550460775E1,-7.059991913E0,-1.076029767E0,2.065245339E0,7.434148518E0
1.551458575E1,-7.903601875E0,-4.624486846E-1,1.937043967E0,8.150639283E0
1.552456375E1,-7.994788619E0,3.925352812E-2,1.933861327E0,8.225448652E0
1.553454175E1,-7.222827514E0,3.015338945E-1,2.150517624E0,7.542206974E0
1.554451975E1,-6.216302429E0,3.042358929E-1,2.468644747E0,6.695459824E0
1.555449775E1,-5.730163166E0,1.744440776E-1,2.398041957E0,6.214161719E0
1.556447575E1,-5.931182254E0,8.174582899E-2,1.904060993E0,6.229851810E0
1.557445275E1,-6.677629618E0,2.075644612E-1,1.396421517E0,6.825233577E0
1.558443075E1,-7.701721492E0,3.529467076E-1,1.314921856E0,7.821131939E0
1.559440875E1,-8.752018833E0,4.766305214E-1,1.634815423E0,8.916144446E0
1.560438675E1,-9.444205205E0,6.797049057E-1,2.237119419E0,9.729322382E0
1.561436475E1,-1.001825911E1,5.955371600E-1,2.555740194E0,1.035625357E1
1.562434275E1,-1.008961619E1,7.111108857E-1,2.764242548E0,1.048556486E1
1.563431975E1,-1.026292299E1,5.847104555E-1,3.401142327E0,1.082761486E1
1.564429775E1,-1.036274899E1,8.558160245E-2,4.094926744E0,1.114281454E1
1.565427575E1,-1.007981860E1,-2.014465195E-1,4.548889949E0,1.106054806E1
1.566425375E1,-9.751928378E0,-3.668730211E-1,4.642246594E0,1.080671811E1
1.567423175E1,-9.265737659E0,-5.712805706E-1,4.371467299E0,1.026109069E1
1.568420975E1,-8.735796903E0,-9.632545191E-1,3.925996006E0,9.625770173E0
1.569418775E1,-8.141713361E0,-1.373823198E0,3.669152965E0,9.035351133E0
1.570416475E1,-7.366545058E0,-1.806432956E0,3.661200167E0,8.422207120E0
1.571414275E1,-6.668258870E0,-2.241611397E0,3.762029554E0,7.977679135E0
1.572412075E1,-6.123020044E0,-2.722371807E0,3.776709573E0,7.691958003E0
1.573409875E1,-5.578105153E0,-3.203191273E0,3.648018204E0,7.394844708E0
1.574407675E1,-5.034270828E0,-3.612227397E0,3.515417386E0,7.123919493E0
1.575405475E1,-4.510871937E0,-4.014815211E0,3.442867473E0,6.951261990E0
1.576403275E1,-3.958127040E0,-4.432914519E0,3.455882206E0,6.874636181E0
1.577400975E1,-3.436875247E0,-4.763983285E0,3.479801996E0,6.827640158E0
1.578398775E1,-2.954999773E0,-5.047410691E0,3.501208652E0,6.816659033E0
1.579396575E1,-2.577345071E0,-5.405462018E0,3.470917736E0,6.921632551E0
1.580394375E1,-2.269615467E0,-5.833692797E0,3.365954368E0,7.107233978E0
1.581392175E1,-1.952178315E0,-6.351081920E0,3.256254755E0,7.399353807E0
1.582389975E1,-1.652602945E0,-6.837873148E0,3.071222832E0,7.675937426E0
1.583387775E1,-1.528478251E0,-7.218905786E0,2.908839806E0,7.931594766E0
1.584385475E1,-1.432909020E0,-7.496878910E0,2.768448451E0,8.119158114E0
1.585383275E1,-1.220188484E0,-7.734037884E0,2.667184031E0,8.271521781E0
1.586381075E1,-9.963523909E-1,-7.946273686E0,2.574297794E0,8.412074222E0
1.587378875E1,-7.607755275E-1,-8.069186252E0,2.601628557E0,8.512286257E0
1.588376675E1,-4.743034758E-1,-8.119161819E0,2.647024001E0,8.552922804E0
1.589374475E1,-1.772243556E-1,-8.151807409E0,2.606805390E0,8.560304133E0
1.590372275E1,6.250578515E-2,-8.136173124E0,2.491073205E0,8.509210644E0
1.591369975E1,1.782986353E-1,-8.036306189E0,2.329019377E0,8.368891134E0
1.592367775E1,1.553781529E-1,-7.950532798E0,2.165809555E0,8.241713727E0
1.593365575E1,1.610334154E-1,-8.042691933E0,2.013734585E0,8.292523878E0
1.594363375E1,4.413084418E-1,-8.217146536E0,1.883321796E0,8.441750489E0
1.595361175E1,7.367053181E-1,-8.366296143E0,1.828177874E0,8.595340611E0
1.596358975E1,7.545165217E-1,-8.646270769E0,1.768089547E0,8.857394314E0
1.597356775E1,6.391877943E-1,-8.928690700E0,1.482349567E0,9.073446913E0
1.598354475E1,6.968334469E-1,-8.868732766E0,1.163674560E0,8.971852440E0
1.599352275E1,8.038257989E-1,-8.434665297E0,1.014636050E0,8.533416719E0
1.600350075E1,1.140995257E0,-7.691947871E0,1.132843946E0,7.858197480E0
1.601347875E1,1.825507159E0,-6.885593444E0,1.486894315E0,7.276999943E0
1.602345675E1,2.893561909E0,-6.262419419E0,1.724446807E0,7.110858900E0
1.603343475E1,4.287866734E0,-5.727308555E0,1.584485807E0,7.327923286E0
1.604341275E1,5.629122695E0,-5.216480593E0,1.017204147E0,7.741666253E0
1.605338975E1,6.775520194E0,-4.542758558E0,1.262437248E-1,8.158447567E0
1.606336854E1,7.710288248E0,-3.552305716E0,-6.037065974E-1,8.510692241E0
1.607334654E1,8.689925496E0,-2.358083839E0,-8.791950931E-1,9.047007711E0
1.608332454E1,1.003659130E1,-1.336424407E0,-6.605418259E-1,1.014669949E1
1.609330254E1,1.163037623E1,-5.690568745E-1,-1.898741488E-1,1.164583742E1
1.610328054E1,1.311445335E1,1.642985737E-1,2.888547921E-1,1.311866296E1
1.611325854E1,1.423407353E1,1.001764866E0,7.948174323E-1,1.429140010E1
1.612323554E1,1.463972528E1,1.629815469E0,1.319154948E0,1.478911845E1
1.613321354E1,1.446595773E1,2.161589912E0,1.535906554E0,1.470698517E1
1.614319154E1,1.384899696E1,2.531228666E0,1.459226168E0,1.415383963E1
1.615316954E1,1.297116733E1,2.699277059E0,1.321359787E0,1.331477639E1
1.616314754E1,1.214878686E1,2.772470165E0,1.164805119E0,1.251544581E1
1.617312554E1,1.144212044E1,2.797426082E0,9.688599524E-1,1.181890022E1
1.618310354E1,1.084422510E1,2.786246790E0,8.507017574E-1,1.122871687E1
1.619308054E1,1.021276557E1,2.581895374E0,7.999248290E-1,1.056440458E1
1.620305854E1,9.596208254E0,2.268444269E0,8.301268673E-1,9.895562787E0
1.621303654E1,8.997639313E0,1.979131640E0,9.273169470E-1,9.259286796E0
1.622301454E1,8.374113286E0,1.646364843E0,1.103433621E0,8.605455030E0
1.623299254E1,7.816877142E0,1.228235130E0,1.270398817E0,8.014115232E0
1.624297054E1,7.317733086E0,7.518192011E-1,1.414313120E0,7.490976654E0
1.625294854E1,6.864700173E0,2.251867998E-1,1.541948190E0,7.039348108E0
1.626292554E1,6.526324727E0,-2.812002021E-1,1.611278041E0,6.728165049E0
1.627290354E1,6.272015285E0,-8.047394264E-1,1.637728213E0,6.532069732E0
1.628288154E1,5.949051930E0,-1.299965848E0,1.631702950E0,6.304251310E0
1.629285954E1,5.580348145E0,-1.734698730E0,1.640033478E0,6.069528393E0
1.630283754E1,5.158572693E0,-2.220419333E0,1.699280683E0,5.867596534E0
1.631281554E1,4.703684166E0,-2.709868121E0,1.735257139E0,5.699047929E0
1.632279254E1,4.208911488E0,-3.179091389E0,1.814101580E0,5.577860030E0
1.633277054E1,3.646574819E0,-3.613476947E0,1.901130953E0,5.474396995E0
1.634274854E1,3.103351235E0,-3.958067983E0,1.913821457E0,5.381431373E0
1.635272654E1,2.677843213E0,-4.157345186E0,1.911379660E0,5.301672894E0
1.636270454E1,2.381080646E0,-4.299996198E0,1.935745008E0,5.282671775E0
