"Time (s)","Linear Acceleration x (m/s^2)","Linear Acceleration y (m/s^2)","Linear Acceleration z (m/s^2)","Absolute acceleration (m/s^2)"
-1.697375090E-3,-3.954996368E-2,-2.099494400E-2,-3.618081629E-2,5.756768858E-2
8.246624959E-3,-3.822122960E-2,-2.106023182E-2,-2.510385096E-2,5.034480201E-2
1.819062501E-2,-2.279835778E-2,-2.919583526E-2,-2.854669154E-2,4.676617914E-2
2.813362493E-2,-2.717815071E-2,-1.945995853E-2,-3.767828822E-2,5.036859404E-2
3.807762498E-2,-5.000721551E-3,6.032453617E-4,-3.303793788E-2,3.341970168E-2
4.802162491E-2,2.182381880E-3,-4.869750773E-3,-2.824848354E-2,2.874811447E-2
5.796462495E-2,2.896553490E-2,-1.881410158E-4,-2.705097377E-2,3.963322837E-2
6.790862500E-2,3.687710091E-2,1.069572002E-2,-3.857700527E-2,5.442889245E-2
7.785262493E-2,3.995364997E-2,1.264729220E-2,-2.031439662E-2,4.657169586E-2
8.779662498E-2,2.380190444E-2,5.262167465E-3,-2.106284022E-2,3.221590135E-2
9.773962502E-2,1.339916876E-3,-7.847470469E-3,-2.764914393E-2,2.877244046E-2
1.076836250E-1,-3.095301264E-2,-9.198565576E-3,-1.522498012E-2,3.570017675E-2
1.176276250E-1,-4.581391222E-2,-2.172397759E-2,-2.285910487E-2,5.561820233E-2
1.275706249E-1,-5.834362742E-2,-2.280200316E-2,-1.851754725E-2,6.532082183E-2
1.375146250E-1,-5.312322414E-2,-3.402156061E-2,-3.213922083E-2,7.079882093E-2
1.474586249E-1,-2.477140934E-2,-1.154902521E-2,-2.585112512E-2,3.762025218E-2
1.574016250E-1,1.422231968E-2,7.165609749E-3,-1.028466761E-2,1.895770893E-2
1.673456250E-1,6.049789698E-2,2.797156991E-2,-2.944482386E-2,7.286564289E-2
1.772896249E-1,7.919342799E-2,1.758588708E-2,-3.109023035E-2,8.687614681E-2
1.872326250E-1,6.413222473E-2,1.494526622E-2,-3.183808923E-2,7.314346968E-2
1.971766250E-1,1.173627544E-2,8.529166735E-3,-7.586762309E-3,1.637210459E-2
2.071206250E-1,-2.723159792E-2,-1.769054311E-2,-2.345142782E-2,4.005601961E-2
2.170646250E-1,-4.165052108E-2,-2.910074948E-2,-2.240302205E-2,5.552940594E-2
2.270076249E-1,-5.220610664E-2,-3.230536398E-2,-3.018625081E-2,6.841289243E-2
2.369516250E-1,-3.961275729E-2,-2.184873798E-2,-3.168255329E-2,5.522972094E-2
2.468956250E-1,-6.516913706E-3,8.596320637E-5,-1.866080403E-2,1.976621261E-2
2.568386249E-1,3.742927906E-2,1.102130715E-2,-3.123524129E-2,4.998060065E-2
2.667826250E-1,6.599634449E-2,1.649875493E-2,-2.390107870E-2,7.210400796E-2
2.767266249E-1,5.572858812E-2,1.991798966E-2,-2.225391805E-2,6.322688285E-2
2.866696250E-1,4.298876602E-2,1.769355808E-2,-2.030796468E-2,5.072976869E-2
2.966136250E-1,1.988715702E-2,4.195788363E-3,-3.093644857E-2,3.701577373E-2
3.065576250E-1,-1.532937119E-2,-1.062395002E-2,-3.407874227E-2,3.884866290E-2
3.165006250E-1,-4.604650349E-2,-2.906924304E-2,-2.554531574E-2,6.014868686E-2
3.264446249E-1,-6.993182212E-2,-3.555244618E-2,-2.015593708E-2,8.099813562E-2
3.363886250E-1,-7.059710735E-2,-3.061375079E-2,-3.258068562E-2,8.356227845E-2
3.463316250E-1,-4.722382209E-2,-2.978894392E-2,-2.749126911E-2,6.223536318E-2
3.562756249E-1,-3.911047233E-3,-1.788042458E-2,-1.656340778E-2,2.468506332E-2
3.662196250E-1,5.437499424E-3,-5.117229607E-3,-3.243158162E-2,3.328002291E-2
3.761636249E-1,-3.615735434E-3,-1.483608546E-2,-2.973718464E-2,3.342877690E-2
3.861066250E-1,-2.903117904E-2,-1.232233090E-2,-2.000683308E-2,3.734866216E-2
3.960506250E-1,-3.763348393E-2,-1.707555992E-3,-4.350854695E-2,5.755161612E-2
4.059946249E-1,2.131946904E-2,1.243349424E-2,-1.252356648E-2,2.767582440E-2
4.159376250E-1,8.397817715E-2,4.975220382E-2,-1.416897297E-2,9.863252921E-2
4.258816249E-1,9.042726316E-2,2.511545860E-2,-5.323772907E-2,1.078987117E-1
4.358256250E-1,4.994049330E-2,-9.642574810E-3,-3.090838194E-3,5.095670124E-2
4.457686250E-1,-3.849377381E-2,-4.643717059E-3,-5.323655963E-2,6.585944132E-2
4.557126249E-1,-1.065678533E-1,-2.698476548E-2,-3.287889361E-2,1.147427844E-1
4.656566250E-1,-7.184806433E-2,-3.523656862E-2,-1.416780353E-2,8.126799353E-2
4.755996249E-1,-1.062941579E-2,-2.328589680E-2,-3.976457477E-2,4.729100206E-2
4.855436250E-1,-9.835245134E-3,-3.658913467E-3,-1.835908771E-2,2.114653154E-2
4.954876250E-1,1.798356855E-2,9.980025392E-3,-4.635087848E-2,5.070910747E-2
5.054306249E-1,9.534574910E-2,5.881548858E-2,3.612760663E-2,1.177084429E-1
5.153746250E-1,1.301849949E-1,5.567282030E-2,-7.538990557E-2,1.604095810E-1
5.253186249E-1,1.307828635E-1,3.497195014E-2,-2.040678263E-3,1.353933494E-1
5.352626250E-1,5.526660327E-2,2.069257900E-2,-4.035865188E-2,7.149406300E-2
5.452056250E-1,-2.537472323E-2,-1.187646472E-2,-7.576237321E-3,2.902285935E-2
5.551496249E-1,-8.902927612E-2,-4.922466163E-2,-3.496927321E-2,1.075738323E-1
5.650936250E-1,-1.491059908E-1,-8.121947908E-2,-4.918853223E-2,1.767730522E-1
5.750366249E-1,-1.643158230E-1,-8.633510755E-2,-1.715514600E-2,1.864074557E-1
5.849806250E-1,-1.451696270E-1,-6.332958475E-2,-3.646674514E-2,1.625259376E-1
5.949246250E-1,-6.228209261E-2,-3.161515043E-2,-3.212577224E-2,7.688070004E-2
6.048676249E-1,3.124331776E-2,9.584146051E-3,1.652247727E-2,3.661957148E-2
6.148116250E-1,9.609684222E-2,4.298174936E-2,-6.954970658E-2,1.261712945E-1
6.247556249E-1,1.380855242E-1,5.762826626E-2,-7.727095485E-3,1.498276913E-1
6.346986250E-1,1.365699899E-1,6.227070881E-2,-1.940281570E-2,1.513455403E-1
6.446426250E-1,1.079876669E-1,5.337038778E-2,-2.104939163E-2,1.222816886E-1
6.545866249E-1,3.626298795E-2,7.911668785E-3,-3.466989577E-2,5.078976738E-2
6.645306250E-1,-5.154167108E-2,-3.766422521E-2,-3.317066967E-2,7.194046876E-2
6.744736249E-1,-1.207454235E-1,-4.670075211E-2,-1.416020215E-2,1.302341310E-1
6.844176250E-1,-1.402675681E-1,-6.240728241E-2,-2.673463941E-2,1.558345292E-1
6.943616250E-1,-1.007304774E-1,-5.047896705E-2,-2.149553418E-2,1.147031524E-1
7.043046249E-1,-5.479986755E-2,-3.471484167E-2,-2.404082716E-2,6.918169618E-2
7.142486250E-1,6.985832993E-3,4.345349176E-4,-3.691581130E-2,3.757349873E-2
7.241926249E-1,7.711468801E-2,3.877740945E-2,-1.132196367E-2,8.705486461E-2
7.341356250E-1,1.116944544E-1,4.442921846E-2,-2.748834550E-2,1.233094309E-1
7.440796250E-1,1.187424050E-1,4.680064813E-2,-2.988278031E-2,1.310840950E-1
7.540236249E-1,7.884649624E-2,2.921269397E-2,-3.811507523E-2,9.231961015E-2
7.639651666E-1,-8.403782789E-3,-1.801547699E-3,-1.266623855E-2,1.530695065E-2
7.739091667E-1,-6.064639798E-2,-3.648744794E-2,-2.389289260E-2,7.470066775E-2
7.838531666E-1,-9.648927262E-2,-5.180602005E-2,-4.320156813E-2,1.177302804E-1
7.937961667E-1,-1.202789984E-1,-5.222446599E-2,-1.955075026E-2,1.325770121E-1
8.037401666E-1,-1.032818825E-1,-4.703929676E-2,-2.015067458E-2,1.152644455E-1
8.136841666E-1,-4.670583188E-2,-2.264163185E-2,-3.003013015E-2,5.996571471E-2
8.236271667E-1,2.981878071E-2,9.866671634E-3,-2.359293044E-2,3.928278578E-2
8.335711666E-1,7.965908563E-2,3.283939522E-2,-2.449106276E-2,8.957571075E-2
8.435151667E-1,1.035873904E-1,4.540800125E-2,-3.721518874E-2,1.190680659E-1
8.534591666E-1,8.377159685E-2,4.144257034E-2,-2.239425123E-2,9.610759368E-2
8.634021666E-1,4.911385233E-2,1.566799806E-2,-2.254335523E-2,5.626597123E-2
8.733461667E-1,-1.070690967E-2,-1.532975263E-2,-3.361973584E-2,3.846980463E-2
8.832901666E-1,-6.204560014E-2,-3.583713020E-2,-2.882794261E-2,7.723345566E-2
8.932331667E-1,-9.604268239E-2,-4.033507572E-2,-1.834973216E-2,1.057725288E-1
9.031771666E-1,-8.889559415E-2,-3.882873704E-2,-2.209311962E-2,9.948971512E-2
9.131211666E-1,-4.919109039E-2,-3.109641104E-2,-3.451669872E-2,6.766204729E-2
9.230641667E-1,-1.061320804E-2,-1.979071907E-2,-3.317008495E-2,4.005705034E-2
9.330081666E-1,4.140815400E-2,1.386518728E-2,-2.987751782E-2,5.291072393E-2
9.429521667E-1,7.728601143E-2,4.032521311E-2,-3.122530103E-2,9.259735309E-2
9.528951666E-1,8.538551973E-2,3.221765803E-2,-3.421907544E-2,9.746594068E-2
9.628391666E-1,5.782409317E-2,1.441822652E-2,-2.359176099E-2,6.409432263E-2
9.727831667E-1,9.894831916E-3,1.441523668E-3,-2.883086622E-2,3.051564412E-2
9.827271666E-1,-4.155190414E-2,-1.415952606E-2,-2.119615674E-2,4.874761508E-2
9.926701667E-1,-6.337864654E-2,-3.112128683E-2,-1.446016431E-2,7.207276658E-2
1.002614167E0,-8.235487131E-2,-4.541710555E-2,-3.242398024E-2,9.948041415E-2
1.012558167E0,-7.204020018E-2,-2.739551182E-2,-2.553829908E-2,8.119426845E-2
1.022501167E0,-2.467139455E-2,-1.159522735E-2,-2.613763869E-2,3.776642904E-2
1.032445167E0,1.893778847E-2,3.365794374E-3,-2.194810867E-2,2.918369199E-2
1.042389167E0,5.615778289E-2,2.125110458E-2,-2.568915725E-2,6.530879592E-2
1.052332167E0,6.697852140E-2,2.531248692E-2,-2.224573195E-2,7.497810956E-2
1.062276167E0,5.448570762E-2,2.034994586E-2,-1.940047681E-2,6.131224292E-2
1.072220167E0,3.038903955E-2,1.952886888E-2,-2.508864820E-2,4.398079937E-2
1.082163167E0,-2.920729900E-3,-2.769143118E-3,-2.748308301E-2,2.777622488E-2
1.092107167E0,-3.401572938E-2,-1.790780143E-2,-2.568623364E-2,4.623355703E-2
1.102051167E0,-6.448551533E-2,-3.265318652E-2,-2.733339429E-2,7.727694818E-2
1.111994167E0,-6.372234405E-2,-3.247603416E-2,-2.389172316E-2,7.540586424E-2
1.121938167E0,-4.575671914E-2,-2.229317662E-2,-3.167729080E-2,5.995092846E-2
1.131882167E0,-1.390561072E-2,-1.134621362E-2,-2.524067581E-2,3.097086192E-2
1.141825167E0,1.498475092E-2,9.066379673E-3,-2.778538406E-2,3.284462768E-2
1.151769167E0,5.299215515E-2,2.727742776E-2,-3.062946975E-2,6.701037972E-2
1.161713167E0,6.741490642E-2,2.762155924E-2,-2.883378983E-2,7.835245738E-2
1.171657167E0,4.103289066E-2,1.451330088E-2,-3.077974319E-2,5.330784754E-2
1.181600167E0,2.514958715E-2,-8.052301174E-4,-2.688608229E-2,3.682406211E-2
1.191544167E0,-1.040864686E-2,-1.507122118E-3,-1.730541945E-2,2.025065156E-2
1.201488167E0,-4.109611368E-2,-1.945989229E-2,-2.119732618E-2,5.016876124E-2
1.211431167E0,-5.842882317E-2,-3.639828475E-2,-3.047744215E-2,7.528370999E-2
1.221375167E0,-5.784108664E-2,-2.784390190E-2,-3.017864943E-2,7.093394855E-2
1.231319167E0,-3.917513888E-2,-7.875557661E-3,-2.284390211E-2,4.602781527E-2
1.241262167E0,-1.015060192E-2,-6.577580853E-3,-2.643760085E-2,2.907311521E-2
1.251206167E0,1.187423319E-2,4.809540440E-3,-3.107795119E-2,3.361499879E-2
1.261150167E0,4.244542264E-2,1.694987904E-2,-1.790709794E-2,4.908743688E-2
1.271093167E0,5.160668481E-2,2.228199154E-2,-2.614056230E-2,6.199246778E-2
1.281037167E0,4.950071873E-2,2.150563433E-2,-2.494188309E-2,5.945511748E-2
1.290981167E0,1.378011486E-2,9.775162709E-3,-2.344441116E-2,2.889785089E-2
1.300924167E0,-6.433079252E-3,-1.153253195E-2,-2.538919508E-2,2.861808919E-2
1.310868167E0,-3.790992932E-2,-2.445340075E-2,-2.553946853E-2,5.184010033E-2
1.320812167E0,-5.312381800E-2,-2.784347706E-2,-2.898172438E-2,6.661335904E-2
1.330756167E0,-5.187758449E-2,-3.114292838E-2,-2.793273389E-2,6.664385480E-2
1.340699167E0,-4.135859884E-2,-1.844402080E-2,-2.718370557E-2,5.281732149E-2
1.350643167E0,-6.258850498E-3,-8.066631421E-3,-1.939930737E-2,2.192206374E-2
1.360587167E0,1.500585571E-2,5.198060512E-3,-1.954899609E-2,2.518648024E-2
1.370530167E0,4.256126147E-2,2.013974988E-2,-2.403965771E-2,5.286752922E-2
1.380474167E0,5.248875557E-2,2.240468485E-2,-3.376883984E-2,6.631269794E-2
1.390418167E0,3.484702986E-2,1.268556862E-2,-3.586389720E-2,5.158932316E-2
1.400361167E0,2.249724445E-2,7.071789347E-3,-3.167144358E-2,3.948691620E-2
1.410305167E0,-1.247071314E-2,-1.387912009E-3,-2.987459421E-2,3.240272157E-2
1.420249167E0,-2.602071265E-2,-7.794811267E-3,-2.283980906E-2,3.548934273E-2
1.430192167E0,-4.490498995E-2,-1.926848734E-2,-1.430755198E-2,5.091599720E-2
1.440136167E0,-4.143631199E-2,-2.029820257E-2,-2.448638499E-2,5.223569689E-2
1.450080167E0,-2.885666706E-2,-1.669011649E-2,-2.867766917E-2,4.397358219E-2
1.460023167E0,-9.432344567E-3,-7.588217261E-3,-3.346829295E-2,3.559040318E-2
1.469967167E0,2.175967301E-2,8.905131281E-3,-3.152350903E-2,3.932577214E-2
1.479911167E0,2.471835500E-2,1.095201536E-2,-2.583533764E-2,3.739529897E-2
1.489854167E0,3.500280334E-2,2.498974346E-3,-2.733222485E-2,4.448023864E-2
1.499798167E0,3.356887420E-2,3.542435104E-3,-3.526689649E-2,4.881774420E-2
1.509742167E0,1.413047271E-2,3.390176806E-3,-2.912907422E-2,3.255251945E-2
1.519686167E0,-1.305381758E-2,-5.400266822E-3,-1.685401440E-2,2.199142643E-2
1.529629167E0,-3.557516352E-2,-1.274630886E-2,-3.002720654E-2,4.826690151E-2
1.539573167E0,-3.695274926E-2,-1.810739705E-2,-4.065569043E-2,5.784694175E-2
1.549517167E0,-4.064117289E-2,-1.769869952E-2,-2.748366773E-2,5.215650382E-2
1.559460167E0,-2.771386530E-2,-1.332084576E-2,-2.883028150E-2,4.215078164E-2
1.569404167E0,-6.502679391E-3,-6.187649227E-3,-2.164522290E-2,2.343261651E-2
1.579348167E0,1.348173327E-2,3.083707332E-3,-2.239425123E-2,2.632050286E-2
1.589291167E0,3.132942715E-2,7.036534748E-3,-2.209662795E-2,3.897828618E-2
1.599235167E0,2.150245034E-2,1.755566657E-2,-2.329355299E-2,3.623736208E-2
1.609179167E0,1.219606759E-2,1.391193302E-2,-2.179725051E-2,2.859031435E-2
1.619122167E0,1.234036591E-3,3.373071416E-3,-3.287480056E-2,3.307042439E-2
1.629066167E0,-1.617758291E-2,1.864181429E-3,-3.152701735E-2,3.548439353E-2
1.639010167E0,-3.318923458E-2,-1.188719984E-2,-3.571771681E-2,5.018551690E-2
1.648953167E0,-3.257797214E-2,-1.621177542E-2,-2.374320388E-2,4.344980623E-2
1.658897167E0,-2.449091658E-2,-1.479809683E-2,-2.613880813E-2,3.875597961E-2
1.668841167E0,-7.340731574E-3,-3.596821062E-3,-3.242456496E-2,3.343913687E-2
1.678784167E0,8.243203629E-4,-3.843984695E-3,-2.808417678E-2,2.835800959E-2
1.688728167E0,8.198006479E-3,1.649367060E-3,-2.539094925E-2,2.673252748E-2
1.698672167E0,1.943256341E-2,2.258630942E-3,-2.778713822E-2,3.398309852E-2
1.708616167E0,1.580395496E-2,5.368774084E-3,-3.272686601E-2,3.673739901E-2
1.718559167E0,9.211338088E-3,9.666429623E-4,-3.646908402E-2,3.762681541E-2
1.728503167E0,4.703253591E-3,3.232336245E-3,-3.137966752E-2,3.189439019E-2
1.738447167E0,-5.109233083E-3,-2.490822505E-4,-3.452254593E-2,3.489946249E-2
1.748390167E0,-1.924643923E-2,-7.234919812E-3,-2.808534622E-2,3.480741530E-2
1.758334167E0,-2.382511058E-2,-1.830361225E-4,-2.778713822E-2,3.660320269E-2
1.768278375E0,-1.163085197E-2,-6.065378466E-3,-2.599145830E-2,2.911393889E-2
1.778221375E0,-8.095205119E-3,-3.875281003E-3,-2.254920244E-2,2.426966583E-2
1.788165375E0,-5.913837366E-3,-7.195044542E-4,-2.659138262E-2,2.725055575E-2
1.798109375E0,7.376673678E-3,4.441944722E-3,-2.808826983E-2,2.937851408E-2
1.808052375E0,8.405427318E-3,6.575114059E-3,-2.898640215E-2,3.088842571E-2
1.817996375E0,1.800428962E-2,9.332263533E-3,-2.599379718E-2,3.296851649E-2
1.827940375E0,1.207937909E-2,4.616648562E-3,-3.347881794E-2,3.588949838E-2
1.837883375E0,-7.293780260E-3,1.265159310E-3,-1.282118976E-2,1.480482237E-2
1.847827375E0,-1.035258668E-2,-9.351351494E-3,-2.659313679E-2,3.003029720E-2
1.857771375E0,-2.396041880E-2,-5.550962817E-3,-2.434780598E-2,3.460824343E-2
1.867714375E0,-1.740727977E-2,-5.278347807E-3,-2.838940144E-2,3.371694616E-2
1.877658375E0,-1.666165014E-2,-9.265006848E-3,-3.362909138E-2,3.865703978E-2
1.887602375E0,-2.901415816E-3,-9.398942348E-5,-2.809060872E-2,2.824020796E-2
1.897545375E0,4.449840747E-3,5.444481822E-3,-2.689251423E-2,2.779659667E-2
1.907489375E0,1.823477956E-2,3.062438085E-3,-2.030621052E-2,2.746320990E-2
1.917433375E0,-4.797000904E-4,2.842553083E-3,-3.467808187E-2,3.479769507E-2
1.927377375E0,-1.387708727E-4,-4.958484555E-4,-3.782271445E-2,3.782621910E-2
1.937320375E0,1.357951881E-3,-1.790298661E-4,-3.258360922E-2,3.261238530E-2
1.947264375E0,-8.519585067E-3,1.707960272E-3,-2.285267293E-2,2.444882652E-2
1.957208375E0,-1.015250226E-2,-4.616621153E-3,-2.509800375E-2,2.746445494E-2
1.967151375E0,-1.213765025E-2,-1.057121772E-2,-2.569558918E-2,3.032056235E-2
1.977095375E0,-8.237429503E-3,-2.278248807E-3,-2.464659870E-2,2.608640431E-2
1.987039375E0,-8.081857022E-3,-3.350637294E-3,-2.823854327E-2,2.956278927E-2
1.996982375E0,3.905574605E-4,-6.674002809E-4,-3.003422320E-2,3.004417616E-2
2.006926375E0,4.149458315E-3,-4.876749159E-3,-2.823737383E-2,2.895427373E-2
2.016870375E0,8.765122443E-3,-3.934052372E-3,-3.153111041E-2,3.296232794E-2
2.026813375E0,4.225526936E-3,-4.237034074E-3,-2.823854327E-2,2.886559997E-2
2.036757375E0,-2.516531982E-3,-3.240271099E-4,-2.479453325E-2,2.492402066E-2
2.046701375E0,-9.809800610E-3,-8.943409987E-3,-2.688959062E-2,2.998777841E-2
2.056644375E0,-9.102232698E-3,2.692231676E-5,-3.721694291E-2,3.831386439E-2
2.066588375E0,-1.253886061E-2,-5.916991665E-3,-1.700838089E-2,2.194353746E-2
2.076532375E0,-1.217920203E-2,-5.992269998E-3,-1.925429642E-2,2.355776289E-2
2.086475375E0,-3.589386418E-3,2.240502289E-3,-2.928285599E-2,2.958697687E-2
2.096419375E0,-5.861066245E-3,8.096520742E-4,-2.853499711E-2,2.914195762E-2
2.106363375E0,1.446866104E-3,-4.132636150E-3,-1.805737138E-2,1.858065564E-2
2.116306375E0,-5.783946952E-3,4.622456948E-3,-2.299709916E-2,2.415962997E-2
2.126250375E0,-2.486829953E-3,2.837553257E-3,-3.227838457E-2,3.249815598E-2
2.136194375E0,8.360677846E-3,1.629264972E-3,-2.943312943E-2,3.064089663E-2
2.146137375E0,2.506080084E-3,-4.825225140E-3,-2.628966630E-2,2.684603861E-2
2.156081375E0,-3.426203420E-3,-3.018339572E-3,-3.991250932E-2,4.017284710E-2
2.166025375E0,-1.057473519E-2,-9.833819875E-3,-3.377644122E-2,3.673386746E-2
2.175968375E0,-1.212652227E-2,-6.196324120E-3,-2.853792071E-2,3.162056125E-2
2.185912375E0,-8.063255567E-3,-5.574671449E-3,-2.299943805E-2,2.500134402E-2
2.195856375E0,-8.759914767E-3,-1.114025916E-2,-3.332737505E-2,3.621540292E-2
2.205800375E0,-1.276968858E-2,-9.592592537E-3,-2.629375935E-2,3.076433907E-2
2.215743375E0,2.176287984E-3,8.126030909E-4,-3.377819538E-2,3.385798335E-2
2.225687375E0,3.473026827E-3,-2.022981299E-3,-1.776150227E-2,1.821058295E-2
2.235631375E0,-1.639339998E-3,-9.018622083E-4,-2.045589924E-2,2.054129024E-2
2.245574375E0,5.108036231E-3,9.395653289E-4,-1.985714436E-2,2.052513092E-2
2.255518375E0,-6.084758788E-5,6.414840964E-3,-2.779006183E-2,2.852089451E-2
2.265462375E0,-1.773807686E-3,2.888730098E-3,-3.437578082E-2,3.454251673E-2
2.275405375E0,-1.291003089E-2,-3.835026578E-3,-3.632173419E-2,3.873815562E-2
2.285349375E0,-7.137120562E-3,-2.155034726E-3,-2.793975055E-2,2.891733607E-2
2.295293375E0,8.288428187E-5,-1.151653205E-2,-3.168196857E-2,3.371030277E-2
2.305236375E0,-4.655160243E-3,-1.009166610E-2,-3.033477008E-2,3.230650890E-2
2.315180375E0,9.408900887E-4,-4.315544365E-3,-1.521503985E-2,1.584318891E-2
2.325124375E0,-1.019336882E-2,-4.036860585E-3,-2.045356035E-2,2.320666159E-2
2.335067375E0,9.514059406E-4,-6.272369900E-3,-2.150079668E-2,2.241722675E-2
2.345011375E0,3.968934668E-3,-2.461782857E-3,-3.138025224E-2,3.172590500E-2
2.354955375E0,7.690769657E-3,-3.041175690E-3,-2.554122269E-2,2.684680138E-2
2.364898375E0,1.522468776E-3,-2.602817242E-3,-1.745686233E-2,1.771537782E-2
2.374842375E0,-3.342834916E-3,-2.031076038E-3,-2.778421462E-2,2.805819661E-2
2.384786375E0,-7.595898584E-5,3.563087652E-3,-2.643584669E-2,2.667499491E-2
2.394729375E0,-4.302207688E-3,-2.525544916E-3,-1.655522168E-2,1.729053883E-2
2.404673375E0,-4.329844918E-3,-5.377380454E-3,-2.793039501E-2,2.877100525E-2
2.414617375E0,-4.563486865E-3,-3.331866818E-3,-2.927700877E-2,2.981727673E-2
2.424560375E0,1.808918389E-3,-5.849104577E-3,-2.927583933E-2,2.990917883E-2
2.434504375E0,-4.713961305E-3,3.733812645E-3,-3.181996286E-2,3.238321825E-2
2.444448375E0,-1.128147170E-2,2.826678806E-3,-3.196965158E-2,3.401941121E-2
2.454391375E0,-4.125164961E-3,-1.339846069E-3,-2.657968819E-2,2.693124575E-2
2.464335375E0,5.011310494E-3,-2.636742513E-3,-2.732754707E-2,2.790807182E-2
2.474279375E0,9.781204071E-4,3.538999865E-3,-3.106976509E-2,3.128596398E-2
2.484223375E0,-5.834936500E-3,-6.609512132E-3,-2.957229316E-2,3.085859131E-2
2.494166375E0,1.555743087E-3,-4.937121661E-3,-2.972315133E-2,3.017053582E-2
2.504110375E0,4.290997479E-3,-6.941060680E-3,-4.050132394E-2,4.131522992E-2
2.514054375E0,2.261264473E-3,-1.140437743E-3,-2.703050852E-2,2.714889143E-2
2.523997375E0,-8.362249285E-4,-1.544076065E-4,-1.730015695E-2,1.732104340E-2
2.533941375E0,-1.640299307E-3,4.265374797E-3,-2.718019724E-2,2.756169672E-2
2.543885375E0,-6.234191693E-3,-1.339124304E-3,-2.433669627E-2,2.515816339E-2
2.553828375E0,-6.279672068E-3,-4.718383262E-4,-2.299008250E-2,2.383696302E-2
2.563772375E0,-4.589817608E-3,5.237013018E-3,-3.047568798E-2,3.126116263E-2
2.573716375E0,3.031470682E-3,-3.518824687E-3,-2.523716748E-2,2.566099304E-2
2.583659375E0,1.012810841E-3,7.358561014E-4,-3.002779126E-2,3.005387692E-2
2.593603375E0,4.585614922E-3,-2.752231874E-3,-2.419051588E-2,2.477465848E-2
2.603547375E0,-4.669924462E-3,4.306124866E-3,-3.062654614E-2,3.127836688E-2
2.613490375E0,-5.628036428E-3,-2.515246051E-3,-2.583709180E-2,2.656231484E-2
2.623434375E0,-8.437989000E-3,-5.658421393E-3,-3.122530103E-2,3.283651649E-2
2.633378375E0,-4.180457694E-3,-5.003597194E-3,-1.356261671E-2,1.504848110E-2
2.643321375E0,-3.697916223E-3,-4.805997850E-3,-2.404082716E-2,2.479382121E-2
2.653265375E0,-4.213457918E-3,-1.456386102E-3,-4.394825757E-2,4.417378896E-2
2.663209375E0,-6.684874976E-3,-4.653150262E-4,-3.362032056E-2,3.428162811E-2
2.673152375E0,2.738296771E-3,8.355796791E-3,-2.434137404E-2,2.588088289E-2
2.683096375E0,3.653797153E-3,-1.374392607E-4,-1.775507033E-2,1.812764865E-2
2.693040375E0,-2.401003791E-3,-3.159428774E-3,-2.868176222E-2,2.895497010E-2
2.702983375E0,5.226615937E-3,4.847314367E-3,-2.568740308E-2,2.665814412E-2
2.712927375E0,-1.247695321E-3,5.291209398E-3,-2.359293044E-2,2.421115460E-2
2.722871375E0,-1.132455837E-2,-4.630437484E-3,-2.658553541E-2,2.926563286E-2
2.732814375E0,1.079332056E-3,-1.013379803E-2,-2.089736402E-2,2.324991706E-2
2.742758375E0,-8.207626976E-3,-1.792036837E-3,-3.272277296E-2,3.378396671E-2
2.752702375E0,-1.465220880E-3,-5.825185811E-3,-2.913024366E-2,2.974307915E-2
2.762645375E0,-1.595577244E-3,-4.985740345E-3,-1.955016553E-2,2.023888450E-2
2.772593500E0,3.202008381E-3,8.247109386E-3,-2.074709058E-2,2.255458797E-2
2.782537500E0,1.539654108E-3,3.067874168E-3,-2.778246045E-2,2.799370457E-2
2.792481500E0,-4.445254337E-4,-2.555840802E-3,-3.092650831E-2,3.103512270E-2
2.802424500E0,3.938154560E-3,-1.083450916E-2,-2.808359206E-2,3.035759860E-2
2.812368500E0,-2.454268271E-3,-1.624292554E-3,-3.032716870E-2,3.046963932E-2
2.822312500E0,-1.312393849E-2,-7.291608111E-3,-3.137382030E-2,3.478105678E-2
2.832255500E0,-9.659947436E-3,-5.620620057E-3,-2.568564892E-2,2.801175672E-2
2.842199500E0,-7.783100847E-3,-9.647606614E-3,-1.745335400E-2,2.140730105E-2
2.852143500E0,-3.884204859E-3,3.834594889E-3,-1.326206982E-2,1.434132704E-2
2.862086500E0,9.524885891E-3,4.541758520E-3,-2.598619580E-2,2.804698547E-2
2.872030500E0,4.768888587E-3,8.779891231E-3,-3.182581007E-2,3.335732266E-2
2.881974500E0,2.279975563E-3,1.771809126E-3,-2.913082838E-2,2.927358465E-2
2.891917500E0,-2.353687026E-3,-4.700496721E-3,-2.434078932E-2,2.490197857E-2
2.901861500E0,1.851749243E-3,-2.739831666E-3,-2.913258255E-2,2.931966948E-2
2.911805500E0,-8.170159115E-3,-8.069909059E-3,-2.988102615E-2,3.201172685E-2
2.921748500E0,-1.269420468E-2,-5.375030148E-3,-2.464192092E-2,2.823575833E-2
2.931692500E0,-1.893455422E-2,-1.112177191E-2,-3.197783768E-2,3.879166479E-2
2.941636500E0,-1.046069621E-2,-9.378360605E-3,-3.602001786E-2,3.866292151E-2
2.951579500E0,-1.102127060E-3,-9.988474161E-3,-1.716040850E-2,1.988627466E-2
2.961523500E0,-6.017789897E-3,-1.588779856E-3,-3.602235675E-2,3.655609665E-2
2.971467500E0,6.906950399E-3,-2.189250074E-3,-2.809002399E-2,2.900945066E-2
2.981410500E0,2.486747727E-3,-7.750255940E-4,-1.087523639E-2,1.118281474E-2
2.991354500E0,7.014822392E-3,4.659436019E-3,-2.150430501E-2,2.309444113E-2
3.001298500E0,4.356294433E-3,2.805311345E-3,-1.940807819E-2,2.008782149E-2
3.011241500E0,3.918676022E-3,-6.932561661E-3,-3.093410969E-2,3.194269205E-2
3.021185500E0,-5.933343312E-3,-2.864708549E-3,-3.332912922E-2,3.397413682E-2
3.031129500E0,-1.856243377E-2,-1.040465659E-2,-2.434839070E-2,3.233674312E-2
3.041072500E0,-1.077447242E-2,-1.146150199E-2,-2.180543661E-2,2.688740132E-2
3.051016500E0,-4.477980472E-3,-4.803907927E-3,-2.914018393E-2,2.987105890E-2
3.060960500E0,2.426959947E-3,-6.525910653E-3,-3.782212973E-2,3.845765387E-2
3.070903500E0,-5.742386039E-3,-2.587872581E-3,-3.467983603E-2,3.524717165E-2
3.080847500E0,-6.217508856E-4,-2.474146520E-3,-2.584761679E-2,2.597320290E-2
3.090791500E0,4.628683319E-3,3.690047606E-3,-1.746563315E-2,1.844151572E-2
3.100734500E0,-8.088069689E-4,8.013862583E-3,-2.599730551E-2,2.721646664E-2
3.110678500E0,5.318791810E-3,3.699499082E-3,-3.003773153E-2,3.072850721E-2
3.120622500E0,-2.894664109E-3,-2.122367977E-3,-3.333029866E-2,3.352301202E-2
3.130565500E0,-4.020435847E-3,-7.216681524E-3,-3.572531819E-2,3.666800726E-2
3.140509500E0,-1.073170552E-2,-3.419403748E-3,-3.183341146E-2,3.376726092E-2
3.150453500E0,-5.339202248E-3,-6.141636665E-3,-2.285208821E-2,2.425787949E-2
3.160397500E0,-5.294544138E-3,-6.211928877E-3,-2.569558918E-2,2.696077821E-2
3.170340500E0,-7.441541227E-3,-7.937037935E-3,-2.479687214E-2,2.707873658E-2
3.180284500E0,-5.962679889E-3,-7.250702726E-3,-3.617146075E-2,3.736978477E-2
3.190228500E0,2.508638240E-4,5.284896232E-3,-3.407640338E-2,3.448469701E-2
3.200171500E0,2.763448935E-3,3.310985863E-3,-3.093469441E-2,3.123386937E-2
3.210115500E0,5.807107408E-4,3.351544070E-3,-2.734333456E-2,2.755409257E-2
3.220059500E0,6.770372232E-3,-4.445788809E-3,-2.913842976E-2,3.024319869E-2
3.230002500E0,-6.186408978E-3,-1.149918912E-3,-2.838940144E-2,2.907837828E-2
3.239946500E0,-3.097105678E-3,1.329067550E-3,-2.389757037E-2,2.413404968E-2
3.249890500E0,-8.169437349E-3,-6.260819365E-3,-2.883729815E-2,3.061906809E-2
3.259833500E0,-8.889092552E-3,-2.056824344E-3,-2.120434284E-2,2.308399117E-2
3.269777500E0,-7.869813228E-3,1.151723326E-3,-2.809060872E-2,2.919490923E-2
3.279721500E0,-1.395732203E-2,-5.898920114E-3,-3.093410969E-2,3.444594663E-2
3.289664500E0,-6.264779940E-3,-1.516423760E-2,-2.494597614E-2,2.985805243E-2
3.299608500E0,7.909793565E-3,1.125011144E-3,-2.584644735E-2,2.705308346E-2
3.309552500E0,-1.783720544E-3,-2.259300174E-3,-2.449983358E-2,2.466835912E-2
3.319495500E0,-4.966232115E-3,-3.030543351E-3,-1.746504843E-2,1.840857331E-2
3.329439500E0,-3.751518745E-3,-2.301977996E-3,-1.252532065E-2,1.327616861E-2
3.339383500E0,4.006548710E-3,-1.513330217E-3,-2.150664389E-2,2.192893824E-2
3.349326500E0,-7.223366993E-3,-9.718554353E-3,-2.614757895E-2,2.881532951E-2
3.359270500E0,-1.066886622E-2,-7.480802082E-3,-2.375255942E-2,2.709190258E-2
3.369214500E0,-1.301402911E-2,-9.332300078E-3,-2.659606040E-2,3.104524451E-2
3.379157500E0,-7.596647758E-3,-2.917776599E-3,-3.767302573E-2,3.854191673E-2
3.389101500E0,-1.064450892E-2,2.895232842E-3,-2.913959920E-2,3.115773074E-2
3.399045500E0,1.466317233E-3,-4.555408114E-3,-2.270298421E-2,2.320188185E-2
3.408988500E0,3.794751596E-4,-2.365424854E-3,-3.063707113E-2,3.073059329E-2
3.418932500E0,-1.464252435E-3,-1.696967050E-3,-2.614699423E-2,2.624288551E-2
3.428876500E0,-4.740429092E-3,-1.033246175E-2,-2.659547567E-2,2.892318724E-2
3.438819500E0,-7.264927905E-3,-5.668667725E-3,-3.168430746E-2,3.299709548E-2
3.448763500E0,-7.702007275E-3,-9.072603760E-3,-2.419928670E-2,2.696736049E-2
3.458707500E0,-6.552590858E-3,-3.788902096E-3,-3.347940266E-2,3.432437368E-2
3.468650500E0,-1.839190520E-2,-1.362468627E-2,-2.090555012E-2,3.099897222E-2
3.478594500E0,-7.384485193E-3,-1.833333026E-2,-3.587500691E-2,4.095922047E-2
3.488538500E0,-9.533519670E-4,-8.226486531E-3,-2.105582356E-2,2.262590698E-2
3.498481500E0,1.154020186E-2,3.810913665E-3,-3.153344929E-2,3.379434488E-2
3.508425500E0,2.853146137E-2,1.104467774E-2,-2.030562580E-2,3.671985339E-2
3.518369500E0,2.569934419E-2,1.275173352E-2,-3.003422320E-2,4.153453458E-2
3.528312500E0,2.033756621E-2,1.026546545E-2,-2.509391069E-2,3.389248787E-2
3.538256500E0,9.022701429E-3,2.060120255E-3,-1.865729570E-2,2.082661565E-2
3.548200500E0,-1.708178172E-2,-6.956505552E-3,-2.539387286E-2,3.138517189E-2
3.558143500E0,-3.153079064E-2,-1.140765964E-2,-3.287772417E-2,4.696030455E-2
3.568087500E0,-2.691599445E-2,-1.635417111E-2,-2.733924150E-2,4.170568062E-2
3.578031500E0,-3.924028052E-2,-2.219587758E-2,-2.763920367E-2,5.288082995E-2
3.587974500E0,-3.567344243E-2,-1.264155005E-2,-2.584352374E-2,4.582893193E-2
3.597918500E0,-1.025582439E-2,-4.110206596E-3,-3.557387531E-2,3.725018573E-2
3.607862500E0,1.979509992E-2,2.158794303E-3,-3.212986529E-2,3.779992880E-2
3.617805500E0,3.272263591E-2,9.593252633E-3,-3.347706378E-2,4.778614021E-2
3.627749500E0,2.984375015E-2,6.654583658E-3,-2.823795855E-2,4.162109092E-2
3.637693500E0,1.911453883E-2,7.096751933E-3,-2.703986406E-2,3.386567187E-2
3.647636500E0,8.878668062E-3,7.091827481E-3,-2.883495927E-2,3.099321925E-2
3.657580500E0,-9.880908234E-3,-2.175780921E-4,-1.775682449E-2,2.032202017E-2
3.667524500E0,-3.289585054E-2,-1.130610995E-2,-2.374437332E-2,4.211603459E-2
3.677468500E0,-4.372346867E-2,-1.788330936E-2,-3.018274248E-2,5.605847313E-2
3.687411500E0,-2.973631670E-2,-1.746481546E-2,-2.404667437E-2,4.204177515E-2
3.697355500E0,-1.157178596E-2,-1.190161460E-2,-2.748893023E-2,3.211223980E-2
3.707298500E0,-4.663337208E-3,-9.316647355E-4,-2.718955278E-2,2.760229146E-2
3.717242500E0,9.981288482E-4,2.095776850E-3,-2.195044756E-2,2.207284961E-2
3.727186500E0,2.298404342E-2,9.386841352E-3,-3.123114824E-2,3.989691295E-2
3.737130500E0,3.375535470E-2,1.118200508E-2,-3.272862017E-2,4.832829178E-2
3.747073500E0,1.342293221E-2,1.246795627E-2,-3.602177203E-2,4.041278390E-2
3.757017500E0,3.664760683E-3,3.588326611E-3,-2.958515704E-2,3.002645626E-2
3.766957875E0,-5.590833519E-3,-1.116572195E-2,-3.287772417E-2,3.516924100E-2
3.776900875E0,-1.688324134E-2,-1.863977005E-2,-2.359760821E-2,3.448669278E-2
3.786844875E0,-3.653255372E-2,-1.637478482E-2,-3.003363848E-2,5.004778217E-2
3.796788875E0,-2.192917831E-2,-1.432745079E-2,-3.242924273E-2,4.168717418E-2
3.806731875E0,-1.838980386E-2,-5.372791761E-3,-3.228013873E-2,3.753743643E-2
3.816675875E0,4.195687864E-3,-5.259074837E-3,-3.287889361E-2,3.356014467E-2
3.826619875E0,1.218188809E-2,8.520832169E-4,-2.868819416E-2,3.117911043E-2
3.836562875E0,2.109644344E-2,1.267913897E-3,-2.120492756E-2,2.993854513E-2
3.846506875E0,2.083041340E-2,6.241626337E-3,-2.449749470E-2,3.275654543E-2
3.856450875E0,2.276046052E-2,1.089918257E-2,-2.659313679E-2,3.666095563E-2
3.866393875E0,8.614922091E-3,-6.179664123E-3,-3.123290241E-2,3.298331888E-2
3.876337875E0,-1.348242762E-2,-5.052848565E-3,-2.509683430E-2,2.893368669E-2
3.886281875E0,-2.500014511E-2,-1.704793411E-2,-3.198251545E-2,4.402863395E-2
3.896224875E0,-2.353004546E-2,-1.407089278E-2,-3.093469441E-2,4.133531639E-2
3.906168875E0,-2.214328690E-2,-7.995574046E-3,-2.449924886E-2,3.397745656E-2
3.916112875E0,-1.466200288E-2,-2.711061537E-3,-2.464776814E-2,2.880688559E-2
3.926055875E0,-1.122784177E-3,-3.403518051E-3,-1.910987020E-2,1.944303779E-2
3.935999875E0,4.458876522E-3,4.830531031E-3,-2.644461751E-2,2.724946614E-2
3.945943875E0,1.808619632E-2,9.020734846E-3,-2.869053304E-2,3.509459846E-2
3.955886875E0,1.267490887E-2,4.289053737E-3,-2.419811726E-2,2.765136842E-2
3.965830875E0,3.907304102E-2,2.727296240E-2,-3.108379841E-2,5.689217465E-2
3.975774875E0,1.840131557E-2,4.943553598E-3,-1.626461506E-2,2.505164345E-2
3.985717875E0,-9.804976657E-3,-3.097468388E-2,-8.841516316E-2,9.419559271E-2
3.995661875E0,-1.915812800E-3,-1.123338520E-2,6.905678630E-2,6.999070664E-2
4.005605875E0,-8.756977455E-2,-2.011290065E-2,-1.273354000E-1,1.558438266E-1
4.015548875E0,-6.357357809E-2,-4.584133475E-2,4.600355387E-2,9.088099235E-2
4.025492875E0,-6.010033200E-2,-3.910969575E-2,-7.868890464E-2,1.064592031E-1
4.035436875E0,-2.173920776E-2,-7.387623503E-3,7.680317760E-3,2.421068805E-2
4.045379875E0,1.947702052E-2,1.000643836E-2,-4.156785607E-2,4.698265420E-2
4.055323875E0,3.747760995E-2,8.462133890E-3,-3.632992029E-2,5.287761404E-2
4.065267875E0,8.863170200E-2,2.271961680E-2,1.142019689E-2,9.220726915E-2
4.075210875E0,8.115693214E-2,4.276657183E-2,-5.429315150E-2,1.065981876E-1
4.085154875E0,5.495349401E-2,1.208701702E-2,1.156988561E-2,5.744427506E-2
4.095098875E0,1.232392062E-2,-5.572522141E-3,-6.836213708E-2,6.968725714E-2
4.105041875E0,-5.021935981E-3,1.343165050E-2,2.354732215E-2,2.757001010E-2
4.114985875E0,-4.291421402E-2,-1.102395667E-2,-4.141758263E-2,6.065124514E-2
4.124929875E0,-5.601002192E-2,-5.776239591E-2,-7.438827753E-3,8.080193745E-2
4.134872875E0,-1.246829385E-1,-7.142634760E-2,-7.749256432E-2,1.632564112E-1
4.144816875E0,-7.688686587E-2,-2.306259711E-2,-3.528151453E-2,8.768271663E-2
4.154760875E0,-2.100397521E-2,-1.206393422E-2,4.779514074E-2,5.358246879E-2
4.164703875E0,-1.127126648E-2,3.607355186E-3,-1.029419857E-1,1.036200120E-1
4.174647875E0,4.481547274E-2,1.320971897E-2,2.085058630E-2,5.116317250E-2
4.184591875E0,3.693689782E-2,-1.742568936E-2,-6.641618371E-2,7.796857398E-2
4.194534875E0,6.639751830E-2,3.864686122E-2,2.803739905E-2,8.178206444E-2
4.204478875E0,7.928871933E-2,5.961209862E-2,-5.189579308E-2,1.119530109E-1
4.214422875E0,1.971805371E-2,-1.538165123E-2,-2.719598472E-2,3.694615571E-2
4.224365875E0,-3.550865144E-2,-5.020846023E-2,1.844796538E-3,6.152363026E-2
4.234309875E0,-5.259681942E-2,1.338832628E-2,-7.090450644E-2,8.929233857E-2
4.244253875E0,-1.341918633E-2,1.217592211E-2,2.863849282E-2,3.388939232E-2
4.254196875E0,-1.328953346E-2,-3.187925956E-2,-2.420162559E-2,4.217365968E-2
4.264140875E0,-7.964729983E-3,-2.901765963E-2,-8.407828331E-2,8.930072351E-2
4.274084875E0,-1.142709478E-2,8.912595618E-3,-7.437658310E-3,1.628900294E-2
4.284027875E0,1.793542039E-2,3.251090275E-2,-1.327551842E-2,3.943193492E-2
4.293971875E0,3.739877304E-2,2.719570835E-2,1.052557290E-2,4.742428136E-2
4.303915875E0,-3.801521575E-3,-2.502915506E-2,-9.290874839E-2,9.629613542E-2
4.313858875E0,-2.181068083E-2,-3.115075588E-2,-2.060968101E-2,4.325314256E-2
4.323802875E0,-3.772009581E-2,-1.200622951E-3,-1.117987633E-2,3.936034500E-2
4.333746875E0,-4.088108232E-2,-1.476063582E-2,-2.599905968E-2,5.064672117E-2
4.343689875E0,-3.386735628E-2,-3.084347099E-2,-2.674750328E-2,5.304475899E-2
4.353633875E0,-6.124692530E-2,-3.317685493E-2,-3.423486292E-2,7.761388666E-2
4.363577875E0,-2.594873708E-2,-1.594001008E-2,-3.752976894E-2,4.833119525E-2
4.373520875E0,2.917281870E-2,2.985560903E-2,7.976186872E-3,4.249741520E-2
4.383464875E0,5.483665933E-2,2.144887751E-2,-5.114910364E-2,7.799579704E-2
4.393408875E0,4.068149127E-2,4.510300043E-3,-1.821700037E-2,4.480162543E-2
4.403351875E0,3.865628986E-2,1.537521016E-2,-6.162731409E-2,7.435476901E-2
4.413295875E0,1.026835022E-2,1.391229391E-2,7.829421759E-3,1.898132722E-2
4.423239875E0,-3.386252319E-2,-2.489229139E-2,-5.668758631E-2,7.056754983E-2
4.433182875E0,-7.443931276E-2,-4.338750045E-2,-4.156902552E-2,9.566436307E-2
4.443126875E0,-5.392762743E-2,-7.336789272E-3,3.177844763E-2,6.302291020E-2
4.453070875E0,-2.681800791E-2,-1.953782471E-2,-5.998073816E-2,6.854648856E-2
4.463013875E0,-1.948685115E-3,-3.123346886E-2,-1.312816858E-2,3.393634867E-2
4.472957875E0,3.072075941E-2,4.232927319E-4,-4.411373377E-2,5.375840160E-2
4.482901875E0,1.661178435E-2,3.100569240E-2,-2.350580692E-3,3.525378802E-2
4.492844875E0,2.533795886E-2,1.423475643E-2,-1.178389370E-2,3.136081314E-2
4.502788875E0,7.604989177E-3,-2.040691053E-2,-2.540790617E-2,3.346400386E-2
4.512732875E0,1.129919607E-3,-2.177993499E-2,-2.406129241E-2,3.247442191E-2
4.522675875E0,-1.233473796E-2,3.505293864E-3,-1.957063079E-2,2.339748780E-2
4.532619875E0,-5.302995192E-3,2.991992841E-4,-2.899985075E-2,2.948224248E-2
4.542563875E0,1.199454878E-2,-6.108360069E-3,-7.144712806E-3,1.523903489E-2
4.552506875E0,1.066695674E-2,-4.000214988E-3,-3.947689176E-2,4.108784089E-2
4.562450875E0,1.924775485E-2,6.457121358E-3,-8.940392733E-3,2.218335198E-2
4.572394875E0,-5.040793251E-3,4.237104880E-3,-2.914778531E-2,2.988237010E-2
4.582337875E0,-1.610988311E-2,-1.162637063E-2,-2.839934170E-2,3.465867045E-2
4.592281875E0,-1.740060115E-2,-2.416056945E-2,-3.513474941E-2,4.605393200E-2
4.602225875E0,-2.489201730E-2,-1.432255374E-2,-1.582665861E-2,3.279071810E-2
4.612168875E0,-3.093679575E-2,-1.681468502E-2,7.523612380E-3,3.600588434E-2
4.622112875E0,-3.126388351E-2,-1.493199807E-2,-4.367226899E-2,5.574640847E-2
4.632056875E0,-6.316409027E-3,-1.721594334E-2,-2.197149754E-2,2.861874267E-2
4.641999875E0,-1.461475007E-3,-4.219357667E-3,6.693015397E-2,6.707894154E-2
4.651943875E0,4.380015856E-2,-2.886479377E-2,2.469875586E-1,2.524965036E-1
4.661887875E0,-7.194859989E-2,-8.224272355E-2,2.564156091E-1,2.787282390E-1
4.671830875E0,-1.868671816E-1,-1.273536360E-1,3.677044952E-1,4.316768328E-1
4.681774875E0,-1.101578518E-1,-1.755015831E-1,6.519557744E-1,6.840920185E-1
4.691718875E0,-5.835151202E-2,-1.991022428E-1,8.599172616E-1,8.845927305E-1
4.701661875E0,1.468683528E-1,-3.717866192E-1,9.723872852E-1,1.051348009E0
4.711605875E0,-1.520659793E-2,-7.132758173E-1,8.693336177E-1,1.124604184E0
4.721549875E0,-5.280591220E-1,-7.520779404E-1,9.637334061E-1,1.331634238E0
4.731492875E0,-4.673783259E-1,-5.273146983E-1,1.303668305E0,1.481909019E0
4.741436875E0,-3.210431296E-1,-2.063996228E-1,1.601364087E0,1.646218829E0
4.751380875E0,-3.800510007E-1,-1.168208637E-1,1.663380826E0,1.710240231E0
4.761323875E0,-7.145269022E-1,-3.754789531E-1,1.633195159E0,1.821773742E0
4.771267542E0,-8.620613625E-1,-5.505099450E-1,1.595843731E0,1.895502098E0
4.781211542E0,-8.397930457E-1,-3.864673331E-1,1.800404477E0,2.023873919E0
4.791154542E0,-7.464920222E-1,-2.889300750E-1,2.052315391E0,2.202891144E0
4.801098542E0,-6.898581572E-1,-4.263394967E-1,2.097088691E0,2.248432926E0
4.811042542E0,-7.134524032E-1,-4.436827768E-1,2.175523826E0,2.332117634E0
4.820985542E0,-4.748607885E-1,-2.341023418E-1,2.259017388E0,2.320227626E0
4.830929542E0,-3.027650258E-1,-4.591935396E-2,2.365768250E0,2.385505117E0
4.840873542E0,-2.368647127E-1,1.678794086E-2,2.448853092E0,2.460339040E0
4.850816542E0,-2.154953322E-1,-7.600079343E-2,2.311905454E0,2.323170503E0
4.860760542E0,-3.739462517E-1,-4.628401557E-1,2.002786551E0,2.089308684E0
4.870704542E0,-5.868289018E-1,-8.344847971E-1,1.642760035E0,1.933751165E0
4.880647542E0,-5.920338739E-1,-7.230403751E-1,1.599475436E0,1.852461380E0
4.890591542E0,-3.066132977E-1,-3.338309902E-1,1.752019937E0,1.809704038E0
4.900535542E0,-1.062344798E-1,-1.076855394E-1,1.947102932E0,1.952969986E0
4.910478542E0,3.298648238E-2,-2.059240249E-1,1.975550221E0,1.986527494E0
4.920422542E0,3.041236264E-1,-4.049921894E-1,1.866262836E0,1.933764936E0
4.930366542E0,4.702383453E-1,-4.108701029E-1,1.945340581E0,2.043107515E0
4.940309542E0,4.889993560E-1,-5.561640564E-1,1.982667452E0,2.116461446E0
4.950253542E0,6.751087019E-1,-6.443020615E-1,1.902841848E0,2.119364057E0
4.960197542E0,6.306366800E-1,-8.877473769E-1,1.740487474E0,2.053069573E0
4.970140542E0,5.369794880E-1,-1.200205040E0,1.566776052E0,2.045391480E0
4.980084542E0,8.250033908E-1,-1.144074108E0,1.585509362E0,2.122115948E0
4.990028542E0,1.084949110E0,-1.172169395E0,1.671614290E0,2.312009947E0
4.999971542E0,1.136498017E0,-1.390370818E0,1.531392211E0,2.360067978E0
5.009915542E0,1.178044823E0,-1.538620539E0,1.350605074E0,2.362049287E0
5.019859542E0,1.203739243E0,-1.578337752E0,1.192775860E0,2.315783339E0
5.029802542E0,1.157700606E0,-1.872101281E0,9.456368583E-1,2.395675890E0
5.039746542E0,1.197631826E0,-2.069887444E0,6.903164327E-1,2.489034511E0
5.049690542E0,1.223161501E0,-2.131980196E0,5.885134846E-1,2.527412063E0
5.059633542E0,1.436168258E0,-2.178669629E0,4.898241788E-1,2.655015695E0
5.069577542E0,1.612747154E0,-2.105646091E0,2.688239855E-1,2.665889191E0
5.079521542E0,1.645356491E0,-2.097112665E0,7.088813424E-2,2.666477946E0
5.089464542E0,1.650693245E0,-2.205366261E0,-1.363740259E-1,2.758083829E0
5.099408542E0,1.528383234E0,-2.326514722E0,-3.065256625E-1,2.800461398E0
5.109352542E0,1.527865463E0,-2.380141876E0,-5.660917515E-1,2.884425089E0
5.119295542E0,1.470320383E0,-2.437909443E0,-7.466917777E-1,2.943262321E0
5.129239542E0,1.402982093E0,-2.493906473E0,-9.255218518E-1,3.007410672E0
5.139183542E0,1.250999802E0,-2.507524053E0,-1.091495068E0,3.007330854E0
5.149126542E0,1.115175999E0,-2.570819578E0,-1.171118942E0,3.037145105E0
5.159070542E0,1.054564639E0,-2.636230626E0,-1.196307578E0,3.081066424E0
5.169014542E0,9.693309456E-1,-2.696561612E0,-1.245049968E0,3.124291349E0
5.178957542E0,9.717382443E-1,-2.725724015E0,-1.326247328E0,3.183202569E0
5.188901542E0,9.688193142E-1,-2.757835754E0,-1.405947801E0,3.243602647E0
5.198845542E0,9.627349940E-1,-2.781176670E0,-1.503835453E0,3.305045144E0
5.208788542E0,1.040022613E0,-2.808372070E0,-1.623916798E0,3.406714911E0
5.218732542E0,1.049552332E0,-2.923570989E0,-1.640129372E0,3.512670179E0
5.228676542E0,9.840460485E-1,-2.985946162E0,-1.626657388E0,3.539807249E0
5.238619542E0,1.032311890E0,-3.044235885E0,-1.594954369E0,3.588442476E0
5.248563542E0,1.144173219E0,-3.155584413E0,-1.512590489E0,3.681681047E0
5.258507542E0,9.942444697E-1,-3.265163573E0,-1.429880455E0,3.700590944E0
5.268450542E0,6.666585982E-1,-3.253091996E0,-1.425422830E0,3.613706057E0
5.278394542E0,4.751359731E-1,-3.133219398E0,-1.413039596E0,3.469798105E0
5.288338542E0,4.800993821E-1,-3.011963933E0,-1.464535732E0,3.383383966E0
5.298281542E0,4.946042776E-1,-3.030193212E0,-1.520722797E0,3.426266498E0
5.308225542E0,5.109846675E-1,-3.086776718E0,-1.516972978E0,3.477140039E0
5.318169542E0,5.051298505E-1,-3.074881142E0,-1.571618131E0,3.489990510E0
5.328112542E0,3.206911272E-1,-2.918656404E0,-1.581946653E0,3.335259093E0
5.338056542E0,1.357542942E-1,-2.760909635E0,-1.567523034E0,3.177763318E0
5.348000542E0,7.021570444E-2,-2.809051516E0,-1.632979982E0,3.249972967E0
5.357943542E0,-1.869739299E-1,-2.867986187E0,-1.575137278E0,3.277401633E0
5.367887542E0,-4.059420696E-1,-2.654542935E0,-1.471329612E0,3.062057803E0
5.377831542E0,-5.957308491E-1,-2.170561295E0,-1.386318406E0,2.643503414E0
5.387774542E0,-9.321654582E-1,-1.635103106E0,-1.427687749E0,2.362368920E0
5.397718542E0,-1.315926408E0,-1.239960551E0,-1.605313296E0,2.417890663E0
5.407662542E0,-1.653791684E0,-1.120631744E0,-1.815160511E0,2.699194346E0
5.417605542E0,-2.042974464E0,-1.027781467E0,-1.938925016E0,2.998251094E0
5.427549542E0,-2.429446183E0,-6.268916845E-1,-1.913431156E0,3.155379649E0
5.437493542E0,-2.718745656E0,9.035117626E-2,-1.782285710E0,3.252119867E0
5.447436542E0,-3.014296972E0,8.322669482E-1,-1.635804187E0,3.529094763E0
5.457380542E0,-3.387298752E0,1.305532397E0,-1.565783195E0,3.953464896E0
5.467324542E0,-3.821865281E0,1.516894625E0,-1.501112990E0,4.377323810E0
5.477267542E0,-4.098588270E0,1.851948853E0,-1.432789444E0,4.720278165E0
5.487211542E0,-4.317195783E0,2.359422852E0,-1.268999578E0,5.080887280E0
5.497155542E0,-4.578760742E0,2.852718523E0,-9.761026061E-1,5.482319692E0
5.507098542E0,-4.761462843E0,3.265329634E0,-5.392436761E-1,5.798680002E0
5.517042542E0,-4.852935515E0,3.473929052E0,-1.519048154E-1,5.970112331E0
5.526986542E0,-4.906270015E0,3.487714448E0,1.792247611E-1,6.022271917E0
5.536929542E0,-4.967987376E0,3.551226904E0,5.186848658E-1,6.128714799E0
5.546873542E0,-4.981894394E0,3.699937386E0,8.460885966E-1,6.262960508E0
5.556817542E0,-4.929134967E0,3.753644646E0,1.159178343E0,6.303166989E0
5.566760542E0,-4.762737828E0,3.602838523E0,1.345668270E0,6.121677885E0
5.576704542E0,-4.604505448E0,3.414962221E0,1.470843709E0,5.918345935E0
5.586647542E0,-4.496693316E0,3.344268215E0,1.602328000E0,5.828536325E0
5.596591542E0,-4.380596265E0,3.303804898E0,1.705492765E0,5.745733722E0
5.606535542E0,-4.187233521E0,3.084171199E0,1.754521376E0,5.488477184E0
5.616479542E0,-3.944635467E0,2.651000692E0,1.698901199E0,5.047199117E0
5.626422542E0,-3.831390103E0,2.327110553E0,1.583292097E0,4.754135832E0
5.636366542E0,-3.756042882E0,2.146703485E0,1.420715821E0,4.553529118E0
5.646309542E0,-3.639213759E0,1.830977229E0,1.297811733E0,4.275589982E0
5.656253542E0,-3.620331345E0,1.357590743E0,1.139052812E0,4.030793096E0
5.666197542E0,-3.797090043E0,9.612366450E-1,1.014760303E0,4.046184271E0
5.676140542E0,-3.832457220E0,5.835217166E-1,9.726843238E-1,3.996791304E0
5.686084542E0,-3.686080654E0,-8.219547987E-2,8.992330626E-1,3.795071381E0
5.696028542E0,-3.660059083E0,-7.391734278E-1,8.431299055E-1,3.827960016E0
5.705971542E0,-3.564467632E0,-1.012114438E0,9.199459469E-1,3.817866640E0
5.715915542E0,-3.483643324E0,-1.180641718E0,8.541998541E-1,3.776154534E0
5.725859542E0,-3.668911767E0,-1.443854131E0,6.563862097E-1,3.997057813E0
5.735802542E0,-4.009743336E0,-2.385280409E0,3.594914961E-1,4.679405773E0
5.745746542E0,-4.036369218E0,-2.916993456E0,3.192356090E-1,4.990294446E0
5.755690542E0,-3.930759147E0,-2.930594079E0,5.730271339E-1,4.936355865E0
5.765633542E0,-3.855461628E0,-3.208224556E0,6.825384665E-1,5.061931245E0
5.775577875E0,-3.857701989E0,-3.900747144E0,6.679952717E-1,5.526654557E0
5.785521875E0,-3.786785495E0,-4.732329383E0,7.941138661E-1,6.112716467E0
5.795464875E0,-4.009939218E0,-5.132354947E0,1.078276706E0,6.601769497E0
5.805408875E0,-4.410868470E0,-5.124704450E0,1.244469924E0,6.875104490E0
5.815352875E0,-4.634175682E0,-5.084107817E0,1.227968350E0,6.987964140E0
5.825295875E0,-4.712319334E0,-5.155772461E0,1.145768339E0,7.078186792E0
5.835239875E0,-4.559253846E0,-5.475950788E0,1.047991784E0,7.202160748E0
5.845183875E0,-4.070028715E0,-5.841181326E0,1.105374019E0,7.204608577E0
5.855126875E0,-3.355534045E0,-6.048379751E0,1.412368044E0,7.059553090E0
5.865070875E0,-2.883037505E0,-6.001420763E0,1.677926359E0,6.866177488E0
5.875014875E0,-2.793898457E0,-5.802490300E0,1.655893027E0,6.649567203E0
5.884957875E0,-2.933605980E0,-5.587340246E0,1.496586660E0,6.485690919E0
5.894901875E0,-2.685902138E0,-5.490890424E0,1.179225961E0,6.225312989E0
5.904845875E0,-1.737514164E0,-5.265588434E0,8.580262721E-1,5.610845401E0
5.914788875E0,-3.949536896E-1,-4.821324005E0,9.170622464E-1,4.923632474E0
5.924732875E0,1.138065217E0,-4.402477423E0,1.228558481E0,4.710239467E0
5.934676875E0,2.664412451E0,-3.984624867E0,1.511229258E0,5.025946967E0
5.944619875E0,4.102711142E0,-3.376055433E0,1.501568488E0,5.521294859E0
5.954563875E0,5.669577241E0,-2.939983538E0,1.394705506E0,6.537033941E0
5.964507875E0,7.470030835E0,-2.792973427E0,1.177244486E0,8.061511385E0
5.974450875E0,9.032481701E0,-2.589418986E0,9.668131346E-1,9.445927377E0
5.984394875E0,1.018762020E1,-2.311127189E0,7.958867419E-1,1.047675284E1
5.994338875E0,1.096698856E1,-2.155698257E0,4.838069554E-1,1.118731166E1
6.004281875E0,1.161860227E1,-2.186976768E0,9.711465061E-2,1.182303757E1
6.014225875E0,1.217449356E1,-2.223048241E0,-3.414773941E-2,1.237583948E1
6.024169875E0,1.261581099E1,-2.187207148E0,1.144638511E-1,1.280451733E1
6.034112875E0,1.280797155E1,-2.027802109E0,3.945109823E-1,1.297350205E1
6.044056875E0,1.257993364E1,-1.969220025E0,7.661220022E-1,1.275615541E1
6.054000875E0,1.189720807E1,-1.987388493E0,9.587321363E-1,1.210010083E1
6.063943875E0,1.106615617E1,-2.014914846E0,1.198728764E0,1.131179229E1
6.073887875E0,1.020673475E1,-2.038088531E0,1.427280782E0,1.050563513E1
6.083831875E0,9.111158327E0,-2.010430616E0,1.722937056E0,9.488074063E0
6.093774875E0,7.892444803E0,-2.056524217E0,2.063048540E0,8.412856002E0
6.103718875E0,6.828100111E0,-2.296379342E0,2.324916093E0,7.569778336E0
6.113661875E0,5.995218621E0,-2.606088229E0,2.637025262E0,7.048988892E0
6.123605875E0,5.274064558E0,-2.951393210E0,2.871403885E0,6.691146323E0
6.133549875E0,4.584495984E0,-3.260452471E0,3.024934811E0,6.387361298E0
6.143492875E0,3.835119749E0,-3.665761580E0,3.214417927E0,6.203098747E0
6.153436875E0,2.934512299E0,-4.133217820E0,3.382496141E0,6.093942248E0
6.163380875E0,2.099586622E0,-4.491879596E0,3.480405428E0,6.057926067E0
6.173323875E0,1.547428785E0,-4.735277549E0,3.404404489E0,6.033851111E0
6.183267875E0,9.977905136E-1,-5.092228430E0,3.235264421E0,6.115007127E0
6.193211875E0,3.412952533E-1,-5.580770899E0,3.095767397E0,6.391029812E0
6.203154875E0,-3.483081114E-1,-5.886688451E0,3.029047158E0,6.629445387E0
6.213098875E0,-9.777880660E-1,-6.038983276E0,2.998755072E0,6.813069829E0
6.223042875E0,-1.473686040E0,-6.134885214E0,2.937624772E0,6.959756205E0
6.232985875E0,-1.695143193E0,-6.364035257E0,2.756868625E0,7.139662443E0
6.242929875E0,-1.770136073E0,-6.674392599E0,2.801585791E0,7.451830730E0
6.252873875E0,-1.889641759E0,-6.769996914E0,2.923440596E0,7.612496904E0
6.262816875E0,-2.034863207E0,-6.639380057E0,2.790877200E0,7.484051801E0
6.272760875E0,-2.222808505E0,-6.427678106E0,2.493559148E0,7.243877464E0
6.282704875E0,-2.510488007E0,-6.233214331E0,2.408772182E0,7.138465827E0
6.292647875E0,-2.620557164E0,-6.099993124E0,2.183984163E0,6.989064514E0
6.302591875E0,-2.579067368E0,-5.994437433E0,2.067797503E0,6.845484288E0
6.312535875E0,-2.584827460E0,-5.904067546E0,2.057792040E0,6.765637787E0
6.322478875E0,-2.484002167E0,-5.638197573E0,2.016835510E0,6.482836117E0
6.332422875E0,-2.273169697E0,-5.359233347E0,1.959154189E0,6.142228233E0
6.342366875E0,-2.167939111E0,-5.284696550E0,1.824140811E0,5.996287794E0
6.352309875E0,-2.197269768E0,-5.094961419E0,1.498324745E0,5.747312705E0
6.362253875E0,-2.213412614E0,-4.726733013E0,1.023915435E0,5.318797157E0
6.372197875E0,-2.320689287E0,-4.175383261E0,5.975914331E-1,4.814201872E0
6.382140875E0,-2.438371958E0,-3.827245304E0,3.175856709E-1,4.549101568E0
6.392084875E0,-2.583508621E0,-3.669000353E0,1.928457038E-1,4.491466336E0
6.402028875E0,-2.735546753E0,-3.265143692E0,5.209394060E-2,4.259940510E0
6.411971875E0,-3.033156289E0,-2.638340301E0,-1.786667906E-2,4.020098983E0
6.421915875E0,-3.498613658E0,-1.926062311E0,3.874014258E-2,3.993934695E0
6.431859875E0,-4.072037233E0,-1.119930078E0,-1.902812612E-1,4.227521445E0
6.441802875E0,-4.553021884E0,-3.964763045E-1,-4.702096939E-1,4.594376877E0
6.451746875E0,-5.081021072E0,4.217263359E-1,-5.523864627E-1,5.128329069E0
6.461690875E0,-5.633786434E0,1.348676662E0,-5.260073340E-1,5.816799983E0
6.471633875E0,-6.157628544E0,2.295319827E0,-5.557567978E-1,6.594979000E0
6.481577875E0,-6.669720089E0,3.349046559E0,-5.718342654E-1,7.485203628E0
6.491521875E0,-7.294327852E0,4.365454023E0,-5.810682249E-1,8.520683536E0
6.501464875E0,-7.967527145E0,5.273489776E0,-6.371920665E-1,9.575865337E0
6.511408875E0,-8.615348353E0,6.080169309E0,-6.709750128E-1,1.056612008E1
6.521352875E0,-9.093614341E0,6.682350660E0,-7.215961128E-1,1.130788809E1
6.531295875E0,-9.548910127E0,7.011379917E0,-7.830824360E-1,1.187241976E1
6.541239875E0,-9.797705644E0,7.247709755E0,-8.041021530E-1,1.221355447E1
6.551183875E0,-9.787309295E0,7.384352168E0,-7.275456548E-1,1.228207649E1
6.561126875E0,-9.516148177E0,7.073480855E0,-4.698963197E-1,1.186642364E1
6.571070875E0,-9.002609446E0,6.363582097E0,-2.404416007E-1,1.102723747E1
6.581013875E0,-8.291354719E0,5.620465307E0,-8.535589993E-2,1.001715923E1
6.590957875E0,-7.575288318E0,4.923371367E0,-2.647034526E-2,9.034670962E0
6.600901875E0,-7.086002083E0,4.277829403E0,-1.726320255E-1,8.278952333E0
6.610844875E0,-6.662091812E0,3.591615377E0,-3.428433037E-1,7.576325617E0
6.620788875E0,-6.033435438E0,2.714495607E0,-2.753079812E-1,6.621678342E0
6.630732875E0,-5.358246921E0,1.959330044E0,-5.239693601E-2,5.705482428E0
6.640675875E0,-4.989848946E0,1.510461518E0,1.273465097E-1,5.215007540E0
6.650619875E0,-4.828459655E0,1.086178780E0,2.328745727E-1,4.954597617E0
6.660563875E0,-4.750831435E0,5.428075540E-1,4.532130075E-1,4.803169932E0
6.670506875E0,-4.718619416E0,-6.043857515E-2,7.366135899E-1,4.776151337E0
6.680450875E0,-4.533085510E0,-7.086614871E-1,9.586473517E-1,4.687224134E0
6.690394875E0,-4.308301291E0,-1.332996184E0,1.219394724E0,4.671751527E0
6.700337875E0,-4.277651063E0,-1.933235090E0,1.508954983E0,4.930785097E0
6.710281875E0,-4.308201596E0,-2.568533902E0,1.755597264E0,5.314140490E0
6.720225875E0,-4.200610196E0,-3.287686463E0,2.091726794E0,5.729688411E0
6.730168875E0,-4.275316562E0,-3.779492263E0,2.410407210E0,6.194590898E0
6.740112875E0,-4.437394364E0,-4.063292137E0,2.609419388E0,6.558191921E0
6.750056875E0,-4.523954205E0,-4.402613078E0,2.714013212E0,6.871319472E0
6.759999875E0,-4.648355180E0,-4.775095918E0,2.737849971E0,7.204482589E0
6.769943000E0,-4.697546636E0,-5.130488516E0,2.750112752E0,7.480105411E0
6.779887000E0,-4.709852686E0,-5.583556513E0,2.807012007E0,7.825479670E0
6.789830000E0,-4.773993133E0,-5.912849479E0,2.879444976E0,8.126746136E0
6.799774000E0,-4.776354531E0,-6.160360363E0,2.851077794E0,8.300135360E0
6.809718000E0,-4.849449112E0,-6.397819299E0,2.904174020E0,8.537181925E0
6.819661000E0,-5.016380103E0,-6.514854829E0,2.888988801E0,8.715139647E0
6.829605000E0,-5.155063779E0,-6.583854312E0,2.867033676E0,8.839779537E0
6.839549000E0,-5.326971334E0,-6.641210820E0,2.940561243E0,9.007175205E0
6.849492000E0,-5.498247975E0,-6.753251073E0,2.997640593E0,9.209939195E0
6.859436000E0,-5.540577139E0,-6.891997899E0,2.969962213E0,9.328360286E0
6.869380000E0,-5.524746972E0,-6.948764423E0,2.938151021E0,9.350983239E0
6.879323000E0,-5.511939231E0,-6.923031996E0,2.999225188E0,9.343725051E0
6.889267000E0,-5.461290649E0,-6.663807385E0,3.122057648E0,9.164020317E0
6.899211000E0,-5.098491967E0,-6.421367791E0,3.251688080E0,8.820547603E0
6.909154000E0,-4.261742544E0,-6.229731730E0,3.480859172E0,8.311942463E0
6.919098000E0,-3.181630835E0,-5.944590504E0,3.774705148E0,7.727181244E0
6.929042000E0,-2.174998162E0,-5.678310642E0,3.944289604E0,7.247844455E0
6.938985000E0,-1.352826431E0,-5.492489637E0,3.950149099E0,6.899366614E0
6.948929000E0,-4.969513500E-1,-5.100627370E0,3.915261102E0,6.449234816E0
6.958872000E0,8.281990403E-1,-4.527273377E0,4.006285293E0,6.101839045E0
6.968816000E0,2.601225684E0,-4.188468745E0,3.982977122E0,6.338276757E0
6.978760000E0,4.059242356E0,-3.907000741E0,3.826569951E0,6.810634396E0
6.988703000E0,5.111672761E0,-3.554170685E0,3.315973538E0,7.053864769E0
6.998647000E0,6.088727294E0,-3.287358727E0,2.782811551E0,7.458107507E0
7.008591000E0,7.472427608E0,-3.143150016E0,2.433046898E0,8.463822044E0
7.018534000E0,9.298203739E0,-3.052464379E0,2.166808552E0,1.002343209E1
7.028478000E0,1.095022342E1,-3.027093311E0,2.146143176E0,1.156186047E1
7.038422000E0,1.208738992E1,-3.174126518E0,2.295480479E0,1.270627030E1
7.048365000E0,1.280133729E1,-3.344367617E0,2.230678273E0,1.341771057E1
7.058309000E0,1.312136009E1,-3.384447357E0,1.967321288E0,1.369287871E1
7.068253000E0,1.325091918E1,-3.385488454E0,1.677808099E0,1.377909399E1
7.078196000E0,1.348580651E1,-3.338935554E0,1.512681998E0,1.397510911E1
7.088140000E0,1.380110826E1,-3.195275605E0,1.560214745E0,1.425182955E1
7.098084000E0,1.389615592E1,-2.953747299E0,1.681932579E0,1.430582642E1
7.108027000E0,1.341223918E1,-2.787482892E0,1.854384803E0,1.382378254E1
7.117971000E0,1.253593451E1,-2.787278824E0,1.977988071E0,1.299349892E1
7.127915000E0,1.139588768E1,-2.772530977E0,2.059250043E0,1.190771576E1
7.137858000E0,1.012112099E1,-2.750569127E0,2.227346968E0,1.072211710E1
7.147802000E0,8.837343158E0,-2.736499849E0,2.390824739E0,9.555266006E0
7.157746000E0,7.635087208E0,-2.797087528E0,2.501927099E0,8.507519880E0
7.167689000E0,6.572607778E0,-2.957293051E0,2.607842978E0,7.664567841E0
7.177633000E0,5.605028073E0,-3.030728817E0,2.722230304E0,6.929083250E0
7.187576000E0,4.673273674E0,-3.134362528E0,2.915629885E0,6.337555753E0
7.197520000E0,3.736609368E0,-3.339448940E0,3.191418489E0,5.941323149E0
7.207464000E0,2.773244922E0,-3.482014582E0,3.535120749E0,5.684398970E0
7.217407000E0,1.812464944E0,-3.636705596E0,3.820253788E0,5.577185291E0
7.227351000E0,9.209826583E-1,-3.868242472E0,3.984914889E0,5.629480931E0
7.237295000E0,9.415654421E-2,-4.145529717E0,4.043822079E0,5.791958140E0
7.247238000E0,-7.074581301E-1,-4.369227231E0,4.132797990E0,6.055630671E0
7.257182000E0,-1.454356315E0,-4.595968221E0,4.295921273E0,6.457012913E0
7.267126000E0,-2.049754311E0,-4.782599065E0,4.467158153E0,6.857860346E0
7.277069000E0,-2.413093860E0,-4.860193956E0,4.504718328E0,7.052445992E0
7.287013000E0,-2.647027509E0,-5.035848992E0,4.442189373E0,7.218003611E0
7.296957000E0,-2.878740971E0,-5.256828720E0,4.340488751E0,7.400083808E0
7.306900000E0,-3.074587027E0,-5.406727356E0,4.086486872E0,7.442120736E0
7.316844000E0,-3.267022988E0,-5.519757543E0,3.909609768E0,7.511738219E0
7.326788000E0,-3.280021640E0,-5.582201128E0,3.682609162E0,7.448565072E0
7.336731000E0,-3.193545122E0,-5.616351206E0,3.646805491E0,7.418983866E0
7.346675000E0,-3.018650224E0,-5.566708345E0,3.599813758E0,7.284171200E0
7.356619000E0,-2.800634157E0,-5.563233345E0,3.451466096E0,7.120795963E0
7.366562000E0,-2.569987519E0,-5.688886501E0,3.326658155E0,7.073536595E0
7.376506000E0,-2.334593674E0,-5.814657771E0,3.185275404E0,7.028979444E0
7.386450000E0,-2.013458158E0,-5.855984722E0,3.046057878E0,6.901089726E0
7.396393000E0,-1.645227998E0,-5.821037668E0,2.947737823E0,6.729072222E0
7.406337000E0,-1.409487413E0,-5.771283710E0,2.882919391E0,6.603453236E0
7.416280000E0,-1.256229259E0,-5.751321316E0,2.776024103E0,6.508618797E0
7.426224000E0,-1.217818023E0,-5.622242276E0,2.617120463E0,6.319969024E0
7.436168000E0,-1.261444099E0,-5.557248135E0,2.432509539E0,6.196075428E0
7.446111000E0,-1.011836110E0,-5.481783970E0,2.295204929E0,6.028410526E0
7.456055000E0,-3.401193783E-1,-5.368560240E0,2.419908789E0,5.898565825E0
7.465999000E0,3.854587615E-1,-5.341981722E0,2.818000095E0,6.051980808E0
7.475942000E0,5.364177167E-1,-5.363537482E0,3.327966177E0,6.334874676E0
7.485886000E0,-1.516020758E-1,-5.357676818E0,3.634914301E0,6.476132029E0
7.495830000E0,-1.310953643E0,-5.051471583E0,3.623825934E0,6.353587884E0
7.505773000E0,-2.572402712E0,-3.976690781E0,3.020843514E0,5.617545800E0
7.515717000E0,-3.641712567E0,-2.751452934E0,2.122794220E0,5.033767870E0
7.525661000E0,-4.445583974E0,-1.428388245E0,1.188740112E0,4.818362056E0
7.535604000E0,-5.384368773E0,1.095955324E-1,6.178192909E-1,5.420806115E0
7.545548000E0,-6.290849751E0,1.126915162E0,-8.094812259E-3,6.390993186E0
7.555492000E0,-7.171967263E0,2.047796078E0,-8.230879891E-1,7.503869471E0
7.565435000E0,-8.081736715E0,3.046235633E0,-1.799140309E0,8.822183727E0
7.575379000E0,-9.012792957E0,3.855223061E0,-2.760100965E0,1.018387643E1
7.585323000E0,-9.948159181E0,4.556037000E0,-3.377639444E0,1.145127907E1
7.595266000E0,-1.063392414E1,5.278479205E0,-3.461232408E0,1.236619647E1
7.605210000E0,-1.087097962E1,5.820907275E0,-3.313477947E0,1.276872333E1
7.615154000E0,-1.083547065E1,6.152063164E0,-3.040950919E0,1.282586012E1
7.625097000E0,-1.070524029E1,6.093672284E0,-2.465058650E0,1.256230575E1
7.635041000E0,-1.039614829E1,5.719901887E0,-1.792397300E0,1.200041103E1
7.644985000E0,-1.010969787E1,5.322514586E0,-1.213994236E0,1.148951411E1
7.654928000E0,-9.804822291E0,4.826377754E0,-8.129687977E-1,1.095853004E1
7.664872000E0,-9.307309023E0,4.263585001E0,-5.796847371E-1,1.025378919E1
7.674816000E0,-8.508249582E0,3.805629902E0,-6.509716880E-1,9.343280689E0
7.684759000E0,-7.530742475E0,3.347399983E0,-8.521007037E-1,8.285121875E0
7.694703000E0,-6.624497724E0,2.931977531E0,-9.880882287E-1,7.311414410E0
7.704647000E0,-5.938585414E0,2.497520052E0,-9.916574422E-1,6.518265690E0
7.714590000E0,-5.361348869E0,1.958145983E0,-8.750369918E-1,5.774433923E0
7.724534000E0,-4.789090059E0,1.485225520E0,-6.682255789E-1,5.058438876E0
7.734477000E0,-4.339144768E0,1.055374478E0,-4.021035918E-1,4.483712737E0
7.744421000E0,-4.103368661E0,6.629853773E-1,-1.346496820E-1,4.158763580E0
7.754365000E0,-4.097642775E0,2.003723860E-1,8.380097911E-2,4.103394693E0
7.764308000E0,-4.131518911E0,-3.009994590E-1,2.793802562E-1,4.151879396E0
7.774252875E0,-4.164614444E0,-7.445943815E-1,4.907711354E-1,4.259024603E0
7.784196875E0,-4.236382585E0,-1.146589873E0,6.319134195E-1,4.434063634E0
7.794139875E0,-4.358539106E0,-1.652361748E0,7.154349017E-1,4.715825440E0
7.804083875E0,-4.448437415E0,-2.186508406E0,7.202005287E-1,5.008802576E0
7.814027875E0,-4.500555110E0,-2.594659846E0,7.656554675E-1,5.251046020E0
7.823970875E0,-4.673876815E0,-3.012405397E0,9.592228639E-1,5.642678376E0
7.833914875E0,-5.016715148E0,-3.551164924E0,1.063252139E0,6.237684531E0
7.843858875E0,-5.191573793E0,-4.039419125E0,1.060011612E0,6.662804960E0
7.853801875E0,-5.319893280E0,-4.243267096E0,1.265169214E0,6.921505132E0
7.863745875E0,-5.372486061E0,-4.594859589E0,1.553210219E0,7.238010991E0
7.873689875E0,-5.433481876E0,-4.864692219E0,1.794098840E0,7.510442485E0
7.883632875E0,-5.523175825E0,-4.939485708E0,2.007302648E0,7.676799735E0
7.893576875E0,-5.588598567E0,-5.050668760E0,2.111667992E0,7.823095971E0
7.903520875E0,-5.778641846E0,-5.224420527E0,2.354638514E0,8.138279546E0
7.913463875E0,-5.697795904E0,-5.526040961E0,2.672957572E0,8.375363218E0
7.923407875E0,-5.496375697E0,-5.814617425E0,2.871483407E0,8.500902220E0
7.933351875E0,-5.448975828E0,-5.971572481E0,3.054490732E0,8.641812836E0
7.943294875E0,-5.359480684E0,-6.081496042E0,3.389995780E0,8.786392815E0
7.953238875E0,-5.053367250E0,-6.222217473E0,3.691004595E0,8.824739416E0
7.963182875E0,-4.865780970E0,-6.331752194E0,3.745232842E0,8.820072525E0
7.973125875E0,-4.799688722E0,-6.503866156E0,3.583786540E0,8.841991449E0
7.983069875E0,-4.750154035E0,-6.634513419E0,3.442896709E0,8.856312405E0
7.993012875E0,-4.614726673E0,-6.529120865E0,3.216885452E0,8.618205936E0
8.002956875E0,-4.360992013E0,-6.360155044E0,2.975055138E0,8.265638305E0
8.012900875E0,-3.932829062E0,-6.251340115E0,2.954486972E0,7.954583014E0
8.022843875E0,-3.193460337E0,-6.159607242E0,3.173648801E0,7.629613162E0
8.032787875E0,-2.172606066E0,-5.977983368E0,3.540199056E0,7.279389509E0
8.042731875E0,-1.021242526E0,-5.679055578E0,3.911206058E0,6.970806365E0
8.052674875E0,2.348756361E-1,-5.338064087E0,4.267773947E0,6.838420082E0
8.062618875E0,1.714573783E0,-4.976954666E0,4.417169137E0,6.871770092E0
8.072562875E0,3.288273523E0,-4.657785569E0,4.372194108E0,7.184969763E0
8.082505875E0,4.648942240E0,-4.525645805E0,4.131000556E0,7.691508272E0
8.092449875E0,6.011435874E0,-4.505863797E0,3.950471866E0,8.488014949E0
8.102393875E0,7.596283330E0,-4.344396153E0,3.861535715E0,9.564975507E0
8.112336875E0,9.264054830E0,-4.127890422E0,3.763280858E0,1.081778508E1
8.122280875E0,1.061721748E1,-3.973713086E0,3.512204341E0,1.186807828E1
8.132224875E0,1.171613266E1,-3.985767998E0,3.048972715E0,1.274560103E1
8.142167875E0,1.261573030E1,-4.081353309E0,2.444806818E0,1.348299582E1
8.152111875E0,1.325857085E1,-4.161034194E0,1.842944140E0,1.401785824E1
8.162055875E0,1.369014682E1,-4.073554586E0,1.441408825E0,1.435589169E1
8.171998875E0,1.399753728E1,-3.857938508E0,1.365934719E0,1.458357011E1
8.181942875E0,1.438163386E1,-3.702127461E0,1.692297061E0,1.494660529E1
8.191885875E0,1.445992106E1,-3.394443465E0,2.019104961E0,1.498960802E1
8.201829875E0,1.408681257E1,-3.233191290E0,2.103051389E0,1.460529491E1
8.211773875E0,1.327333156E1,-3.155290006E0,2.281555919E0,1.383266724E1
8.221716875E0,1.220976864E1,-3.031925157E0,2.584533638E0,1.284331867E1
8.231660875E0,1.096411173E1,-2.919632889E0,2.908403896E0,1.171301906E1
8.241604875E0,9.671612778E0,-2.827688931E0,3.105377880E0,1.054415906E1
8.251547875E0,8.419316356E0,-2.834740966E0,3.160973207E0,9.429336978E0
8.261491875E0,7.142946362E0,-2.878653555E0,3.174781407E0,8.329919928E0
8.271435875E0,5.944591089E0,-2.898701026E0,3.345565127E0,7.411709443E0
8.281378875E0,4.862311233E0,-2.920993536E0,3.693352836E0,6.768687386E0
8.291322875E0,3.916148710E0,-2.990492372E0,4.095292194E0,6.407080732E0
8.301266875E0,3.052391582E0,-3.171140345E0,4.387855875E0,6.215022497E0
8.311209875E0,2.159915854E0,-3.409906134E0,4.748380575E0,6.232159691E0
8.321153875E0,1.223791831E0,-3.628902487E0,4.944250020E0,6.253975372E0
8.331097875E0,2.824064827E-1,-3.858212743E0,4.982710665E0,6.308166498E0
8.341040875E0,-5.297255784E-1,-4.095806749E0,5.024008380E0,6.503606870E0
8.350984875E0,-1.171497842E0,-4.252523823E0,5.196657947E0,6.816276101E0
8.360928875E0,-1.671820112E0,-4.424407990E0,5.407309738E0,7.183965977E0
8.370871875E0,-2.193547284E0,-4.646409811E0,5.572831550E0,7.580054439E0
8.380815875E0,-2.580551684E0,-4.890190757E0,5.582184756E0,7.857098655E0
8.390758875E0,-2.703749009E0,-5.022715561E0,5.610268933E0,8.000815446E0
8.400702875E0,-2.680130351E0,-5.004729525E0,5.655237529E0,8.013247022E0
8.410646875E0,-2.643591101E0,-5.072152015E0,5.833861781E0,8.170021007E0
8.420589875E0,-2.748306839E0,-5.426916622E0,5.840316523E0,8.432906473E0
8.430533875E0,-2.944828541E0,-5.954952355E0,5.685633695E0,8.744135361E0
8.440477875E0,-3.063865573E0,-6.241693379E0,5.427116597E0,8.820408326E0
8.450420875E0,-2.954988663E0,-6.343826694E0,4.962716696E0,8.579315365E0
8.460364875E0,-2.875900394E0,-6.544275094E0,4.551114814E0,8.474136277E0
8.470308875E0,-3.000979353E0,-6.697373326E0,4.384778194E0,8.549091552E0
8.480251875E0,-3.115948477E0,-6.718827930E0,4.117687030E0,8.473908788E0
8.490195875E0,-2.980982460E0,-6.796460828E0,3.860458366E0,8.365481158E0
8.500139875E0,-2.808976087E0,-6.888504188E0,3.742194921E0,8.327416132E0
8.510082875E0,-2.660322323E0,-6.941609770E0,3.574594717E0,8.248696167E0
8.520026875E0,-2.508500246E0,-6.917078362E0,3.469836001E0,8.135005127E0
8.529970875E0,-2.401712839E0,-6.739531167E0,3.363685356E0,7.905939797E0
8.539913875E0,-2.411250671E0,-6.492947651E0,3.107697471E0,7.591461161E0
8.549857875E0,-2.608283274E0,-6.339117932E0,2.773874959E0,7.394723800E0
8.559801875E0,-2.954080591E0,-6.133578946E0,2.298512699E0,7.185439684E0
8.569744875E0,-3.314772520E0,-5.673429387E0,1.787339751E0,6.809559549E0
8.579688875E0,-3.509277225E0,-5.012294068E0,1.341291629E0,6.263958948E0
8.589631875E0,-3.598800143E0,-4.226982601E0,1.024607891E0,5.645225036E0
8.599575875E0,-3.748376305E0,-3.360373785E0,7.933364788E-1,5.096255456E0
8.609519875E0,-4.099499851E0,-2.527685253E0,4.725371781E-1,4.839254400E0
8.619462875E0,-4.861819774E0,-1.716012198E0,8.804064900E-2,5.156524075E0
8.629406875E0,-5.784168634E0,-6.981090170E-1,-3.088522696E-1,5.834325386E0
8.639350875E0,-6.793251876E0,5.359791756E-1,-8.957782352E-1,6.872987951E0
8.649293875E0,-7.698590893E0,1.695996594E0,-1.745337739E0,8.074088804E0
8.659237875E0,-8.479173717E0,2.665874255E0,-2.465658574E0,9.224030826E0
8.669181875E0,-9.108855693E0,3.452739912E0,-2.961286992E0,1.018144811E1
8.679124875E0,-9.623354537E0,4.119134216E0,-3.303573933E0,1.097678550E1
8.689068875E0,-9.986221046E0,4.738899314E0,-3.498118106E0,1.159390391E1
8.699012875E0,-1.004211107E1,5.252771337E0,-3.571379041E0,1.188235455E1
8.708955875E0,-9.965273981E0,5.569099272E0,-3.361966567E0,1.190060383E1
8.718899875E0,-9.754325151E0,5.644656993E0,-3.123542840E0,1.169467963E1
8.728843875E0,-9.355490665E0,5.635613104E0,-2.815141976E0,1.127875724E1
8.738786875E0,-8.938532733E0,5.577698772E0,-2.559004694E0,1.084235196E1
8.748730875E0,-8.432876633E0,5.346450164E0,-2.378375870E0,1.026423935E1
8.758674875E0,-7.776793309E0,4.884110237E0,-2.108749208E0,9.422307054E0
8.768617875E0,-6.917689980E0,4.417390162E0,-1.810269899E0,8.405048936E0
8.778561875E0,-6.233082769E0,4.055491367E0,-1.426734506E0,7.571915371E0
8.788505875E0,-5.764367623E0,3.566593972E0,-1.178347124E0,6.880191029E0
8.798448875E0,-5.351938360E0,2.937307268E0,-1.002422970E0,6.186749551E0
8.808392875E0,-4.927995345E0,2.366055933E0,-7.576895133E-1,5.518827067E0
8.818335875E0,-4.543208502E0,1.816282591E0,-5.424600832E-1,4.922792793E0
8.828279875E0,-4.245922902E0,1.279049188E0,-3.427855624E-1,4.447620718E0
8.838223875E0,-4.076053978E0,8.069929433E-1,-1.216080523E-1,4.156951065E0
8.848166875E0,-4.013503388E0,3.658468348E-1,1.202778107E-1,4.031937513E0
8.858110875E0,-4.009125286E0,-1.280867672E-1,3.716244686E-1,4.028349106E0
8.868054875E0,-4.003854021E0,-6.033309138E-1,5.791757736E-1,4.090268914E0
8.877997875E0,-3.943727102E0,-9.931396383E-1,7.931230554E-1,4.143471248E0
8.887941875E0,-3.897516557E0,-1.397106811E0,1.079226733E0,4.278699930E0
8.897885875E0,-3.838628663E0,-1.784744464E0,1.380301621E0,4.452596476E0
8.907828875E0,-3.871200286E0,-2.172288562E0,1.633775203E0,4.730142774E0
8.917772875E0,-3.956421700E0,-2.561002688E0,1.736680644E0,5.022754931E0
8.927716875E0,-3.997884598E0,-2.893595238E0,1.753217447E0,5.237341509E0
8.937659875E0,-4.014056535E0,-3.112165913E0,1.861503495E0,5.409567617E0
8.947603875E0,-4.088833652E0,-3.299066314E0,1.974273773E0,5.612499988E0
8.957547875E0,-4.185648341E0,-3.545628780E0,2.005251153E0,5.840562273E0
8.967490875E0,-4.278860267E0,-3.767300819E0,2.011437799E0,6.045418320E0
8.977434875E0,-4.368929608E0,-3.946315080E0,2.042993760E0,6.231755141E0
8.987378875E0,-4.435322110E0,-4.134853871E0,2.163792558E0,6.438252635E0
8.997321875E0,-4.543671893E0,-4.213267372E0,2.555195818E0,6.702656331E0
9.007265875E0,-4.545150070E0,-4.395356684E0,2.858585911E0,6.938952583E0
9.017208875E0,-4.617734481E0,-4.554226118E0,2.875390517E0,7.094527320E0
9.027152875E0,-4.754393851E0,-4.536434210E0,2.989484604E0,7.219453887E0
9.037096875E0,-4.854510170E0,-4.484085258E0,3.131036924E0,7.312775247E0
9.047039875E0,-4.950215349E0,-4.648596670E0,3.189917801E0,7.502643440E0
9.056983875E0,-4.895935062E0,-4.770448551E0,3.312005618E0,7.595837065E0
9.066927875E0,-4.634494355E0,-4.630997720E0,3.534376691E0,7.444225709E0
9.076870875E0,-4.129466246E0,-4.446495262E0,3.990952139E0,7.263023515E0
9.086814875E0,-3.334866477E0,-4.286472757E0,4.639352807E0,7.142743001E0
9.096758875E0,-2.296975758E0,-4.324579062E0,5.274318327E0,7.196979610E0
9.106701875E0,-1.348825766E0,-4.288756095E0,5.820783899E0,7.354881711E0
9.116645875E0,-6.060182941E-1,-4.148850351E0,5.840320616E0,7.189545347E0
9.126589875E0,-5.536839598E-1,-4.054979151E0,5.223399603E0,6.635761091E0
9.136532875E0,-1.176857400E0,-3.994957482E0,4.131407522E0,5.866277076E0
9.146476875E0,-2.064451872E0,-3.903368450E0,3.029655268E0,5.355096436E0
9.156420875E0,-2.740467770E0,-3.860525317E0,1.989358274E0,5.135305800E0
9.166363875E0,-2.400984861E0,-4.018333773E0,1.639593037E0,4.959838701E0
9.176307875E0,-6.222109884E-1,-3.902303965E0,1.861570154E0,4.368130743E0
9.186250875E0,1.930845333E0,-3.706726003E0,2.424460262E0,4.831768716E0
9.196194875E0,4.206900923E0,-3.533441429E0,3.113234199E0,6.314701172E0
9.206138875E0,5.602200944E0,-3.261228982E0,3.474585110E0,7.354795142E0
9.216081875E0,6.446871591E0,-2.802604961E0,3.303610185E0,7.767276752E0
9.226025875E0,7.727817031E0,-8.318553042E-1,1.833140845E0,7.985708777E0
9.235969875E0,9.959096982E0,1.720646117E0,-1.391782336E0,1.020202401E1
9.245912875E0,1.155463023E1,7.752077714E-1,-3.094440079E0,1.198690895E1
9.255856875E0,1.143926700E1,-2.261682549E0,-1.419935510E0,1.174684018E1
9.265800875E0,1.080891142E1,-4.481060785E0,1.191791189E0,1.176149813E1
9.275743875E0,1.094630111E1,-5.286130287E0,2.945665863E0,1.250766280E1
9.285687875E0,1.120065148E1,-5.286606835E0,3.900143126E0,1.298514235E1
9.295631875E0,1.139529477E1,-5.405679535E0,3.225464487E0,1.301836147E1
9.305574875E0,1.129112077E1,-5.777284707E0,1.475274729E0,1.276882385E1
9.315518875E0,1.072276206E1,-6.002484956E0,2.504327381E-1,1.229106051E1
9.325461875E0,1.009941963E1,-5.784870300E0,-4.957148831E-2,1.163896295E1
9.335405875E0,9.294422929E0,-5.185174600E0,3.739902886E-1,1.064951651E1
9.345349875E0,8.446582507E0,-4.652635634E0,1.244219809E0,9.723160871E0
9.355292875E0,7.748444839E0,-4.355995859E0,2.185982741E0,9.153776154E0
9.365236875E0,7.131431440E0,-4.142276326E0,2.763376576E0,8.697816832E0
9.375180875E0,6.417924950E0,-3.982291244E0,3.070754178E0,8.153400238E0
9.385123875E0,5.613083782E0,-3.845751742E0,3.341745726E0,7.580486825E0
9.395067875E0,4.709541029E0,-3.677143477E0,3.506390455E0,6.927909849E0
9.405011875E0,3.817533079E0,-3.550290765E0,3.621736139E0,6.347841837E0
9.414954875E0,2.974524211E0,-3.475781743E0,3.776455804E0,5.932155716E0
9.424898875E0,2.339726506E0,-3.519226847E0,3.932930803E0,5.772973448E0
9.434842875E0,1.882415770E0,-3.628912427E0,4.057897496E0,5.760123837E0
9.444785875E0,1.397647094E0,-3.703149261E0,4.114174608E0,5.709042350E0
9.454729875E0,7.977993661E-1,-3.780915475E0,4.205242653E0,5.711030680E0
9.464673875E0,1.940766889E-1,-3.958350404E0,4.372131543E0,5.900994654E0
9.474616875E0,-2.953475404E-1,-4.305474454E0,4.451514512E0,6.200025959E0
9.484560875E0,-5.801162982E-1,-4.587862810E0,4.359641013E0,6.355429950E0
9.494503875E0,-8.845773089E-1,-4.777076955E0,4.197400367E0,6.420366897E0
9.504447875E0,-1.354252567E0,-5.025867210E0,4.201137030E0,6.689012900E0
9.514391875E0,-1.771052039E0,-5.160582966E0,4.302476294E0,6.948348303E0
9.524334875E0,-2.090012391E0,-5.216743133E0,4.247282087E0,7.044286042E0
9.534278875E0,-2.444620292E0,-5.296539500E0,4.339971565E0,7.270821978E0
9.544222875E0,-2.651945895E0,-5.293225883E0,4.417513538E0,7.386845276E0
9.554165875E0,-2.734254518E0,-5.263065945E0,4.342893711E0,7.350968419E0
9.564109875E0,-2.639772576E0,-5.288806558E0,4.176780161E0,7.237773592E0
9.574053875E0,-2.482221982E0,-5.378129793E0,3.966825358E0,7.128913624E0
9.583996875E0,-2.236924561E0,-5.563428057E0,3.750312318E0,7.072510567E0
9.593940875E0,-1.964935039E0,-5.684710420E0,3.756712388E0,7.091529471E0
9.603884875E0,-1.731714165E0,-5.772760132E0,3.928985395E0,7.194478419E0
9.613827875E0,-1.578342576E0,-5.806503829E0,4.059100268E0,7.258301936E0
9.623771875E0,-1.582011996E0,-5.828496961E0,4.054167557E0,7.273954451E0
9.633715875E0,-1.814918143E0,-5.987511406E0,3.950237977E0,7.399229742E0
9.643658875E0,-2.045866790E0,-5.967451948E0,3.666157436E0,7.296352789E0
9.653602875E0,-2.178800314E0,-5.650477311E0,3.573818499E0,7.031873386E0
9.663545875E0,-2.372054007E0,-5.121646357E0,3.682876088E0,6.739545822E0
9.673489875E0,-2.808439313E0,-4.547974859E0,3.863928688E0,6.595555443E0
9.683433875E0,-3.484868900E0,-3.844593408E0,3.750922183E0,6.402704659E0
9.693376875E0,-4.420225477E0,-2.645796670E0,3.423849697E0,6.185578391E0
9.703320875E0,-5.208348870E0,-9.929987204E-1,2.603524517E0,5.906884485E0
9.713264875E0,-5.885192733E0,2.940646613E-1,1.568184354E0,6.097636403E0
9.723207875E0,-6.586779674E0,1.021166512E0,8.836894092E-1,6.723790188E0
9.733151875E0,-7.026381533E0,1.814682208E0,3.552508029E-1,7.265625376E0
9.743095875E0,-7.589357303E0,2.614196563E0,-2.985000667E-1,8.032525769E0
9.753038875E0,-8.389010822E0,3.205332524E0,-1.125046099E0,9.050712009E0
9.762982875E0,-9.025476737E0,3.924452925E0,-2.115478477E0,1.006656894E1
9.772926500E0,-9.560396982E0,4.502535562E0,-2.922335472E0,1.096421732E1
9.782869500E0,-9.898515151E0,4.714109459E0,-3.524004607E0,1.151616423E1
9.792813500E0,-1.002488284E1,4.864019789E0,-4.049891781E0,1.185574071E1
9.802757500E0,-9.902877173E0,4.919811582E0,-4.527711918E0,1.194871112E1
9.812700500E0,-9.605593035E0,4.877305248E0,-4.670534838E0,1.174178094E1
9.822644500E0,-9.067980732E0,4.865651747E0,-4.478422522E0,1.122315062E1
9.832587500E0,-8.403334746E0,4.767783390E0,-4.014249201E0,1.046240842E1
9.842531500E0,-7.744296239E0,4.446955438E0,-3.504313231E0,9.593213650E0
9.852475500E0,-7.046808196E0,3.960642512E0,-3.033177631E0,8.633907656E0
9.862418500E0,-6.165966673E0,3.475003186E0,-2.542585713E0,7.520607307E0
9.872362500E0,-5.379706203E0,3.181399285E0,-1.911962043E0,6.535911497E0
9.882306500E0,-4.773091493E0,2.784831179E0,-1.430413136E0,5.708219410E0
9.892249500E0,-4.430443486E0,2.354964935E0,-1.106812727E0,5.138066148E0
9.902193500E0,-4.247918556E0,1.941131755E0,-8.709626520E-1,4.750934697E0
9.912137500E0,-4.128062038E0,1.571650291E0,-6.694822186E-1,4.467570622E0
9.922080500E0,-3.954311440E0,1.193773980E0,-5.342966393E-1,4.164990777E0
9.932024500E0,-3.763884875E0,7.875240541E-1,-3.322975579E-1,3.859720865E0
9.941968500E0,-3.634650300E0,3.899952507E-1,-1.686456862E-1,3.659401654E0
9.951911500E0,-3.606521099E0,9.910913587E-2,-3.099521309E-2,3.608015765E0
9.961855500E0,-3.594355090E0,-3.219780993E-1,1.636191273E-1,3.612454793E0
9.971799500E0,-3.495916045E0,-7.706203383E-1,4.261275351E-1,3.605117110E0
9.981742500E0,-3.384567810E0,-1.149662000E0,7.299509069E-1,3.648266753E0
9.991686500E0,-3.350087948E0,-1.472373925E0,9.029691410E-1,3.769128216E0
1.000162950E1,-3.529810892E0,-1.646618028E0,9.128740320E-1,4.000531823E0
1.001157350E1,-3.777381126E0,-1.750942880E0,8.886431703E-1,4.257240400E0
1.002151750E1,-3.991926578E0,-1.973056383E0,9.327688909E-1,4.549559000E0
1.003146050E1,-4.055199299E0,-2.284744552E0,1.079157443E0,4.777999561E0
1.004140450E1,-3.882549147E0,-2.739509411E0,1.348321152E0,4.939338986E0
1.005134850E1,-3.679936985E0,-3.050626892E0,1.667294075E0,5.062423350E0
1.006129150E1,-3.661272672E0,-3.160998350E0,2.025160045E0,5.243863209E0
1.007123550E1,-3.756810914E0,-3.270892090E0,2.219367127E0,5.453251668E0
1.008117950E1,-4.046183769E0,-3.392359225E0,2.301348598E0,5.759853260E0
1.009112250E1,-4.336318517E0,-3.587122961E0,2.274528005E0,6.069974223E0
1.010106650E1,-4.570537218E0,-3.607832045E0,2.243498878E0,6.240156227E0
1.011101050E1,-4.641674736E0,-3.631223831E0,2.375281378E0,6.353966674E0
1.012095350E1,-4.600998580E0,-3.788913882E0,2.536164300E0,6.477436661E0
1.013089750E1,-4.684376952E0,-3.921196611E0,2.598938546E0,6.638798977E0
1.014084150E1,-4.861125417E0,-4.177796407E0,2.685804197E0,6.949681095E0
1.015078450E1,-4.967063516E0,-4.415048352E0,2.791670375E0,7.208175595E0
1.016072850E1,-4.932652652E0,-4.466791533E0,2.845371204E0,7.237363199E0
1.017067150E1,-4.874068229E0,-4.484861768E0,2.962018771E0,7.255624120E0
1.018061550E1,-4.790772303E0,-4.599395274E0,3.086277366E0,7.323321932E0
1.019055950E1,-4.748503366E0,-4.758802652E0,3.137120075E0,7.418625834E0
1.020050250E1,-4.896048498E0,-4.904582509E0,3.134794053E0,7.606126099E0
1.021044650E1,-5.048130484E0,-5.138438975E0,3.051533503E0,7.822981094E0
1.022039050E1,-4.917330608E0,-5.486738901E0,3.039682074E0,7.970201452E0
1.023033350E1,-4.194238778E0,-5.610274780E0,3.318772016E0,7.751197954E0
1.024027750E1,-2.924551567E0,-5.382090113E0,3.691348411E0,7.151639598E0
1.025022150E1,-1.648573337E0,-5.139259924E0,4.223877729E0,6.853534102E0
1.026016450E1,-6.036718065E-1,-5.001564428E0,4.828485675E0,6.978133009E0
1.027010850E1,2.516612381E-1,-4.827297521E0,5.178998187E0,7.084360024E0
1.028005250E1,9.332243890E-1,-4.517490985E0,4.955800025E0,6.770419961E0
1.028999550E1,1.564254148E0,-4.202042472E0,4.003438869E0,6.010954562E0
1.029993950E1,2.061023650E0,-3.994411937E0,3.087270808E0,5.452924559E0
1.030988250E1,3.309280815E0,-3.708524899E0,2.769947092E0,5.690088166E0
1.031982650E1,5.351593375E0,-3.373824720E0,2.744674256E0,6.896048264E0
1.032977050E1,7.099330811E0,-3.204680851E0,2.990753742E0,8.343565501E0
1.033971350E1,8.349971302E0,-3.125166028E0,3.088540238E0,9.435452519E0
1.034965750E1,9.260218472E0,-3.216233780E0,2.843506819E0,1.020692593E1
1.035960150E1,9.841535203E0,-3.183166606E0,2.470513517E0,1.063446293E1
1.036954450E1,1.009302161E1,-2.835938183E0,2.110009868E0,1.069409988E1
1.037948850E1,1.062374999E1,-2.783543330E0,2.023597815E0,1.116723445E1
1.038943250E1,1.162392441E1,-2.728138915E0,2.146025208E0,1.213110814E1
1.039937550E1,1.255249617E1,-2.692059256E0,2.402573988E0,1.306080797E1
1.040931950E1,1.291071297E1,-2.592460123E0,2.766616518E0,1.345591044E1
1.041926250E1,1.279227294E1,-2.671456007E0,2.900921799E0,1.338634646E1
1.042920650E1,1.201001606E1,-2.637693307E0,2.929945623E0,1.264051000E1
1.043915050E1,1.073050377E1,-2.613442564E0,2.797805566E0,1.139304653E1
1.044909350E1,9.615260237E0,-2.711662923E0,2.470463231E0,1.029123578E1
1.045903750E1,8.687339272E0,-2.661874467E0,2.149147037E0,9.336716355E0
1.046898150E1,7.941719289E0,-2.686690342E0,2.112685554E0,8.645961515E0
1.047892450E1,7.246706373E0,-2.641324135E0,2.252306100E0,8.035186943E0
1.048886850E1,6.506198611E0,-2.694510409E0,2.508570705E0,7.475555744E0
1.049881250E1,5.716730942E0,-2.793022251E0,2.908603871E0,6.995853232E0
1.050875550E1,4.843476766E0,-2.780709185E0,3.310899909E0,6.492585692E0
1.051869950E1,4.037729865E0,-2.931019464E0,3.615405359E0,6.161598288E0
1.052864350E1,3.262994256E0,-3.138608776E0,3.810823984E0,5.917801619E0
1.053858650E1,2.607172303E0,-3.247409672E0,3.997005762E0,5.772267497E0
1.054853050E1,2.098111954E0,-3.352555473E0,4.129001977E0,5.717548365E0
1.055847350E1,1.551735259E0,-3.504418189E0,4.280711496E0,5.745721893E0
1.056841750E1,7.925403804E-1,-3.680827516E0,4.391653057E0,5.784740965E0
1.057836150E1,1.143037105E-1,-3.983913846E0,4.411948743E0,5.945580424E0
1.058830450E1,-5.620752990E-1,-4.077087473E0,4.511475370E0,6.106716050E0
1.059824850E1,-1.052777730E0,-4.108484098E0,4.496455042E0,6.181107545E0
1.060819250E1,-1.478370245E0,-4.220789230E0,4.473690662E0,6.325705371E0
1.061813550E1,-1.820419496E0,-4.316085396E0,4.491546890E0,6.489723704E0
1.062807950E1,-2.010635853E0,-4.300475670E0,4.509046437E0,6.547384767E0
1.063802350E1,-2.256242884E0,-4.258087449E0,4.480662882E0,6.580142897E0
1.064796650E1,-2.658254748E0,-4.316857229E0,4.342140005E0,6.675009697E0
1.065791050E1,-3.121867613E0,-4.440783702E0,4.180693703E0,6.851628793E0
1.066785450E1,-3.416076701E0,-4.383059989E0,4.039047535E0,6.869839873E0
1.067779750E1,-3.521909550E0,-4.213687202E0,3.804891106E0,6.681033082E0
1.068774150E1,-3.541097480E0,-4.071477655E0,3.496664781E0,6.429849629E0
1.069768450E1,-3.601642475E0,-3.972835127E0,3.226424015E0,6.258199372E0
1.070762850E1,-3.568051975E0,-3.959300576E0,2.951376546E0,6.092428044E0
1.071757250E1,-3.403214288E0,-3.886044320E0,2.691429218E0,5.824688763E0
1.072751550E1,-3.277374313E0,-3.831675739E0,2.600575182E0,5.673262962E0
1.073745950E1,-3.079988101E0,-3.731781907E0,2.499725914E0,5.446205335E0
1.074740350E1,-2.853625426E0,-3.576039564E0,2.322511134E0,5.130818161E0
1.075734650E1,-2.859497492E0,-3.470265187E0,2.229338676E0,5.018905987E0
1.076729050E1,-2.931404504E0,-3.346425837E0,2.038729678E0,4.893681329E0
1.077723475E1,-2.995498173E0,-3.165583152E0,1.739569753E0,4.692550364E0
1.078717775E1,-3.072970272E0,-3.065563020E0,1.421161379E0,4.567332108E0
1.079712175E1,-3.078294747E0,-3.000850714E0,1.170875114E0,4.455552950E0
1.080706575E1,-2.947695723E0,-2.830317839E0,9.672297487E-1,4.199421691E0
1.081700875E1,-2.779412565E0,-2.588757082E0,9.673235965E-1,3.919504098E0
1.082695275E1,-2.711542471E0,-2.245654162E0,1.027112838E0,3.667476785E0
1.083689575E1,-2.853628349E0,-1.759645876E0,1.049493349E0,3.512973762E0
1.084683975E1,-3.082695654E0,-1.165037253E0,9.209364653E-1,3.421760989E0
1.085678375E1,-3.298379851E0,-6.228138363E-1,5.872627652E-1,3.407650844E0
1.086672675E1,-3.385305728E0,-1.598008955E-1,2.544050440E-1,3.398610470E0
1.087667075E1,-3.240188946E0,2.727468824E-1,-8.168209434E-2,3.252673858E0
1.088661475E1,-3.178268101E0,6.581959230E-1,-2.301583949E-1,3.253856617E0
1.089655775E1,-3.141237977E0,1.205927417E0,-4.805417240E-1,3.398905311E0
1.090650175E1,-3.020838836E0,1.944504429E0,-7.883300927E-1,3.678046912E0
1.091644575E1,-2.994785982E0,2.519739472E0,-1.044368556E0,4.050745088E0
1.092638875E1,-3.272374652E0,2.876839457E0,-1.266224782E0,4.537396425E0
1.093633275E1,-3.839647248E0,3.261396797E0,-1.638237798E0,5.297492156E0
1.094627675E1,-4.463407749E0,3.566878147E0,-1.978465058E0,6.046399956E0
1.095621975E1,-5.052538700E0,3.822688569E0,-2.251719186E0,6.723937425E0
1.096616375E1,-5.547329503E0,4.070368438E0,-2.444000487E0,7.301636955E0
1.097610675E1,-5.961672560E0,4.312384109E0,-2.601322748E0,7.804170453E0
1.098605075E1,-6.206479107E0,4.477555672E0,-2.630779266E0,8.092582236E0
1.099599475E1,-6.277027518E0,4.731906044E0,-2.453749550E0,8.234858598E0
1.100593775E1,-6.262144600E0,4.873751895E0,-2.298066556E0,8.261296655E0
1.101588175E1,-6.204984559E0,4.780724448E0,-2.198401935E0,8.135731724E0
1.102582575E1,-6.097522675E0,4.501328112E0,-2.118808758E0,7.869630747E0
1.103576875E1,-5.994358495E0,4.241778395E0,-1.973632042E0,7.603962201E0
1.104571275E1,-5.935367691E0,3.968756694E0,-1.910289739E0,7.391131592E0
1.105565675E1,-5.902712746E0,3.592496552E0,-1.882375716E0,7.161800582E0
1.106559975E1,-5.810105714E0,3.068755599E0,-1.725624729E0,6.793553565E0
1.107554375E1,-5.508979955E0,2.614046874E0,-1.573956141E0,6.297574067E0
1.108548775E1,-5.166995022E0,2.197485384E0,-1.418540072E0,5.791289624E0
1.109543075E1,-4.954210167E0,1.658046995E0,-1.245364548E0,5.370684414E0
1.110537475E1,-4.770564326E0,1.121254472E0,-1.060266259E0,5.013946561E0
1.111531775E1,-4.560314823E0,7.133638179E-1,-8.490019718E-1,4.693203977E0
1.112526175E1,-4.338111858E0,2.670522791E-1,-6.219025478E-1,4.390591553E0
1.113520575E1,-4.093307065E0,-1.974031699E-1,-3.285784364E-1,4.111215699E0
1.114514875E1,-3.943300548E0,-5.082820845E-1,-5.119529665E-3,3.975927074E0
1.115509275E1,-3.898995903E0,-7.656934744E-1,2.145317110E-1,3.979256136E0
1.116503675E1,-3.867595770E0,-1.117178378E0,2.647522768E-1,4.034411771E0
1.117497975E1,-3.867276512E0,-1.468515347E0,3.785043025E-1,4.153989703E0
1.118492375E1,-3.977985354E0,-1.626407712E0,5.557275617E-1,4.333405433E0
1.119486775E1,-4.076629636E0,-1.800536624E0,6.876229128E-1,4.509286706E0
1.120481075E1,-4.155544536E0,-2.020259786E0,9.005600882E-1,4.707548031E0
1.121475475E1,-4.116039285E0,-2.255089813E0,1.153912049E0,4.833086227E0
1.122469875E1,-3.969378837E0,-2.473482733E0,1.425517555E0,4.889395206E0
1.123464175E1,-3.875752636E0,-2.659492604E0,1.708290658E0,5.001261478E0
1.124458575E1,-3.787732159E0,-2.858732384E0,1.915917684E0,5.117617251E0
1.125452975E1,-3.768211815E0,-3.021490801E0,2.168653056E0,5.294514427E0
1.126447275E1,-3.877117083E0,-3.261462286E0,2.425612748E0,5.617185267E0
1.127441675E1,-3.935722556E0,-3.561777036E0,2.637709386E0,5.927366911E0
1.128435975E1,-3.964487641E0,-3.715246566E0,2.839207069E0,6.130360192E0
1.129430375E1,-4.020021572E0,-3.758758036E0,2.969768378E0,6.253667695E0
1.130424775E1,-4.237830940E0,-3.788028613E0,3.008833041E0,6.431286661E0
1.131419075E1,-4.498104542E0,-3.840903230E0,2.926879636E0,6.599401980E0
1.132413475E1,-4.580262015E0,-3.966216663E0,2.859153091E0,6.699584401E0
1.133407875E1,-4.456893366E0,-4.176269115E0,2.939634167E0,6.778390018E0
1.134402175E1,-4.227462657E0,-4.220952952E0,3.139471825E0,6.748641914E0
1.135396575E1,-3.992560709E0,-4.172521634E0,3.359380344E0,6.681011457E0
1.136390975E1,-3.736015291E0,-4.185951519E0,3.520074986E0,6.623513288E0
1.137385275E1,-3.299848672E0,-4.251871859E0,3.636624027E0,6.495571559E0
1.138379675E1,-2.674256823E0,-4.369728338E0,3.884341611E0,6.429174523E0
1.139373975E1,-2.090671372E0,-4.538347419E0,4.059719489E0,6.438076297E0
1.140368375E1,-1.656897433E0,-4.749751747E0,4.261981987E0,6.593173835E0
1.141362775E1,-1.187011675E0,-4.677453849E0,4.428265983E0,6.549588601E0
1.142357075E1,-5.730896991E-1,-4.344549642E0,4.406202099E0,6.214351160E0
1.143351475E1,1.427059758E-1,-4.118943597E0,4.006149638E0,5.747633972E0
1.144345875E1,8.164110535E-1,-3.861580739E0,3.422510977E0,5.224166364E0
1.145340175E1,1.637355453E0,-3.558333610E0,2.965824723E0,4.913123981E0
1.146334575E1,2.993078011E0,-3.208612812E0,2.769803835E0,5.188981156E0
1.147328975E1,4.623051939E0,-2.697522309E0,2.726300551E0,6.006825329E0
1.148323275E1,6.071235933E0,-2.365971149E0,2.689750190E0,7.049289419E0
1.149317675E1,6.962183783E0,-2.245834256E0,2.722697496E0,7.805693831E0
1.150311975E1,7.588025892E0,-2.167117869E0,2.773769417E0,8.364707621E0
1.151306375E1,8.294674768E0,-1.966104044E0,2.641998904E0,8.924536561E0
1.152300775E1,8.975464917E0,-1.733071158E0,2.495769981E0,9.475831040E0
1.153295075E1,9.492949934E0,-1.591708872E0,2.435616750E0,9.928840040E0
1.154289475E1,9.839257128E0,-1.582037577E0,2.358663298E0,1.024095290E1
1.155283875E1,1.005103392E1,-1.698527854E0,2.307904789E0,1.045154076E1
1.156278175E1,1.024035975E1,-1.715015833E0,2.246331854E0,1.062319415E1
1.157272575E1,1.041932899E1,-1.667737001E0,2.186883212E0,1.077618770E1
1.158266975E1,1.032979057E1,-1.637710087E0,2.169584810E0,1.068146834E1
1.159261275E1,9.865391843E0,-1.637906261E0,2.089145833E0,1.021632142E1
1.160255675E1,9.215449850E0,-1.711696076E0,1.988473737E0,9.581672463E0
1.161249975E1,8.483547435E0,-1.797854799E0,2.034875486E0,8.907501176E0
1.162244375E1,7.796277401E0,-1.764613378E0,2.161060739E0,8.280458031E0
1.163238775E1,7.238834851E0,-1.801289746E0,2.259655904E0,7.794319698E0
1.164233075E1,6.603425528E0,-1.829214293E0,2.376960406E0,7.252668089E0
1.165227475E1,5.906818660E0,-1.888578150E0,2.525213635E0,6.695814963E0
1.166221875E1,5.195749290E0,-1.983799472E0,2.714265811E0,6.188578991E0
1.167216175E1,4.512687498E0,-2.015917059E0,2.944970044E0,5.753357159E0
1.168210575E1,3.915200876E0,-2.112092062E0,3.121436673E0,5.434436280E0
1.169204975E1,3.443289642E0,-2.284790745E0,3.169729997E0,5.208041913E0
1.170199275E1,2.952204804E0,-2.461969566E0,3.219696794E0,5.014305016E0
1.171193675E1,2.279373300E0,-2.566320730E0,3.435379529E0,4.856271949E0
1.172188075E1,1.643239506E0,-2.739094259E0,3.480570320E0,4.724112952E0
1.173182375E1,1.049215606E0,-2.968361830E0,3.460410290E0,4.678297203E0
1.174176775E1,5.358452743E-1,-3.130530848E0,3.368572751E0,4.629755493E0
1.175171075E1,5.599293709E-2,-3.292647825E0,3.237386667E0,4.617936481E0
1.176165475E1,-4.384780240E-1,-3.583977159E0,3.127853408E0,4.777093488E0
1.177159875E1,-7.906721950E-1,-3.791541036E0,3.117818709E0,4.972096082E0
1.178154142E1,-8.701867265E-1,-3.898842705E0,3.122141848E0,5.070105433E0
1.179148542E1,-9.152658355E-1,-4.128969233E0,3.143464012E0,5.269484270E0
1.180142942E1,-1.109179972E0,-4.428558344E0,3.187835608E0,5.568186875E0
1.181137242E1,-1.562528050E0,-4.739106891E0,3.160904794E0,5.906940591E0
1.182131642E1,-2.095990584E0,-5.033903039E0,3.122143894E0,6.283401851E0
1.183126042E1,-2.407876681E0,-5.241517201E0,3.175368175E0,6.584400939E0
1.184120342E1,-2.477533392E0,-5.278023123E0,3.176362786E0,6.639652125E0
1.185114742E1,-2.572417037E0,-5.378368360E0,3.093041132E0,6.716478175E0
1.186109042E1,-2.612647635E0,-5.512637973E0,3.062034517E0,6.825771786E0
1.187103442E1,-2.567757099E0,-5.621968042E0,2.989150728E0,6.865487838E0
1.188097842E1,-2.522687638E0,-5.664817023E0,3.012378208E0,6.894093652E0
1.189092142E1,-2.558826354E0,-5.461844380E0,3.028292282E0,6.749065897E0
1.190086542E1,-2.776473169E0,-5.208074051E0,2.952404486E0,6.599206834E0
1.191080942E1,-3.021498695E0,-5.013123788E0,2.836367369E0,6.504294299E0
1.192075242E1,-3.077698039E0,-4.794695785E0,2.772444438E0,6.336227667E0
1.193069642E1,-2.897111753E0,-4.592701381E0,2.591128128E0,6.016652513E0
1.194064042E1,-2.722673230E0,-4.475961721E0,2.517233355E0,5.812370137E0
1.195058342E1,-2.555966773E0,-4.154175410E0,2.490192322E0,5.476421942E0
1.196052742E1,-2.622975865E0,-3.704021666E0,2.470690980E0,5.167600295E0
1.197047042E1,-2.918962798E0,-3.238192121E0,2.171394230E0,4.870439912E0
1.198041442E1,-3.392953594E0,-2.647454356E0,1.634306130E0,4.603488371E0
1.199035842E1,-3.899530923E0,-2.009479274E0,1.121053036E0,4.527814956E0
1.200030142E1,-4.324315937E0,-1.377350823E0,6.317931131E-1,4.582135545E0
1.201024542E1,-4.830021154E0,-6.342416346E-1,1.265860793E-1,4.873129470E0
1.202018942E1,-5.208866349E0,1.959027743E-1,-5.088697296E-1,5.237328989E0
1.203013242E1,-5.481445416E0,9.554543334E-1,-1.002320059E0,5.653652124E0
1.204007642E1,-5.836910520E0,1.624429014E0,-1.508368800E0,6.243674437E0
1.205002042E1,-6.405007281E0,2.440219093E0,-2.097579857E0,7.167888723E0
1.205996342E1,-7.075089424E0,3.125574163E0,-2.646833382E0,8.175073771E0
1.206990742E1,-7.638889067E0,3.560892352E0,-3.049446924E0,8.962795717E0
1.207985142E1,-8.050404410E0,4.033632721E0,-3.222627710E0,9.563709189E0
1.208979442E1,-8.367521135E0,4.608556107E0,-3.243418363E0,1.008830818E1
1.209973842E1,-8.565178074E0,4.949420128E0,-3.233072592E0,1.040729520E1
1.210968142E1,-8.677860936E0,5.003332041E0,-3.011318985E0,1.045976309E1
1.211962542E1,-8.527778113E0,4.938837837E0,-2.734417655E0,1.022703078E1
1.212956942E1,-8.128637232E0,4.775366060E0,-2.350873053E0,9.716247648E0
1.213951242E1,-7.643966205E0,4.556870813E0,-1.918889824E0,9.103704142E0
1.214945642E1,-7.194135811E0,4.213821688E0,-1.626733986E0,8.494595149E0
1.215940042E1,-6.810057943E0,3.811321582E0,-1.465073968E0,7.940371724E0
1.216934342E1,-6.476960778E0,3.527526385E0,-1.297099543E0,7.488453148E0
1.217928742E1,-6.086717606E0,3.114966145E0,-1.090281186E0,6.923861521E0
1.218923142E1,-5.745205713E0,2.726965964E0,-8.806023717E-1,6.420217488E0
1.219917442E1,-5.415124542E0,2.411925001E0,-6.884970716E-1,5.967829106E0
1.220911842E1,-5.081415759E0,2.014560505E0,-4.789521584E-1,5.487133615E0
1.221906242E1,-4.715413680E0,1.517293405E0,-2.923561049E-1,4.962134374E0
1.222900542E1,-4.412305131E0,1.187527984E0,-7.933619142E-2,4.570005854E0
1.223894942E1,-4.211022041E0,8.673163283E-1,1.639804852E-1,4.302538070E0
1.224889242E1,-4.068959259E0,3.818968570E-1,5.296290994E-1,4.121017064E0
1.225883642E1,-3.914965818E0,-1.396601611E-1,8.952294740E-1,4.018444740E0
1.226878042E1,-3.670678504E0,-7.235122454E-1,1.322647782E0,3.968217207E0
1.227872342E1,-3.478444272E0,-1.237429292E0,1.706201448E0,4.067177054E0
1.228866742E1,-3.441534308E0,-1.546360499E0,1.881716735E0,4.216188689E0
1.229861142E1,-3.456194740E0,-1.845531533E0,1.952210475E0,4.377487231E0
1.230855442E1,-3.489448440E0,-2.130225447E0,2.067717834E0,4.581437319E0
1.231849842E1,-3.405263737E0,-2.490305173E0,2.201246313E0,4.758458396E0
1.232844242E1,-3.255373872E0,-2.969476894E0,2.279976733E0,4.961204085E0
1.233838542E1,-3.087107670E0,-3.432979832E0,2.324870193E0,5.169197782E0
1.234832942E1,-2.993230915E0,-3.680743901E0,2.329854652E0,5.285407238E0
1.235827242E1,-3.134527127E0,-3.796326397E0,2.382936845E0,5.469528538E0
1.236821642E1,-3.291361438E0,-3.903996441E0,2.423330580E0,5.652148214E0
1.237816042E1,-3.411671408E0,-3.932705101E0,2.514590706E0,5.781767691E0
1.238810342E1,-3.270060616E0,-3.899651375E0,2.586036372E0,5.708604155E0
1.239804742E1,-2.975782824E0,-3.862830289E0,2.701874684E0,5.574663045E0
1.240799142E1,-2.647645852E0,-3.857451435E0,2.840104617E0,5.473221571E0
1.241793442E1,-2.289420863E0,-4.044244832E0,3.021978459E0,5.543439181E0
1.242787842E1,-1.962247220E0,-4.282218323E0,3.202899497E0,5.696171794E0
1.243782242E1,-1.703938867E0,-4.403791877E0,3.342122287E0,5.785029986E0
1.244776542E1,-1.599826269E0,-4.252532594E0,3.450430847E0,5.705168760E0
1.245770942E1,-1.458017841E0,-4.225085179E0,3.151809450E0,5.469100804E0
1.246765342E1,-1.411778060E0,-4.309796131E0,2.834649457E0,5.348148981E0
1.247759642E1,-1.585828035E0,-4.258925940E0,2.648953582E0,5.260252446E0
1.248754042E1,-1.444635903E0,-4.290857000E0,2.397360318E0,5.123061895E0
1.249748342E1,-1.137415007E0,-4.193652887E0,2.210145921E0,4.874954608E0
1.250742742E1,-9.456579083E-1,-4.110656338E0,2.118489646E0,4.720144362E0
1.251737142E1,-1.000661497E0,-4.039146060E0,2.044459219E0,4.636360407E0
1.252731442E1,-1.062687006E0,-3.887214348E0,1.946901788E0,4.475507304E0
1.253725842E1,-6.827618301E-1,-3.579751377E0,1.944505745E0,4.130603615E0
1.254720242E1,1.264881384E-1,-3.347802857E0,2.096733180E0,3.952223835E0
1.255714542E1,1.017103282E0,-3.224801998E0,2.505556465E0,4.208522331E0
1.256708942E1,1.913105466E0,-3.026313000E0,2.824817948E0,4.560497707E0
1.257703342E1,2.423204280E0,-2.916105849E0,2.819815071E0,4.725140139E0
1.258697642E1,2.524706681E0,-2.757111869E0,2.427813056E0,4.457587455E0
1.259692042E1,2.351086476E0,-2.514877512E0,1.792612478E0,3.881452823E0
1.260686342E1,2.467532022E0,-2.326383160E0,1.219456705E0,3.603865639E0
1.261680742E1,3.061035520E0,-2.128032741E0,9.026183081E-1,3.835776533E0
1.262675142E1,4.044370548E0,-1.938112838E0,9.160657346E-1,4.577378172E0
1.263669442E1,5.096324989E0,-1.724348866E0,9.939787138E-1,5.471188270E0
1.264663842E1,5.844416006E0,-1.485260896E0,1.105593874E0,6.130704380E0
1.265658242E1,6.496060708E0,-1.099470963E0,1.203417792E0,6.697451419E0
1.266652542E1,7.267068717E0,-7.850854728E-1,1.212144177E0,7.409179472E0
1.267646942E1,8.105610312E0,-6.412044990E-1,1.253354183E0,8.226965325E0
1.268641342E1,8.925342584E0,-5.160220438E-1,1.363224535E0,9.043583368E0
1.269635642E1,9.482945933E0,-4.784618694E-1,1.592823059E0,9.627682723E0
1.270630042E1,9.682030177E0,-5.860284179E-1,1.786881037E0,9.862965147E0
1.271624342E1,9.639817958E0,-8.946789587E-1,1.712696242E0,9.831575109E0
1.272618742E1,9.328288248E0,-1.260225831E0,1.567760139E0,9.542693678E0
1.273613142E1,8.877773731E0,-1.517892160E0,1.313754752E0,9.101912688E0
1.274607442E1,8.428594133E0,-1.848903915E0,1.089333937E0,8.697487750E0
1.275601842E1,7.891865344E0,-1.997400973E0,1.059500273E0,8.209365998E0
1.276596242E1,7.392273391E0,-2.072207034E0,1.104796314E0,7.756308580E0
1.277590588E1,6.966725315E0,-2.136162417E0,1.071587638E0,7.365239409E0
1.278584987E1,6.292710335E0,-2.180671130E0,1.207437241E0,6.768414485E0
1.279579388E1,5.627794792E0,-2.281680027E0,1.467498078E0,6.247534600E0
1.280573687E1,5.064075256E0,-2.345263234E0,1.748036960E0,5.848140820E0
1.281568087E1,4.569432387E0,-2.392032773E0,2.094636369E0,5.566779558E0
1.282562487E1,4.019138058E0,-2.465509470E0,2.476059601E0,5.325699844E0
1.283556787E1,3.383083786E0,-2.565380498E0,2.737170525E0,5.051587422E0
1.284551187E1,2.673680872E0,-2.753552669E0,2.971440682E0,4.853872828E0
1.285545487E1,1.969510632E0,-2.960883826E0,3.116960045E0,4.728767819E0
1.286539887E1,1.271905645E0,-3.182229590E0,3.123338188E0,4.636762941E0
1.287534288E1,5.075003117E-1,-3.295416482E0,3.075257411E0,4.535916060E0
1.288528587E1,-1.350543094E-1,-3.390571731E0,3.013668688E0,4.538327367E0
1.289522987E1,-5.514590943E-1,-3.524955949E0,2.831872029E0,4.555098327E0
1.290517387E1,-8.146451944E-1,-3.725804299E0,2.758389193E0,4.706800974E0
1.291511687E1,-8.682489592E-1,-3.720499704E0,2.813710577E0,4.744780450E0
1.292506088E1,-7.759179157E-1,-3.842624066E0,2.921727362E0,4.889202297E0
1.293500487E1,-9.468507403E-1,-3.952393845E0,3.241838153E0,5.198793903E0
1.294494787E1,-1.180261064E0,-4.167518172E0,3.353535174E0,5.477903071E0
1.295489187E1,-1.534405866E0,-4.308379351E0,3.367623163E0,5.679561582E0
1.296483487E1,-1.989559857E0,-4.292079068E0,3.297467393E0,5.766591919E0
1.297477888E1,-2.279646950E0,-4.330489427E0,2.952983361E0,5.715771131E0
1.298472287E1,-2.366850570E0,-4.280270031E0,2.522242372E0,5.503126361E0
1.299466587E1,-2.579364407E0,-4.172397088E0,2.565523755E0,5.535696013E0
1.300460987E1,-2.588819062E0,-4.180940455E0,2.545122820E0,5.537138015E0
1.301455387E1,-2.460019812E0,-4.208384947E0,2.555847782E0,5.504049348E0
1.302449688E1,-2.094506561E0,-4.107138069E0,2.522178930E0,5.255181006E0
1.303444087E1,-1.693116548E0,-3.953155153E0,2.396495368E0,4.923136131E0
1.304438487E1,-1.586452956E0,-3.947702039E0,2.347604752E0,4.859262541E0
1.305432787E1,-1.772310799E0,-3.815802888E0,2.271170534E0,4.781176930E0
1.306427187E1,-1.985264639E0,-3.638553901E0,2.119047032E0,4.655181038E0
1.307421588E1,-2.047345258E0,-3.318270324E0,1.917710148E0,4.345129775E0
1.308415887E1,-2.041972836E0,-2.967497612E0,1.782067901E0,4.018888048E0
1.309410287E1,-2.011048374E0,-2.809397671E0,1.702810355E0,3.851829947E0
1.310404687E1,-1.813501948E0,-2.801335530E0,1.587749430E0,3.695567388E0
1.311398987E1,-1.681838439E0,-2.842667159E0,1.612960285E0,3.675728226E0
1.312393388E1,-1.669928245E0,-2.678290232E0,1.670898006E0,3.571246149E0
1.313387687E1,-1.660716396E0,-2.352748840E0,1.469105624E0,3.232905409E0
1.314382087E1,-1.946238129E0,-2.122431108E0,1.302898811E0,3.160712257E0
1.315376488E1,-2.294604420E0,-2.097505013E0,1.120218930E0,3.304485917E0
1.316370787E1,-2.480975063E0,-1.897660046E0,7.539712688E-1,3.213226352E0
1.317365187E1,-2.702362050E0,-1.560296168E0,5.899679795E-1,3.175743534E0
1.318359587E1,-3.009556634E0,-1.141560683E0,4.878799796E-1,3.255551996E0
1.319353887E1,-3.348458329E0,-5.398804379E-1,2.424303849E-1,3.400355358E0
1.320348288E1,-3.790798732E0,8.787955821E-2,1.341317649E-1,3.794188869E0
1.321342687E1,-4.185582560E0,7.741111261E-1,-2.922219113E-2,4.256665753E0
1.322336987E1,-4.602493713E0,1.518117862E0,-2.835139453E-1,4.854689525E0
1.323331387E1,-4.960657892E0,2.180630200E0,-6.358216985E-1,5.455964078E0
1.324325787E1,-5.291126733E0,2.739128757E0,-9.908690914E-1,6.039923013E0
1.325320088E1,-5.693913352E0,3.273386512E0,-1.268897252E0,6.689230805E0
1.326314487E1,-6.197580814E0,3.762165794E0,-1.459922279E0,7.395625225E0
1.327308887E1,-6.805421101E0,4.249157581E0,-1.549444320E0,8.171283511E0
1.328303187E1,-7.335017456E0,4.787500786E0,-1.609782762E0,8.905843329E0
1.329297587E1,-7.762038445E0,5.148205580E0,-1.620117277E0,9.453996060E0
1.330291888E1,-7.957556473E0,5.206749072E0,-1.576719242E0,9.639449387E0
1.331286287E1,-7.864539551E0,5.147063034E0,-1.468125923E0,9.513076997E0
1.332280687E1,-7.629340564E0,4.897004517E0,-1.241719394E0,9.150374732E0
1.333274987E1,-7.294035491E0,4.540343074E0,-9.535031176E-1,8.644468588E0
1.334269387E1,-6.974465860E0,4.216758159E0,-6.756082734E-1,8.178060280E0
1.335263788E1,-6.716897764E0,3.782158009E0,-4.726117301E-1,7.723004378E0
1.336258087E1,-6.387022415E0,3.390669964E0,-3.309453162E-1,7.238799827E0
1.337252487E1,-6.023931373E0,3.019907960E0,-2.259130239E-1,6.742301534E0
1.338246887E1,-5.633394670E0,2.588257145E0,-1.991070485E-1,6.202729575E0
1.339241187E1,-5.306059937E0,2.190107952E0,-1.749836294E-1,5.742949083E0
1.340235588E1,-5.025326343E0,1.790012805E0,-1.112654972E-1,5.335768989E0
1.341229987E1,-4.752999875E0,1.373378810E0,4.846172333E-3,4.947443850E0
1.342224287E1,-4.392279586E0,8.956145132E-1,2.322759640E-1,4.488674353E0
1.343218687E1,-4.007313234E0,4.990867531E-1,4.949033627E-1,4.068485748E0
1.344213087E1,-3.867022450E0,2.526646203E-1,7.468461442E-1,3.946578417E0
1.345207387E1,-3.765648980E0,-1.256759602E-1,9.123588923E-1,3.876635840E0
1.346201787E1,-3.618439187E0,-5.939999270E-1,1.226150597E0,3.866443242E0
1.347196187E1,-3.538363907E0,-9.246669888E-1,1.558905115E0,3.975577107E0
1.348190488E1,-3.420678459E0,-1.277509031E0,1.764707518E0,4.055522540E0
1.349184887E1,-3.242372003E0,-1.677428176E0,1.868701125E0,4.101071249E0
1.350179187E1,-3.176708649E0,-1.927748648E0,2.021010568E0,4.229914468E0
1.351173587E1,-3.159174311E0,-2.083660560E0,2.202680342E0,4.378792567E0
1.352167987E1,-3.165861771E0,-2.211309956E0,2.307292878E0,4.498463393E0
1.353162288E1,-3.138684498E0,-2.396215287E0,2.402485256E0,4.622242257E0
1.354156687E1,-2.988702539E0,-2.731135613E0,2.610520126E0,4.817287612E0
1.355151087E1,-2.932935889E0,-3.082877795E0,3.007382347E0,5.210623476E0
1.356145387E1,-3.025138586E0,-3.514137431E0,3.220323030E0,5.645450006E0
1.357139787E1,-3.250708379E0,-3.668001648E0,3.076410774E0,5.786678175E0
1.358134188E1,-3.539014995E0,-3.667792318E0,2.963696629E0,5.895831182E0
1.359128487E1,-3.760645225E0,-3.752992682E0,2.850143116E0,6.029156024E0
1.360122887E1,-3.810069985E0,-3.888770877E0,2.830597629E0,6.136078158E0
1.361117287E1,-3.823418594E0,-4.064448132E0,2.896909440E0,6.287316809E0
1.362111587E1,-3.720971282E0,-4.158642683E0,2.863890505E0,6.272304606E0
1.363105988E1,-3.581165818E0,-4.226358118E0,2.908907926E0,6.256883959E0
1.364100387E1,-3.442768655E0,-4.194534062E0,3.036611408E0,6.218342292E0
1.365094687E1,-3.138169066E0,-4.145491126E0,3.259456983E0,6.136551277E0
1.366089087E1,-2.620474718E0,-4.355960484E0,3.587347494E0,6.221763538E0
1.367083387E1,-1.939194573E0,-4.486162189E0,3.743436870E0,6.156252624E0
1.368077788E1,-1.349720390E0,-4.505348073E0,3.862673876E0,6.086062427E0
1.369072187E1,-1.059918349E0,-4.576689951E0,3.865960011E0,6.084008927E0
1.370066487E1,-9.433909428E-1,-4.571154392E0,3.585455335E0,5.885654501E0
1.371060887E1,-8.397391051E-1,-4.523924677E0,3.121515026E0,5.560118012E0
1.372055287E1,-7.282011276E-1,-4.501210583E0,2.649682730E0,5.273707630E0
1.373049588E1,-3.801538020E-1,-4.492180143E0,2.353888024E0,5.085763284E0
1.374043987E1,1.136587626E-1,-4.482183158E0,2.246504785E0,5.014944459E0
1.375038387E1,5.606725520E-1,-4.406135441E0,2.246797292E0,4.977597946E0
1.376032688E1,9.727077127E-1,-4.296553357E0,1.999862212E0,4.837972707E0
1.377027087E1,1.431417103E0,-4.127403056E0,1.730725547E0,4.698917091E0
1.378021400E1,1.975875326E0,-3.854544492E0,1.600705690E0,4.617776007E0
1.379015700E1,2.391834553E0,-3.548531630E0,1.414202900E0,4.506985589E0
1.380010100E1,2.671409229E0,-3.348903010E0,1.231996644E0,4.457509884E0
1.381004500E1,3.044193200E0,-3.159376917E0,1.011009168E0,4.502323209E0
1.381998800E1,3.718207596E0,-2.949551630E0,9.491679188E-1,4.840025029E0
1.382993200E1,4.680459318E0,-2.678900682E0,1.133213855E0,5.510660752E0
1.383987500E1,5.746811358E0,-2.474503073E0,1.278148717E0,6.386131097E0
1.384981900E1,6.880713358E0,-2.455448751E0,1.355692152E0,7.430433776E0
1.385976300E1,7.933862970E0,-2.371235397E0,1.292125901E0,8.380842934E0
1.386970600E1,8.747841582E0,-2.232292104E0,1.091393327E0,9.093899042E0
1.387965000E1,9.308548633E0,-2.219506875E0,9.358901346E-1,9.615153601E0
1.388959400E1,9.740503503E0,-2.318256407E0,7.106635737E-1,1.003776688E1
1.389953700E1,1.012731787E1,-2.493257140E0,4.536469074E-1,1.043957345E1
1.390948100E1,1.017298696E1,-2.667843889E0,2.926297545E-1,1.052105921E1
1.391942500E1,9.975057542E0,-2.832633337E0,2.146361569E-1,1.037167553E1
1.392936800E1,9.685469509E0,-2.909148539E0,3.242725468E-1,1.011813310E1
1.393931200E1,9.446844054E0,-2.871472882E0,3.744159293E-1,9.880708799E0
1.394925600E1,9.152850144E0,-2.789351662E0,4.454362106E-1,9.578807957E0
1.395919900E1,8.705752155E0,-2.754527984E0,6.056686671E-1,9.151195524E0
1.396914300E1,8.157430092E0,-2.733348784E0,9.029282105E-1,8.650441644E0
1.397908700E1,7.573892587E0,-2.690103070E0,1.296190885E0,8.141290700E0
1.398903000E1,6.956268155E0,-2.647989669E0,1.714032916E0,7.638024926E0
1.399897400E1,6.330424876E0,-2.623646833E0,2.159449246E0,7.184777162E0
1.400891800E1,5.688283653E0,-2.695327849E0,2.579417324E0,6.802555172E0
1.401886100E1,4.952776430E0,-2.869424602E0,2.939499389E0,6.434613319E0
1.402880500E1,4.170080422E0,-3.038863463E0,3.230293118E0,6.087614927E0
1.403874800E1,3.348839568E0,-3.237322056E0,3.532424598E0,5.845768049E0
1.404869200E1,2.530673765E0,-3.440091800E0,3.698798933E0,5.649748211E0
1.405863600E1,1.759516652E0,-3.683986182E0,3.782890080E0,5.565780304E0
1.406857900E1,1.043323367E0,-3.906059924E0,3.877875760E0,5.602119972E0
1.407852300E1,5.287602031E-1,-4.143384959E0,4.048558323E0,5.817048286E0
1.408846700E1,1.918009526E-1,-4.299806748E0,4.173710958E0,5.995413984E0
1.409841000E1,-1.459891874E-1,-4.415383982E0,4.299913460E0,6.164915597E0
1.410835400E1,-6.821098655E-1,-4.567944855E0,4.336866108E0,6.335597976E0
1.411829800E1,-1.329536971E0,-4.714053910E0,4.443202403E0,6.613019010E0
1.412824100E1,-1.926613119E0,-4.924981105E0,4.616320917E0,7.019807391E0
1.413818500E1,-2.345486598E0,-5.123829707E0,4.704611242E0,7.340865425E0
1.414812900E1,-2.479720835E0,-5.237617108E0,4.456953592E0,7.310682849E0
1.415807200E1,-2.668343242E0,-5.302165107E0,4.179428365E0,7.259520090E0
1.416801600E1,-2.864744199E0,-5.380508441E0,3.809724122E0,7.188228453E0
1.417796000E1,-2.972539958E0,-5.539691870E0,3.387078019E0,7.141181788E0
1.418790300E1,-2.846276937E0,-5.724713561E0,3.127657818E0,7.117294513E0
1.419784700E1,-2.767787130E0,-5.464851018E0,3.094784187E0,6.863157540E0
1.420779000E1,-2.692158074E0,-5.350078361E0,3.013128406E0,6.704475845E0
1.421773400E1,-2.628653511E0,-5.424225733E0,3.039017830E0,6.750383208E0
1.422767800E1,-2.414122823E0,-5.345677747E0,3.054958802E0,6.613397981E0
1.423762100E1,-2.177997491E0,-5.088904288E0,3.023532064E0,6.307326380E0
1.424756500E1,-2.058062766E0,-4.823741829E0,2.944999865E0,6.014742869E0
1.425750900E1,-2.054264561E0,-4.741292580E0,2.835571270E0,5.894092181E0
1.426745200E1,-2.192475489E0,-4.668372538E0,2.690254805E0,5.817054396E0
1.427739600E1,-2.390818599E0,-4.436226967E0,2.540982699E0,5.643821077E0
1.428734000E1,-2.594394382E0,-4.080118085E0,2.440498005E0,5.416112657E0
1.429728300E1,-2.757421771E0,-3.587465608E0,2.282697004E0,5.067937443E0
1.430722700E1,-2.930393520E0,-2.986510418E0,1.970910601E0,4.625033974E0
1.431717100E1,-3.235242201E0,-2.388197000E0,1.732973217E0,4.378752469E0
1.432711400E1,-3.698543410E0,-1.932624056E0,1.568064194E0,4.457923778E0
1.433705800E1,-4.177960714E0,-1.356761608E0,1.454636689E0,4.627323814E0
1.434700200E1,-4.661316118E0,-5.786568332E-1,1.280817240E0,4.868593687E0
1.435694500E1,-5.133622039E0,2.598882705E-1,9.332029004E-1,5.224220976E0
1.436688900E1,-5.568237977E0,1.079285497E0,5.508590238E-1,5.698559205E0
1.437683300E1,-6.137660887E0,1.776076552E0,2.241074038E-1,6.393399191E0
1.438677600E1,-6.887981447E0,2.442316489E0,-2.383558989E-2,7.308198573E0
1.439672000E1,-7.716295677E0,3.224189794E0,-3.185165477E-1,8.368875169E0
1.440666400E1,-8.521441485E0,4.094454288E0,-7.669091836E-1,9.485128919E0
1.441660700E1,-9.306255355E0,4.912480928E0,-1.153309493E0,1.058626376E1
1.442655100E1,-9.836174476E0,5.500566396E0,-1.461527925E0,1.136409358E1
1.443649500E1,-1.006254592E1,5.910061526E0,-1.596570539E0,1.177848442E1
1.444643800E1,-1.005623678E1,6.150137091E0,-1.723733447E0,1.191315833E1
1.445638200E1,-1.003675035E1,5.991159484E0,-1.752348843E0,1.181952097E1
1.446632500E1,-9.870450854E0,5.533693212E0,-1.658579384E0,1.143671483E1
1.447626900E1,-9.543805507E0,5.007134485E0,-1.506930385E0,1.088239213E1
1.448621300E1,-8.965152183E0,4.400821491E0,-1.281005666E0,1.006887079E1
1.449615600E1,-8.282699085E0,3.990291989E0,-1.017664542E0,9.249928401E0
1.450610000E1,-7.645881168E0,3.748191533E0,-8.599384578E-1,8.558500613E0
1.451604400E1,-7.166826975E0,3.360137558E0,-6.946059501E-1,7.945842355E0
1.452598700E1,-6.688494329E0,2.962981807E0,-5.130952200E-1,7.333381504E0
1.453593100E1,-6.080338293E0,2.672245381E0,-3.177586024E-1,6.649239029E0
1.454587500E1,-5.541322074E0,2.373462017E0,9.814902306E-2,6.029030229E0
1.455581800E1,-5.065495545E0,2.008677036E0,5.410536817E-1,5.476017498E0
1.456576200E1,-4.757785236E0,1.512707434E0,9.734656580E-1,5.086495800E0
1.457570600E1,-4.486089391E0,9.878438151E-1,1.407867149E0,4.804469100E0
1.458564900E1,-4.273888965E0,5.166342473E-1,1.778723440E0,4.657992583E0
1.459559300E1,-4.137333090E0,-3.284381032E-3,2.028001499E0,4.607637786E0
1.460553700E1,-4.040511970E0,-4.716200423E-1,2.214980253E0,4.631878665E0
1.461548000E1,-3.976817957E0,-8.571661466E-1,2.390252004E0,4.718381027E0
1.462542400E1,-3.909491070E0,-1.264862673E0,2.524076936E0,4.822339929E0
1.463536800E1,-3.820742323E0,-1.714073262E0,2.604638119E0,4.931557439E0
1.464531100E1,-3.699692972E0,-2.173774924E0,2.891762136E0,5.174486811E0
1.465525500E1,-3.501435524E0,-2.578663618E0,3.289348242E0,5.452464456E0
1.466519900E1,-3.444317583E0,-2.821482697E0,3.615731341E0,5.735643063E0
1.467514200E1,-3.430457635E0,-3.067201994E0,3.693784946E0,5.900831711E0
1.468508600E1,-3.563639959E0,-3.254913989E0,3.678557919E0,6.068425100E0
1.469502900E1,-3.695574194E0,-3.515399845E0,3.525366716E0,6.200283475E0
1.470497300E1,-3.977663757E0,-3.804535888E0,3.349185723E0,6.443085231E0
1.471491700E1,-4.307546415E0,-3.982094777E0,3.160415675E0,6.663352172E0
1.472486000E1,-4.469870384E0,-4.157794252E0,3.056908556E0,6.827275021E0
1.473480400E1,-4.430925004E0,-4.350835984E0,3.258067392E0,7.012693725E0
1.474474800E1,-4.181082250E0,-4.450772501E0,3.625714877E0,7.101875316E0
1.475469100E1,-3.820960717E0,-4.592342947E0,3.911413342E0,7.140623843E0
1.476463500E1,-3.441356553E0,-4.832942423E0,4.130162357E0,7.229004667E0
1.477457900E1,-3.100984282E0,-5.043294836E0,4.284978794E0,7.308349307E0
1.478452262E1,-2.801158360E0,-5.059226745E0,4.299506786E0,7.206110047E0
1.479446662E1,-2.529879713E0,-5.130118972E0,4.199125296E0,7.095848454E0
1.480441063E1,-2.336056209E0,-5.266111760E0,3.999303718E0,7.013096456E0
1.481435362E1,-2.151255543E0,-5.194683927E0,3.808294186E0,6.790857539E0
1.482429762E1,-1.914377235E0,-5.073888638E0,3.530802580E0,6.471147732E0
1.483424162E1,-1.729081895E0,-5.118265496E0,3.233189828E0,6.296021153E0
1.484418462E1,-1.435161075E0,-5.111108505E0,2.967326288E0,6.081787793E0
1.485412863E1,-1.067938975E0,-4.944317847E0,2.673646666E0,5.721464771E0
1.486407262E1,-5.982286334E-1,-4.899481983E0,2.524058225E0,5.543795732E0
1.487401562E1,1.648528898E-1,-4.769900082E0,2.366548415E0,5.327257706E0
1.488395962E1,9.404386836E-1,-4.610347986E0,2.219435685E0,5.202463669E0
1.489390262E1,1.425275187E0,-4.562426253E0,2.059123889E0,5.204530129E0
1.490384663E1,1.816414154E0,-4.488734379E0,1.773011587E0,5.156710850E0
1.491379062E1,2.409306033E0,-4.417135223E0,1.576095929E0,5.272562709E0
1.492373362E1,3.310922713E0,-4.282148449E0,1.537221301E0,5.626904467E0
1.493367762E1,4.425518961E0,-4.137355017E0,1.388533623E0,6.215380136E0
1.494362162E1,5.467826666E0,-4.166515082E0,1.168178962E0,6.972920369E0
1.495356463E1,6.471890073E0,-4.154064021E0,8.605755850E-1,7.738358957E0
1.496350862E1,7.387387458E0,-3.991648543E0,6.366167005E-1,8.420928237E0
1.497345262E1,8.258890978E0,-3.851435820E0,7.108109236E-1,9.140464442E0
1.498339563E1,9.026136303E0,-3.778333345E0,8.478380835E-1,9.821698878E0
1.499333962E1,9.449336722E0,-3.716458109E0,8.407816637E-1,1.018866719E1
1.500328363E1,9.625819724E0,-3.711822144E0,7.592410719E-1,1.034458680E1
1.501322662E1,9.714526663E0,-3.707662435E0,5.789585495E-1,1.041412416E1
1.502317062E1,9.744202452E0,-3.629848566E0,5.274574069E-1,1.041169983E1
1.503311463E1,9.622780926E0,-3.405895529E0,6.933500413E-1,1.023126441E1
1.504305762E1,9.361002835E0,-3.123122426E0,8.795685840E-1,9.907366384E0
1.505300162E1,8.908486816E0,-2.922538370E0,9.842256311E-1,9.427145271E0
1.506294562E1,8.308415140E0,-2.731437330E0,1.114211501E0,8.816574124E0
1.507288862E1,7.736290231E0,-2.515541463E0,1.340287077E0,8.244665236E0
1.508283263E1,7.210284652E0,-2.366487458E0,1.661285183E0,7.768419151E0
1.509277562E1,6.626530800E0,-2.270782863E0,2.039076126E0,7.295560068E0
1.510271962E1,6.065034376E0,-2.217959409E0,2.429435073E0,6.899720335E0
1.511266362E1,5.507438044E0,-2.234432185E0,2.746659386E0,6.547419246E0
1.512260662E1,4.953782151E0,-2.372158965E0,2.965718304E0,6.242001346E0
1.513255063E1,4.384828187E0,-2.630581338E0,3.067358115E0,5.962831728E0
1.514249462E1,3.730143517E0,-2.902766011E0,3.076199105E0,5.639416823E0
1.515243762E1,3.049722912E0,-3.186509167E0,3.115747333E0,5.400234435E0
1.516238162E1,2.315263510E0,-3.483333129E0,3.110411164E0,5.212361501E0
1.517232562E1,1.583316071E0,-3.802793418E0,3.033372051E0,5.115610771E0
1.518226863E1,8.829541218E-1,-4.100727766E0,3.010920789E0,5.163450415E0
1.519221262E1,3.002849293E-1,-4.356834058E0,3.159576307E0,5.390277960E0
1.520215662E1,-1.775869560E-1,-4.691490090E0,3.319319315E0,5.749738873E0
1.521209962E1,-5.041451794E-1,-5.074900206E0,3.438278871E0,6.150653304E0
1.522204362E1,-7.008718264E-1,-5.562410642E0,3.451238347E0,6.583515747E0
1.523198763E1,-1.012980410E0,-5.922479843E0,3.474482491E0,6.940743864E0
1.524193062E1,-1.528949829E0,-6.228519602E0,3.308435308E0,7.216501105E0
1.525187462E1,-2.070201439E0,-6.513794729E0,3.115863107E0,7.511581636E0
1.526181862E1,-2.441241186E0,-6.660927047E0,3.162029214E0,7.766983739E0
1.527176162E1,-2.608544352E0,-6.700365347E0,3.271631763E0,7.899555292E0
1.528170563E1,-2.680304891E0,-6.598405108E0,3.299150806E0,7.849036904E0
1.529164862E1,-2.636233549E0,-6.518584183E0,3.323378744E0,7.777307590E0
1.530159262E1,-2.484084612E0,-6.464779859E0,3.156553589E0,7.611037087E0
1.531153662E1,-2.301611284E0,-6.467746151E0,3.072092313E0,7.521097391E0
1.532147962E1,-2.179617316E0,-6.473461220E0,3.149176449E0,7.521551975E0
1.533142363E1,-2.230243532E0,-6.293471643E0,3.078937648E0,7.352661326E0
1.534136762E1,-2.311012584E0,-6.126313196E0,2.598470184E0,7.044468740E0
1.535131062E1,-2.403350059E0,-6.080997859E0,2.307532321E0,6.933926152E0
1.536125463E1,-2.404207261E0,-5.912299256E0,2.024261620E0,6.695754636E0
1.537119862E1,-2.386484497E0,-5.454096234E0,1.689980687E0,6.188578893E0
1.538114162E1,-2.419305649E0,-5.102859253E0,1.490200331E0,5.840625772E0
1.539108562E1,-2.472073262E0,-4.773549330E0,1.330454400E0,5.537872184E0
1.540102962E1,-2.631335629E0,-4.254384992E0,1.393195316E0,5.192755727E0
1.541097263E1,-2.838342558E0,-3.875674868E0,1.524301001E0,5.039894612E0
1.542091662E1,-3.233934179E0,-3.335310865E0,1.264954182E0,4.814845576E0
1.543086062E1,-3.705972590E0,-2.758703481E0,6.712531941E-1,4.668539234E0
1.544080362E1,-4.059446716E0,-2.188456113E0,2.872035384E-2,4.611862168E0
1.545074762E1,-4.331643960E0,-1.344856676E0,-4.563365170E-1,4.558510930E0
1.546069163E1,-4.699387339E0,-4.525475943E-1,-7.540195084E-1,4.780960794E0
1.547063462E1,-5.314936595E0,3.375696999E-1,-1.022071296E0,5.422834503E0
1.548057862E1,-5.956960874E0,1.111646912E0,-1.220717365E0,6.181528338E0
1.549052262E1,-6.617033168E0,2.080831677E0,-1.294400468E0,7.056235610E0
1.550046562E1,-7.278097150E0,3.039185060E0,-1.335380094E0,7.999411476E0
1.551040963E1,-7.994355340E0,3.643581921E0,-1.333595524E0,8.886162476E0
1.552035362E1,-8.510202552E0,4.147300254E0,-1.389037653E0,9.568336976E0
1.553029662E1,-8.847428436E0,4.629713672E0,-1.331619165E0,1.007394899E1
1.554024062E1,-9.131741695E0,5.087256542E0,-1.064003799E0,1.050718752E1
1.555018462E1,-9.309729186E0,5.455963835E0,-8.082910252E-1,1.082090261E1
1.556012763E1,-9.223432469E0,5.498519286E0,-4.454876661E-1,1.074727315E1
1.557007162E1,-8.829458773E0,5.165302838E0,-9.587562561E-2,1.022980390E1
1.558001562E1,-8.246715905E0,4.807038673E0,1.916904219E-1,9.547391750E0
1.558995862E1,-7.695195415E0,4.484087012E0,3.284439504E-1,8.912403954E0
1.559990262E1,-7.297174276E0,4.234319102E0,3.443214798E-1,8.443741348E0
1.560984563E1,-6.896306128E0,3.963424618E0,1.873786668E-1,7.956310934E0
1.561978962E1,-6.501682806E0,3.645415024E0,2.006757103E-2,7.453947458E0
1.562973362E1,-6.084019700E0,3.204382936E0,-1.513259411E-2,6.876306764E0
1.563967662E1,-5.681659927E0,2.798376254E0,-7.417653523E-2,6.333851226E0
1.564962062E1,-5.355404005E0,2.337439660E0,-1.055094250E-1,5.844237201E0
1.565956463E1,-5.046638274E0,1.677805907E0,1.215877332E-2,5.318245798E0
1.566950762E1,-4.751960532E0,9.363473868E-1,1.982603717E-1,4.847389246E0
1.567945162E1,-4.411026637E0,2.925853157E-1,4.740758729E-1,4.446066811E0
1.568939562E1,-4.033926543E0,-2.366134286E-1,8.114531994E-1,4.121529518E0
1.569933862E1,-3.626444609E0,-6.403706861E-1,1.103561382E0,3.844349470E0
1.570928263E1,-3.445029481E0,-8.703346610E-1,1.425854939E0,3.828677690E0
1.571922662E1,-3.416787722E0,-1.204236987E0,1.695234264E0,3.999805529E0
1.572916962E1,-3.334536694E0,-1.636610518E0,1.841615799E0,4.145983321E0
1.573911363E1,-3.274654189E0,-1.976863505E0,1.875295761E0,4.260056756E0
1.574905762E1,-3.389801945E0,-2.271039848E0,1.822967713E0,4.468958548E0
1.575900062E1,-3.527676074E0,-2.526680117E0,1.851191053E0,4.717575565E0
1.576894462E1,-3.405348229E0,-2.899043089E0,1.887102021E0,4.854070604E0
1.577888867E1,-3.220325954E0,-3.176985807E0,2.048866996E0,4.966044103E0
1.578883167E1,-3.056954749E0,-3.479255866E0,2.215393651E0,5.134020135E0
1.579877567E1,-3.035961490E0,-3.947747648E0,2.337415102E0,5.501389190E0
1.580871967E1,-3.139954805E0,-4.381498783E0,2.495238469E0,5.939954779E0
1.581866267E1,-3.169684681E0,-4.564250000E0,2.388318330E0,6.048416609E0
1.582860667E1,-3.301892858E0,-4.499268723E0,2.066807131E0,5.951269377E0
1.583855067E1,-3.630659575E0,-4.522725413E0,1.722262287E0,6.050034834E0
1.584849367E1,-4.042949089E0,-4.684248313E0,1.486548160E0,6.363760290E0
1.585843767E1,-4.242056723E0,-4.817669495E0,1.333999859E0,6.556259622E0
1.586838167E1,-4.037515857E0,-4.868792871E0,1.385021785E0,6.474948931E0
1.587832467E1,-3.521494982E0,-4.899096651E0,1.660332964E0,6.257697696E0
1.588826867E1,-3.053909519E0,-4.774173228E0,2.032855565E0,6.020929754E0
1.589821167E1,-2.840021294E0,-4.601043019E0,2.317207124E0,5.882581633E0
1.590815567E1,-2.773628499E0,-4.500209540E0,2.456541011E0,5.829193314E0
1.591809967E1,-2.832498266E0,-4.444599595E0,2.484484270E0,5.826677790E0
1.592804267E1,-2.956267449E0,-4.292203614E0,2.374291152E0,5.727109879E0
1.593798667E1,-3.107810907E0,-4.224813868E0,2.254065674E0,5.708620929E0
1.594793067E1,-3.001687451E0,-4.199774922E0,2.074762998E0,5.563531113E0
1.595787367E1,-2.697086692E0,-4.257005129E0,2.123283194E0,5.468519070E0
1.596781767E1,-2.257015886E0,-4.401218517E0,2.182428803E0,5.406277891E0
1.597776167E1,-1.757063161E0,-4.430224215E0,2.236673423E0,5.264680954E0
1.598770467E1,-1.294004027E0,-4.322125863E0,2.213987688E0,5.025630296E0
1.599764867E1,-8.262191731E-1,-4.065398304E0,1.963854181E0,4.589861081E0
1.600759267E1,-5.749432665E-1,-3.905563495E0,1.631629567E0,4.271557213E0
1.601753567E1,-4.269958466E-1,-3.714529405E0,1.340047488E0,3.971873792E0
1.602747967E1,-1.882639718E-1,-3.460416137E0,1.183584110E0,3.662075164E0
1.603742367E1,2.095922756E-1,-3.241502523E0,1.123191655E0,3.436979345E0
1.604736667E1,9.462584174E-1,-3.187967170E0,9.373613671E-1,3.455023300E0
1.605731067E1,2.048609426E0,-3.300533088E0,7.222106552E-1,3.951190640E0
1.606725467E1,3.261355866E0,-3.481586274E0,6.764760733E-1,4.818247082E0
1.607719767E1,4.607173825E0,-3.513546570E0,6.655218995E-1,5.832150508E0
1.608714167E1,5.885885628E0,-3.275419589E0,7.276286852E-1,6.775062112E0
1.609708567E1,6.940297655E0,-3.098248663E0,7.995061684E-1,7.642387482E0
1.610702867E1,7.689205527E0,-3.029453832E0,9.855248094E-1,8.323024168E0
1.611697267E1,8.364258388E0,-2.865459021E0,1.114114437E0,8.911392976E0
1.612691567E1,9.089471004E0,-2.815305698E0,1.144632225E0,9.584081189E0
1.613685967E1,9.806422089E0,-2.963026831E0,1.388568707E0,1.033796717E1
1.614680367E1,1.032102092E1,-3.034800818E0,1.665730821E0,1.088614477E1
1.615674667E1,1.049352080E1,-2.978231930E0,1.729420449E0,1.104421746E1
1.616669067E1,1.024072579E1,-2.875982255E0,1.807322318E0,1.078935366E1
1.617663467E1,9.710796724E0,-2.652475652E0,1.703979213E0,1.020973777E1
1.618657767E1,8.882325203E0,-2.445749682E0,1.621738125E0,9.354540452E0
1.619652167E1,7.945146343E0,-2.336822486E0,1.565192041E0,8.428280718E0
1.620646567E1,7.131984587E0,-2.369863932E0,1.593465668E0,7.682486058E0
1.621640867E1,6.514679412E0,-2.331229917E0,1.721033202E0,7.130051616E0
1.622635267E1,6.032571219E0,-2.162812564E0,1.947109948E0,6.697828816E0
1.623629667E1,5.458632504E0,-2.101851833E0,2.265656902E0,6.272770611E0
