"Time (s)","Linear Acceleration x (m/s^2)","Linear Acceleration y (m/s^2)","Linear Acceleration z (m/s^2)","Absolute acceleration (m/s^2)"
8.000625065E-3,-1.334668360E-1,-4.030566605E-2,1.833277524E-2,1.406201752E-1
1.794462500E-2,-1.031316274E-1,-1.783260989E-2,-6.665825844E-3,1.048740567E-1
2.788762504E-2,-2.250772376E-2,2.168956124E-3,-6.279968083E-2,6.674654981E-2
3.783162497E-2,7.766320252E-2,5.471823037E-2,-1.549921453E-2,9.625945882E-2
4.777562502E-2,1.203504715E-1,9.093657391E-2,-2.028925359E-2,1.522016763E-1
5.771862506E-2,1.446793288E-1,1.133262205E-1,1.638682187E-2,1.845087216E-1
6.766262499E-2,1.351407385E-1,9.722059485E-2,-7.582084537E-2,1.829307625E-1
7.760662504E-2,1.072890799E-1,6.497506432E-2,1.923500061E-2,1.268963786E-1
8.754962496E-2,-8.051241366E-3,6.762487628E-3,-3.884188414E-2,4.023985201E-2
9.749362501E-2,-1.199835496E-1,-4.319299373E-2,-5.186421812E-2,1.376647522E-1
1.074376251E-1,-1.854789795E-1,-6.794582903E-2,1.878827333E-2,1.984240075E-1
1.173806250E-1,-1.822802237E-1,-6.905484027E-2,-5.276527405E-2,2.019376762E-1
1.273246250E-1,-1.226315251E-1,-5.182102638E-2,-2.642356753E-2,1.357280909E-1
1.372686250E-1,-5.364922687E-2,-1.453423209E-2,-4.738232732E-2,7.303812969E-2
1.472116250E-1,4.851297783E-2,4.235380408E-2,-6.800311804E-4,6.440354168E-2
1.571556251E-1,1.409828744E-1,1.252829359E-1,-3.406295478E-2,1.916566456E-1
1.670996250E-1,1.664469139E-1,1.053839657E-1,-3.002018988E-2,1.992776133E-1
1.770436250E-1,1.870123205E-1,8.749623667E-2,-5.291730165E-4,2.064690763E-1
1.869866250E-1,6.715193703E-2,6.198460638E-2,-6.668807924E-2,1.131316666E-1
1.969306250E-1,-5.352945945E-2,8.674234785E-3,-3.045931578E-2,6.219658589E-2
2.068746251E-1,-1.264609215E-1,-3.924717384E-2,5.606251895E-2,1.437905120E-1
2.168176250E-1,-1.935410108E-1,-8.125841788E-2,-1.328452313E-1,2.484127791E-1
2.267616250E-1,-1.784164567E-1,-7.326039531E-2,4.094161928E-2,1.971693022E-1
2.367056250E-1,-1.362556838E-1,-4.269296543E-2,-5.216768861E-2,1.520189738E-1
2.466486250E-1,2.154561924E-3,3.157248859E-2,1.474024594E-2,3.491044290E-2
2.565926251E-1,9.790859286E-2,6.532634494E-2,-7.163073063E-2,1.377845618E-1
2.665366250E-1,1.633037614E-1,8.888972866E-2,-8.165051937E-3,1.861079536E-1
2.764796250E-1,1.649075978E-1,1.109064233E-1,-2.118680120E-2,1.998590280E-1
2.864236250E-1,1.185887694E-1,1.050455033E-1,-5.366632998E-2,1.672660424E-1
2.963676250E-1,5.735961411E-2,4.604150595E-2,2.821749330E-2,7.877926459E-2
3.063106250E-1,-3.394189001E-2,-1.185669154E-2,-8.329768002E-2,9.072561120E-2
3.162546250E-1,-1.083173128E-1,-3.068939001E-2,-1.773168147E-2,1.139688178E-1
3.261986250E-1,-1.444968866E-1,-4.214493515E-2,-1.548752010E-2,1.513122899E-1
3.361426250E-1,-1.403088184E-1,-4.104263906E-2,-2.402153134E-2,1.481489004E-1
3.460856250E-1,-7.245569053E-2,-1.626964001E-2,-3.839340270E-2,8.359773709E-2
3.560296251E-1,-3.653121069E-3,1.596909313E-2,-3.704854310E-2,4.050866295E-2
3.659736250E-1,6.978822730E-2,6.253570188E-2,1.234698057E-2,9.451750424E-2
3.759166250E-1,1.101329829E-1,8.186282812E-2,-5.501352847E-2,1.478420944E-1
3.858606250E-1,1.235159713E-1,7.765233949E-2,-2.522254944E-2,1.480616696E-1
3.958046250E-1,9.976495592E-2,6.621093274E-2,-2.507286072E-2,1.223338971E-1
4.057476250E-1,2.663442361E-2,3.401029330E-2,-4.378161192E-2,6.150546410E-2
4.156916250E-1,-6.830914669E-2,-2.636431879E-3,-2.147448421E-2,7.165363749E-2
4.256356250E-1,-1.217888865E-1,-3.971797063E-2,-5.156659484E-3,1.282054648E-1
4.355786250E-1,-1.368914863E-1,-5.511629328E-2,-5.814880550E-2,1.586138972E-1
4.455226250E-1,-1.081723749E-1,-3.182076685E-2,-2.915421724E-3,1.127932781E-1
4.554666250E-1,-6.519215134E-2,-5.318362406E-3,-3.719472349E-2,7.524459469E-2
4.654096250E-1,4.659298975E-3,2.927382021E-2,-6.810836792E-3,3.041468584E-2
4.753536250E-1,7.076949972E-2,5.564509171E-2,-4.049196839E-2,9.871320999E-2
4.852976250E-1,1.177146928E-1,7.429104473E-2,-2.372683167E-2,1.412050664E-1
4.952416250E-1,1.127504433E-1,8.600777311E-2,-3.420562685E-2,1.458767439E-1
5.051846250E-1,7.015211597E-2,6.623395615E-2,-3.315605164E-2,1.020175479E-1
5.151286250E-1,1.293511910E-2,2.770963064E-2,-3.366242051E-3,3.076479355E-2
5.250726250E-1,-5.232981180E-2,-5.130611965E-3,-3.450032651E-2,6.288882978E-2
5.350156251E-1,-8.989857436E-2,-2.926269223E-2,-3.689476132E-2,1.014853794E-1
5.449596250E-1,-1.003714858E-1,-2.733845579E-2,-2.686737120E-2,1.074415281E-1
5.549036250E-1,-9.069322011E-2,-1.763787020E-2,-2.537282288E-2,9.581301988E-2
5.648466250E-1,-3.711198539E-2,-4.209675500E-3,-3.675091982E-2,5.239895929E-2
5.747906250E-1,1.173996650E-2,2.919146583E-2,-3.016637027E-2,4.358874151E-2
5.847346250E-1,5.586040629E-2,5.474910641E-2,-2.447995305E-2,8.195802429E-2
5.946776250E-1,8.088364790E-2,7.047703844E-2,-3.750404119E-2,1.136473957E-1
6.046216250E-1,8.985498520E-2,5.981407881E-2,-1.535069525E-2,1.090288321E-1
6.145656250E-1,5.782133401E-2,4.233274040E-2,-2.029042304E-2,7.447864690E-2
6.245086250E-1,1.237749573E-2,2.760209212E-2,-2.822275579E-2,4.137150994E-2
6.344526251E-1,-4.625325738E-2,-4.862325266E-5,-2.223403752E-2,5.131976819E-2
6.443966250E-1,-8.261657990E-2,-2.753413194E-2,-2.388061345E-2,9.029901104E-2
6.543406250E-1,-1.012748806E-1,-2.750455325E-2,-3.271224797E-2,1.099235783E-1
6.642836250E-1,-8.118455110E-2,-2.678955298E-2,-3.241520941E-2,9.142952088E-2
6.742273750E-1,-4.745748231E-2,-3.149639256E-4,-2.178847969E-2,5.222116120E-2
6.841713750E-1,9.150024550E-3,2.881127348E-2,-3.301688790E-2,4.476524674E-2
6.941143750E-1,4.804934844E-2,3.998301852E-2,-2.867591500E-2,6.877273993E-2
7.040583750E-1,7.759858165E-2,5.592362474E-2,-2.253867745E-2,9.826995298E-2
7.140023750E-1,8.223123925E-2,6.863424274E-2,-3.735669136E-2,1.134379054E-1
7.239453749E-1,4.745771072E-2,4.995613917E-2,-2.523073554E-2,7.337874463E-2
7.338893750E-1,-3.598540965E-3,2.174932161E-2,-1.714637518E-2,2.792813401E-2
7.438333750E-1,-4.320244521E-2,-2.386394888E-4,-2.283337712E-2,4.886585036E-2
7.537763750E-1,-7.381610921E-2,-1.760143931E-2,-1.774337590E-2,7.793238115E-2
7.637203750E-1,-8.656903272E-2,-1.915022969E-2,-1.864209294E-2,9.060053175E-2
7.736643750E-1,-7.093950751E-2,-1.686375823E-2,-2.073773503E-2,7.580800566E-2
7.836073750E-1,-4.213028513E-2,-2.669158014E-3,-2.522956610E-2,4.917943000E-2
7.935513750E-1,1.183299204E-2,2.783368754E-2,-2.867299139E-2,4.167582391E-2
8.034953750E-1,4.847340862E-2,4.385083290E-2,-2.627855659E-2,7.044948137E-2
8.134393750E-1,6.910242199E-2,6.096344498E-2,-2.597859442E-2,9.574222536E-2
8.233823751E-1,6.812215456E-2,6.173952581E-2,-2.882384956E-2,9.634942290E-2
8.333263750E-1,4.283825504E-2,4.452546911E-2,-2.553069770E-2,6.685394543E-2
8.432703750E-1,4.589296840E-3,2.854824927E-2,-2.523015082E-2,3.837479241E-2
8.532133750E-1,-3.586386980E-2,9.032454402E-3,-1.460108221E-2,3.976171514E-2
8.631573750E-1,-6.930299976E-2,-1.699663164E-2,-2.552894354E-2,7.578600280E-2
8.731013749E-1,-7.453470460E-2,-2.185079821E-2,-2.971964300E-2,8.316331374E-2
8.830443750E-1,-6.555311641E-2,-1.372505510E-2,-3.031781316E-2,7.351705926E-2
8.929883750E-1,-3.908929445E-2,4.344252823E-4,-3.046925604E-2,4.956346668E-2
9.029323750E-1,4.364827713E-3,1.938424622E-2,-3.136914253E-2,3.713251709E-2
9.128753750E-1,3.794798191E-2,3.913773498E-2,-2.702933908E-2,6.084732369E-2
9.228193751E-1,5.586880253E-2,5.797199575E-2,-2.583241403E-2,8.455405964E-2
9.327633750E-1,5.514526441E-2,4.219949241E-2,-3.271751046E-2,7.676088090E-2
9.427063750E-1,3.144722113E-2,4.244972126E-2,-2.508397043E-2,5.848172471E-2
9.526503750E-1,-4.228085093E-4,2.872092486E-2,-1.909700632E-2,3.449298396E-2
9.625943750E-1,-3.120377596E-2,-2.888469715E-3,-3.197199047E-2,4.476859464E-2
9.725383751E-1,-5.298999899E-2,-1.142882610E-2,-2.134526074E-2,5.825957617E-2
9.824813750E-1,-6.780604860E-2,-1.251284963E-2,-1.610440135E-2,7.080666194E-2
9.924253750E-1,-5.497267105E-2,-2.563401069E-3,-2.059447825E-2,5.875966407E-2
1.002369375E0,-2.169478719E-2,1.484098250E-2,-1.820004344E-2,3.197123917E-2
1.012312375E0,1.172783352E-2,1.778148330E-2,-2.493779004E-2,3.279659433E-2
1.022256375E0,3.867269861E-2,3.474199925E-2,-2.329179883E-2,5.696570918E-2
1.032200375E0,4.320820106E-2,3.762418777E-2,-2.793214917E-2,6.373957250E-2
1.042143375E0,4.769388341E-2,4.517573431E-2,-2.179549634E-2,6.921413979E-2
1.052087375E0,1.919849206E-2,4.042634710E-2,-2.299300611E-2,5.031451050E-2
1.062031375E0,-4.610401634E-3,2.363355488E-2,-3.466755688E-2,4.220948021E-2
1.071974375E0,-3.545229890E-2,8.031287743E-4,-1.745335400E-2,3.952379131E-2
1.081918375E0,-5.837968829E-2,-1.516635721E-2,-2.239132762E-2,6.433955198E-2
1.091862375E0,-5.005922833E-2,-6.786429235E-3,-2.777836740E-2,5.765084265E-2
1.101806375E0,-3.721514306E-2,8.742633504E-3,-1.819828928E-2,4.233885032E-2
1.111749375E0,-1.560882241E-2,1.156652346E-4,-2.792688668E-2,3.199311981E-2
1.121693375E0,2.675283886E-3,1.665804588E-2,-3.241813302E-2,3.654562881E-2
1.131637375E0,2.818145983E-2,3.395812517E-2,-2.822626412E-2,5.238388043E-2
1.141580375E0,3.702872652E-2,4.113106906E-2,-1.655288279E-2,5.776581479E-2
1.151524375E0,3.127156712E-2,4.294343640E-2,-2.882560372E-2,6.043976398E-2
1.161468375E0,1.665583033E-2,2.295196597E-2,-2.912264228E-2,4.064895717E-2
1.171411375E0,-5.789328218E-3,1.752094873E-2,-2.986933172E-2,3.510949932E-2
1.181355375E0,-2.337690323E-2,7.904754910E-3,-2.986874700E-2,3.874411958E-2
1.191299375E0,-2.932859218E-2,-3.317997954E-3,-2.088742375E-2,3.615881498E-2
1.201242375E0,-4.134046334E-2,-2.965351464E-3,-2.447995305E-2,4.813621630E-2
1.211186375E0,-2.781286597E-2,5.757680163E-5,-3.316365302E-2,4.328263751E-2
1.221130375E0,-1.370530704E-2,1.294881895E-2,-3.016929388E-2,3.557658846E-2
1.231073375E0,1.236007285E-2,2.365862482E-2,-1.669672430E-2,3.148463961E-2
1.241017375E0,2.269742022E-2,3.123542402E-2,-2.732403874E-2,4.730145549E-2
1.250961375E0,3.134566231E-2,3.265036798E-2,-4.169474065E-2,6.153899961E-2
1.260904375E0,2.540109965E-2,3.697087106E-2,-1.879295111E-2,4.863369389E-2
1.270848375E0,9.412820349E-3,3.108441968E-2,-2.073773503E-2,3.853434816E-2
1.280792375E0,-9.068364529E-3,1.606237906E-2,-3.181703925E-2,3.677715654E-2
1.290736375E0,-2.440999660E-2,3.110878612E-3,-2.522956610E-2,3.524282204E-2
1.300679375E0,-3.555801474E-2,6.500874977E-3,-2.508221626E-2,4.399717446E-2
1.310623375E0,-4.231587027E-2,4.367554891E-3,-2.313684762E-2,4.842542855E-2
1.320567375E0,-3.495481962E-2,7.856647857E-4,-2.388704538E-2,4.234439303E-2
1.330510375E0,-1.291550352E-2,1.029139648E-2,-2.553420603E-2,3.040918859E-2
1.340454375E0,9.008914791E-3,2.855868290E-2,-2.358942211E-2,3.812111947E-2
1.350398375E0,1.329843219E-2,3.363822766E-2,-2.044654369E-2,4.155044895E-2
1.360341375E0,2.141488829E-2,2.195927777E-2,-2.703226268E-2,4.088460036E-2
1.370285375E0,1.746002348E-2,3.488837607E-2,-1.610498607E-2,4.220689258E-2
1.380229375E0,8.663591025E-3,2.786265410E-2,-2.493486643E-2,3.838141304E-2
1.390172375E0,-1.178854407E-2,1.691637861E-2,-1.999513865E-2,2.872175492E-2
1.400116375E0,-2.865452698E-2,8.200427592E-3,-2.418700755E-2,3.838411473E-2
1.410060375E0,-3.585086888E-2,8.041748777E-3,-2.313743234E-2,4.341998731E-2
1.420003375E0,-3.673221787E-2,1.206294294E-2,-3.226844430E-2,5.035894081E-2
1.429947375E0,-2.473756858E-2,4.866701541E-3,-1.744984567E-2,3.066152633E-2
1.439891375E0,-8.867549216E-3,1.468600844E-2,-1.251128733E-2,2.123310114E-2
1.449835375E0,3.289095350E-3,2.969542273E-2,-2.763160229E-2,4.069572121E-2
1.459778375E0,9.762712251E-3,2.949402270E-2,-3.272160351E-2,4.512107337E-2
1.469722375E0,2.236767380E-2,2.938504522E-2,-2.074650586E-2,4.235813050E-2
1.479666375E0,2.240441076E-2,3.338174959E-2,-1.790008128E-2,4.400808718E-2
1.489609375E0,2.968512615E-3,2.670658648E-2,-2.089444041E-2,3.403867607E-2
1.499553375E0,-8.347210977E-3,1.798459182E-2,-1.445724070E-2,2.453840424E-2
1.509497375E0,-2.571440991E-2,1.050553705E-2,-1.625292063E-2,3.218314178E-2
1.519440375E0,-2.922385393E-2,2.033338180E-2,-3.616152048E-2,5.074579408E-2
1.529384375E0,-1.795841639E-2,8.184251818E-3,-3.286778390E-2,3.833768271E-2
1.539328375E0,-8.868508525E-3,6.321785725E-3,-2.553186715E-2,2.775773150E-2
1.549271375E0,-2.674233215E-3,1.596829370E-2,-1.879470527E-2,2.480683118E-2
1.559215375E0,-2.245148085E-3,2.415199277E-2,-2.074124336E-2,3.191486521E-2
1.569159375E0,1.350010632E-2,3.013006272E-2,-1.879470527E-2,3.799097914E-2
1.579102375E0,1.446962035E-2,3.555722902E-2,-2.777778268E-2,4.738450864E-2
1.589046375E0,1.594987040E-2,2.994886755E-2,-2.433552682E-2,4.175584869E-2
1.598990375E0,1.113375641E-2,2.987485916E-2,-2.912615061E-2,4.318333465E-2
1.608934375E0,-7.605363764E-3,1.171130600E-2,-3.541366160E-2,3.806735707E-2
1.618877375E0,-1.802826321E-2,3.241335475E-3,-2.418700755E-2,3.034033395E-2
1.628821375E0,-1.530972820E-2,1.558581271E-2,-4.020428538E-2,4.575685630E-2
1.638765375E0,-1.482647410E-2,1.962757719E-2,-1.820004344E-2,3.059914544E-2
1.648708375E0,-3.340379999E-2,1.162539762E-2,-2.149378002E-2,4.138775547E-2
1.658652375E0,-1.912943096E-2,1.461164374E-2,-3.242047191E-2,4.037972586E-2
1.668596875E0,3.378393296E-3,2.786459556E-2,-2.119264841E-2,3.517069197E-2
1.678539875E0,1.523492038E-2,3.035268632E-2,-1.610498607E-2,3.758668570E-2
1.688483875E0,7.695346931E-3,2.363738755E-2,-3.780985057E-2,4.524963265E-2
1.698427875E0,1.846148707E-3,2.051639965E-2,-2.358942211E-2,3.131759497E-2
1.708370875E0,6.862621196E-3,2.523648683E-2,-1.640436351E-2,3.087197725E-2
1.718314875E0,-4.815940401E-3,2.367164858E-2,-2.029568553E-2,3.155083326E-2
1.728258875E0,-1.866402914E-2,1.048181471E-2,-2.852681100E-2,3.566501604E-2
1.738201875E0,-2.667148948E-2,1.119737686E-2,-3.122237742E-2,4.256273548E-2
1.748145875E0,-1.591377298E-2,1.810420392E-2,-2.119557202E-2,3.209770464E-2
1.758089875E0,-1.457394747E-2,1.664626465E-2,-1.790300488E-2,2.846077398E-2
1.768033875E0,1.283454699E-3,1.539074411E-2,-2.718429029E-2,3.126512272E-2
1.777976875E0,1.042548501E-2,2.090537653E-2,-3.586682081E-2,4.280367205E-2
1.787920875E0,2.923415964E-3,2.415954847E-2,-2.149611890E-2,3.247019050E-2
1.797864875E0,-2.404219760E-3,2.888887242E-2,-1.116701245E-2,3.106524408E-2
1.807807875E0,8.407108393E-4,2.253340126E-2,-3.511545360E-2,4.173195476E-2
1.817751875E0,-2.021546904E-3,1.680748335E-2,-2.433845043E-2,2.964689390E-2
1.827695875E0,-9.748742888E-3,6.285249763E-3,-1.820179760E-2,2.158350733E-2
1.837638875E0,-2.211227839E-2,1.641933330E-2,-1.670432568E-2,3.221151747E-2
1.847582875E0,-1.636038149E-2,1.533113449E-2,-3.361856639E-2,4.040932780E-2
1.857526875E0,-1.765325569E-2,8.800621438E-3,-3.107327342E-2,3.680538948E-2
1.867469875E0,-1.663946726E-2,1.234690748E-2,-2.179315746E-2,3.007091131E-2
1.877413875E0,-1.341698449E-3,2.400266494E-2,-2.583299875E-2,3.528841033E-2
1.887357875E0,4.975149119E-3,1.802983465E-2,-1.445607126E-2,2.363905756E-2
1.897300875E0,1.093559062E-2,2.037011876E-2,-2.762633979E-2,3.602420757E-2
1.907244875E0,8.405418182E-3,2.809912829E-2,-3.525987983E-2,4.586361511E-2
1.917188875E0,2.437028121E-3,2.647825270E-2,-1.699727118E-2,3.155858362E-2
1.927131875E0,-7.379971873E-3,2.205110646E-2,-2.298482001E-2,3.269582897E-2
1.937075875E0,-8.186129322E-3,9.317241213E-3,-3.705497503E-2,3.907550219E-2
1.947019875E0,-9.609716199E-3,5.742710377E-3,-3.376240790E-2,3.557000921E-2
1.956963875E0,-1.217896448E-2,1.531865434E-2,-2.972081244E-2,3.558532055E-2
1.966906875E0,-1.295626958E-2,1.566841376E-2,-2.627914131E-2,3.322585408E-2
1.976850875E0,-7.417147374E-3,1.725859147E-2,-2.792747140E-2,3.365734264E-2
1.986794875E0,-2.428074572E-3,1.808003391E-2,-3.197023630E-2,3.680868350E-2
1.996737875E0,-7.441038731E-4,2.002446609E-2,-2.119264841E-2,2.916609812E-2
2.006681875E0,5.377739053E-3,2.437785062E-2,-2.703050852E-2,3.679467446E-2
2.016625875E0,7.432934856E-3,1.643411122E-2,-2.852856517E-2,3.375214901E-2
2.026568875E0,-3.542590421E-3,1.262937825E-2,-3.197140574E-2,3.455751622E-2
2.036512875E0,-3.816349749E-3,1.718046262E-2,-3.571537793E-2,3.981609024E-2
2.046456875E0,-1.234968491E-2,2.124648848E-2,-2.029743969E-2,3.187340660E-2
2.056399875E0,-1.450030910E-2,1.610306289E-2,-1.071736157E-2,2.417497543E-2
2.066343875E0,-1.743911055E-2,1.498921855E-2,-2.104705274E-2,3.117334885E-2
2.076287875E0,-3.030164195E-3,1.188715645E-2,-2.583826125E-2,2.860248464E-2
2.086230875E0,-8.844005037E-4,1.794185232E-2,-3.481841505E-2,3.917925797E-2
2.096174875E0,-3.700035838E-3,3.031497178E-2,-1.940223098E-2,3.618196161E-2
2.106118875E0,8.064890960E-3,1.840819518E-2,-2.569032669E-2,3.261743401E-2
2.116061875E0,6.118014827E-3,2.219375568E-2,-3.047978103E-2,3.819698874E-2
2.126005875E0,4.135744767E-3,1.795569835E-2,-2.015184402E-2,2.730582915E-2
2.135949875E0,2.048864365E-3,2.438786854E-2,-1.730775833E-2,2.997539784E-2
2.145893875E0,-3.771326188E-3,1.898607824E-2,-2.763628006E-2,3.374104391E-2
2.155836875E0,-4.823998595E-3,1.135891076E-2,-2.045122147E-2,2.388615238E-2
2.165780875E0,-1.543087520E-2,9.800860765E-3,-1.506242752E-2,2.368639913E-2
2.175724875E0,-8.981021745E-3,7.866734304E-3,-2.449281693E-2,2.724779516E-2
2.185667875E0,-7.208018051E-3,1.478756270E-2,-1.910402298E-2,2.521093471E-2
2.195611875E0,-1.174115421E-2,9.204444769E-3,-2.928285599E-2,3.286429918E-2
2.205555875E0,1.029648995E-3,2.069897896E-2,-3.452313066E-2,4.026604596E-2
2.215498875E0,1.768179741E-3,1.847586300E-2,-2.673931718E-2,3.254957843E-2
2.225442875E0,1.501930431E-3,1.760657389E-2,-3.332503617E-2,3.772009113E-2
2.235386875E0,-6.096106041E-3,1.384034118E-2,-2.733573318E-2,3.124035629E-2
2.245329875E0,-1.023874870E-2,1.847980987E-2,-3.002954543E-2,3.671660314E-2
2.255273875E0,-1.059844382E-2,2.766105307E-2,-2.134818435E-2,3.651309139E-2
2.265217875E0,-1.158362657E-2,1.032182941E-2,-2.898113966E-2,3.287289191E-2
2.275160875E0,-6.755005019E-3,1.345864590E-2,-2.524009109E-2,2.939094147E-2
2.285104875E0,-9.676840408E-3,1.633320107E-2,-2.793390334E-2,3.377451189E-2
2.295048875E0,-1.268935332E-2,9.320649044E-3,-2.344265699E-2,2.823919888E-2
2.304992875E0,-9.948196895E-3,2.357894280E-2,-3.302331984E-2,4.177885612E-2
2.314935875E0,-7.510785051E-3,1.827347168E-2,-2.838296950E-2,3.458214303E-2
2.324879875E0,7.186949803E-3,1.894192720E-2,-2.643643141E-2,3.330666238E-2
2.334823875E0,-1.289639957E-3,2.353036066E-2,-2.987868726E-2,3.805360688E-2
2.344766875E0,-2.679705843E-3,2.307007059E-2,-1.955075026E-2,3.035853777E-2
2.354710875E0,-7.757117283E-3,3.400859395E-2,-2.943254471E-2,4.564024561E-2
2.364654875E0,-4.716857504E-3,1.563599826E-2,-3.242573440E-2,3.630649305E-2
2.374597875E0,-3.535592034E-3,1.660153345E-2,-2.404258132E-2,2.943054605E-2
2.384541875E0,-1.199997573E-2,2.019280194E-2,-2.509274125E-2,3.437141736E-2
2.394485875E0,-6.025464367E-3,1.711252528E-2,-2.000390947E-2,2.700557602E-2
2.404428875E0,-6.506269947E-3,1.627512177E-2,-2.823912799E-2,3.323641809E-2
2.414372875E0,-1.214677739E-2,1.825057161E-2,-2.449983358E-2,3.287657845E-2
2.424316875E0,-1.820146870E-3,2.148762217E-2,-2.540030479E-2,3.331975877E-2
2.434259875E0,-2.862897282E-3,2.052165757E-2,-2.240711510E-2,3.051906646E-2
2.444203875E0,4.506485648E-3,1.764897077E-2,-2.644812584E-2,3.211382790E-2
2.454147875E0,1.616161270E-3,1.633362134E-2,-2.315614343E-2,2.838320175E-2
2.464090875E0,-2.464537444E-3,2.646760438E-2,-2.959334314E-2,3.977906465E-2
2.474034875E0,-4.530212553E-3,1.505880042E-2,-2.525412440E-2,2.974997639E-2
2.483978875E0,-1.960953305E-2,1.130367741E-2,-3.229066372E-2,3.943341062E-2
2.493922875E0,-1.415700445E-2,9.087450206E-3,-2.600256801E-2,3.096992201E-2
2.503865875E0,-9.336687773E-3,2.207163567E-2,-2.944540858E-2,3.796528581E-2
2.513809875E0,-1.346272068E-2,1.616937397E-2,-2.495416224E-2,3.264052260E-2
2.523753875E0,-4.302783273E-3,1.214002568E-2,-3.513357997E-2,3.742008296E-2
2.533696875E0,-1.504285762E-2,2.257157261E-2,-2.585346401E-2,3.747219044E-2
2.543640875E0,-1.021546033E-2,2.026517951E-2,-2.884723842E-2,3.670417272E-2
2.553584875E0,-2.456771610E-3,1.454491696E-2,-2.225918055E-2,2.670321057E-2
2.563527875E0,-1.410138281E-3,1.480670320E-2,-2.749594688E-2,3.126106276E-2
2.573471875E0,-4.761159299E-3,1.621134601E-2,-2.749477744E-2,3.227133657E-2
2.583415875E0,-6.259371266E-3,2.497912254E-2,-2.120843589E-2,3.336066613E-2
2.593358875E0,-9.399463115E-3,1.774031068E-2,-2.375255942E-2,3.110068502E-2
2.603302875E0,-1.587309829E-2,1.454241362E-2,-2.959041953E-2,3.659275845E-2
2.613246875E0,-1.128316191E-2,1.143351301E-2,-3.213395834E-2,3.592528693E-2
2.623189875E0,-1.377424023E-2,1.518715137E-2,-2.000858724E-2,2.864826040E-2
2.633133875E0,-6.066897372E-3,2.652018820E-2,-3.617438436E-2,4.526271876E-2
2.643077875E0,-9.001075868E-3,7.837950471E-3,-2.809002399E-2,3.052052231E-2
2.653020875E0,-6.117000701E-3,1.404839699E-2,-2.539562702E-2,2.965995663E-2
2.662964875E0,-1.134035499E-2,1.838663357E-2,-3.093410969E-2,3.773050606E-2
2.672909625E0,-1.347872743E-2,1.392861586E-2,-1.836084187E-2,2.669836975E-2
2.682853625E0,-9.604243571E-3,1.196793939E-2,-2.135286212E-2,2.629482437E-2
2.692796625E0,2.381305983E-3,2.011593390E-2,-2.793916583E-2,3.450968563E-2
2.702740625E0,-7.247486757E-3,1.365291051E-2,-2.494480669E-2,2.934572219E-2
2.712684625E0,-8.662914941E-3,2.158520672E-2,-2.285091877E-2,3.260570093E-2
2.722627625E0,-1.373233214E-2,2.456036597E-2,-2.524710774E-2,3.780482736E-2
2.732571625E0,-1.161993412E-2,1.663352869E-2,-3.273154378E-2,3.851040254E-2
2.742515625E0,-1.323204802E-2,2.320751213E-2,-2.719364583E-2,3.812046810E-2
2.752458625E0,-9.125119066E-3,1.504638422E-2,-3.003656209E-2,3.481172989E-2
2.762402625E0,-1.143915466E-2,1.109216352E-2,-2.509624958E-2,2.972729544E-2
2.772346625E0,-3.801494166E-3,1.812804046E-2,-3.153286457E-2,3.657046290E-2
2.782289625E0,-5.170473531E-3,1.260729130E-2,-2.090496540E-2,2.495386080E-2
2.792233625E0,-6.078546122E-3,1.735928692E-2,-9.978273511E-3,2.092509277E-2
2.802177625E0,-2.379095005E-3,1.341651854E-2,-2.569617391E-2,2.908532991E-2
2.812120625E0,3.723251112E-3,8.981231879E-3,-3.901847005E-2,4.021151738E-2
2.822064625E0,-1.196548630E-2,2.340154833E-2,-2.524593830E-2,3.644396695E-2
2.832008625E0,-1.004495918E-2,1.593695628E-2,-1.895784259E-2,2.672615902E-2
2.841951625E0,1.339377835E-4,1.566554041E-2,-2.374729693E-2,2.844927428E-2
2.851895625E0,-2.096117176E-3,1.543233700E-2,-1.985597491E-2,2.523510397E-2
2.861839625E0,-5.777067337E-3,1.922765961E-2,-2.629258990E-2,3.308137973E-2
2.871783625E0,-8.345758310E-3,1.998362694E-2,-2.000390947E-2,2.948140806E-2
2.881726625E0,-3.214004310E-3,3.116349413E-2,-2.853616655E-2,4.237695118E-2
2.891670625E0,3.359819250E-3,1.732865756E-2,-2.464484453E-2,3.031400865E-2
2.901614625E0,-4.396740720E-4,2.217776264E-2,-2.404608965E-2,3.271484214E-2
2.911557625E0,-5.416458584E-3,2.369980657E-2,-9.974180460E-3,2.627742627E-2
2.921501625E0,-9.283852698E-3,1.478639783E-2,-2.344791949E-2,2.923409670E-2
2.931445625E0,-5.462459726E-3,1.032404495E-2,-3.138025224E-2,3.348349745E-2
2.941388625E0,1.645187214E-3,1.449495067E-2,-2.928285599E-2,3.271537698E-2
2.951332625E0,-8.072848655E-3,1.482802726E-2,-2.598911941E-2,3.099154087E-2
2.961276625E0,-7.334765587E-3,1.737676918E-2,-2.224690139E-2,2.916634216E-2
2.971219625E0,-4.596797721E-3,1.210435310E-2,-2.119908035E-2,2.484042916E-2
2.981163625E0,-6.141814822E-3,1.312690778E-2,-1.566118240E-2,2.133799970E-2
2.991107625E0,8.490696168E-3,2.287900825E-2,-2.973192215E-2,3.846463485E-2
3.001050625E0,4.521112824E-3,2.291821200E-2,-2.703694046E-2,3.573067382E-2
3.010994625E0,-2.471663738E-3,1.988457145E-2,-2.808593094E-2,3.450108434E-2
3.020938625E0,-1.388805080E-4,1.607525663E-2,-1.790709794E-2,2.406444099E-2
3.030882625E0,-8.781129196E-3,1.233244019E-2,-1.970336258E-2,2.484793368E-2
3.040825625E0,-2.242845744E-3,1.715387606E-2,-2.164931595E-2,2.771242866E-2
3.050769625E0,-1.222407941E-2,1.695204662E-2,-1.790826738E-2,2.752282766E-2
3.060713625E0,-6.732264832E-3,1.663220393E-2,-1.925605059E-2,2.632012693E-2
3.070656625E0,-3.638009671E-3,1.417136210E-2,-2.060441852E-2,2.527062881E-2
3.080600625E0,-9.656128474E-3,1.948142421E-2,-2.015359819E-2,2.964682489E-2
3.090544625E0,-7.248811517E-4,1.488396867E-2,-2.389523149E-2,2.816096703E-2
3.100487625E0,-3.059144458E-3,2.173544818E-2,-2.583943069E-2,3.390374980E-2
3.110431625E0,-4.075527582E-3,1.959951969E-2,-2.748717606E-2,3.400435185E-2
3.120375625E0,1.015615677E-3,1.989663590E-2,-2.763803422E-2,3.407005329E-2
3.130318625E0,-4.525251556E-3,2.278396358E-2,-2.479336381E-2,3.397495824E-2
3.140262625E0,-8.922549589E-3,2.626478365E-2,-3.123056352E-2,4.177078943E-2
3.150206625E0,-1.368295971E-2,1.648818883E-2,-2.853675127E-2,3.568515000E-2
3.160149625E0,-1.156458657E-2,1.393294645E-2,-2.659138262E-2,3.217092304E-2
3.170093625E0,-1.620547595E-2,2.096384412E-2,-2.060500324E-2,3.356585124E-2
3.180037625E0,-5.965018775E-3,2.346300348E-2,-2.704161823E-2,3.629522141E-2
3.189980625E0,-2.043272965E-3,1.641792631E-2,-2.389815509E-2,2.906621898E-2
3.199924625E0,-9.463334810E-3,1.660691472E-2,-3.706959307E-2,4.170730215E-2
3.209868625E0,-9.279567786E-3,1.505592249E-2,-3.227955401E-2,3.680707524E-2
3.219811625E0,-1.141614038E-3,1.887028053E-2,-2.913609087E-2,3.473186666E-2
3.229755625E0,-4.926471049E-3,2.261116009E-2,-2.359819293E-2,3.305161701E-2
3.239699625E0,-7.607328063E-3,1.919623540E-2,-2.494539142E-2,3.238270289E-2
3.249642625E0,-2.450312264E-3,1.085415901E-2,-2.793858111E-2,3.007292989E-2
3.259586625E0,2.118784273E-3,1.415022077E-2,-3.332620561E-2,3.626780907E-2
3.269530625E0,-6.621204279E-3,8.639909802E-3,-1.745861650E-2,2.057405350E-2
3.279474625E0,-6.809429806E-3,1.024272754E-2,-2.958164871E-2,3.203678732E-2
3.289417625E0,-2.049578821E-2,8.461761586E-3,-2.883203566E-2,3.637258616E-2
3.299361625E0,-1.926741611E-2,1.313777994E-2,-1.745510817E-2,2.912928744E-2
3.309305625E0,-8.988303356E-3,7.256910824E-3,-2.972958326E-2,3.189514811E-2
3.319248625E0,-4.486733023E-4,1.678229921E-2,-1.775448561E-2,2.443498790E-2
3.329192625E0,5.801899731E-4,2.979381127E-2,-3.077798903E-2,4.284031302E-2
3.339136625E0,8.653796939E-3,3.010199608E-2,-1.655697584E-2,3.542812186E-2
3.349079625E0,7.405005265E-3,2.838857917E-2,-3.032833815E-2,4.219660680E-2
3.359023625E0,-2.301290492E-3,1.806977387E-2,-3.811390579E-2,4.224313530E-2
3.368967625E0,-1.215828910E-2,9.970822879E-3,-2.838647783E-2,3.245047652E-2
3.378910625E0,-2.299714484E-2,9.234041730E-3,-2.299651444E-2,3.380792620E-2
3.388854625E0,-3.202471591E-2,-7.971627871E-4,-3.122880936E-2,4.473763998E-2
3.398798625E0,-4.039209064E-2,-7.334898063E-3,-3.182697952E-2,5.194495492E-2
3.408741625E0,-3.823732772E-2,-1.577514829E-4,-3.572064042E-2,5.232668792E-2
3.418685625E0,-2.422959172E-2,9.987373240E-3,-2.269830644E-2,3.467035988E-2
3.428629625E0,-1.425625180E-2,1.558868607E-2,-1.790885210E-2,2.769431047E-2
3.438572625E0,1.660179840E-3,2.161071063E-2,-3.706842363E-2,4.294004007E-2
3.448516625E0,2.530436478E-2,3.785655521E-2,-1.895608842E-2,4.932304672E-2
3.458460625E0,4.492237628E-2,5.065725687E-2,-1.386725664E-2,6.911207110E-2
3.468404625E0,4.180237510E-2,4.750063750E-2,-2.434488237E-2,6.779692047E-2
3.478347625E0,2.525950567E-2,3.006163202E-2,-1.790943682E-2,4.315660174E-2
3.488291625E0,8.079865314E-3,2.502986084E-2,-3.467515826E-2,4.352177338E-2
3.498235625E0,-5.647743372E-3,2.296744281E-2,-1.371815264E-2,2.734205820E-2
3.508178625E0,-2.633009431E-2,7.874125550E-3,-3.048387408E-2,4.104317603E-2
3.518122625E0,-4.332767612E-2,-9.202626650E-3,-2.000683308E-2,4.860297548E-2
3.528066625E0,-4.871333633E-2,-8.284134138E-3,-1.701364338E-2,5.225973666E-2
3.538009625E0,-3.975765861E-2,1.087591704E-2,-2.285267293E-2,4.712962603E-2
3.547953625E0,-1.115995925E-2,1.164060494E-2,-2.015769124E-2,2.581435434E-2
3.557897625E0,9.195431834E-3,2.162275224E-2,-2.075703084E-2,3.135209260E-2
3.567840625E0,2.937844883E-2,2.883276199E-2,-2.764095783E-2,4.958269829E-2
3.577784625E0,3.629458118E-2,4.072881717E-2,-3.991484821E-2,6.759680672E-2
3.587728625E0,3.776800644E-2,4.340628920E-2,-2.255154133E-2,6.179886947E-2
3.597671625E0,2.067024537E-2,3.602951959E-2,-3.662286580E-2,5.537706768E-2
3.607615625E0,5.139017338E-3,1.541322848E-2,-3.168255329E-2,3.560563571E-2
3.617559625E0,-2.369165702E-2,1.031919359E-3,-1.940807819E-2,3.064364484E-2
3.627502625E0,-3.581140931E-2,3.102756464E-3,-1.925722003E-2,4.077897323E-2
3.637446625E0,-3.790338775E-2,-6.021261681E-3,-1.506535113E-2,4.122968833E-2
3.647390625E0,-4.135845266E-2,-9.317131578E-3,-2.988511920E-2,5.186955655E-2
3.657333625E0,-1.715867260E-2,9.929184308E-3,-2.853616655E-2,3.474653289E-2
3.667277625E0,2.429298833E-3,2.791970100E-2,-3.167962968E-2,4.229669176E-2
3.677221375E0,1.386751246E-2,3.133876442E-2,-3.182814896E-2,4.677025896E-2
3.687165375E0,2.636388939E-2,3.393663208E-2,-3.407406449E-2,5.484333626E-2
3.697108375E0,3.176031212E-2,3.875343130E-2,-2.060207963E-2,5.417556228E-2
3.707052375E0,1.316697948E-2,2.920318767E-2,-4.904118240E-2,5.857672823E-2
3.716996375E0,1.095812067E-2,2.475331038E-2,1.906777024E-2,3.311172973E-2
3.726939375E0,-3.369961428E-2,4.259043359E-3,-7.269024611E-2,8.023512530E-2
3.736883375E0,-4.828012160E-2,-3.355698790E-3,-9.221643806E-3,4.926732762E-2
3.746827375E0,-4.648552889E-2,-6.606216221E-3,-8.473784924E-3,4.771112575E-2
3.756770375E0,-3.656043763E-2,-3.206562814E-3,-5.981643140E-2,7.017801017E-2
3.766714375E0,-3.215279734E-2,1.532559791E-3,9.939681888E-3,3.368899512E-2
3.776658375E0,-2.298979014E-3,2.065904887E-2,-2.164580762E-2,3.001037475E-2
3.786601375E0,2.684620245E-2,3.273385069E-2,-7.283818066E-2,8.424739835E-2
3.796545375E0,5.504056270E-2,4.781461928E-2,1.637688160E-2,7.472552181E-2
3.806489375E0,3.132748112E-2,4.363884849E-2,-5.083393872E-2,7.395843087E-2
3.816432375E0,2.519377931E-2,3.639216573E-2,-3.062537670E-2,5.382406470E-2
3.826376375E0,-2.385453852E-3,2.551527567E-2,2.906650901E-3,2.579085695E-2
3.836320375E0,-3.229202502E-2,3.584311218E-3,-5.427560985E-2,6.325712602E-2
3.846263375E0,-5.209957768E-2,-7.823085752E-3,-3.231756091E-3,5.278267626E-2
3.856207375E0,-6.552317684E-2,-6.855056360E-3,-4.544514477E-2,8.003461553E-2
3.866151375E0,-4.381093022E-2,-5.482915845E-3,-3.451786816E-2,5.604411830E-2
3.876094375E0,1.757159567E-2,2.993906433E-2,3.373960376E-2,4.840939381E-2
3.886038375E0,6.691708909E-3,2.567815717E-2,-7.912744582E-2,8.345836930E-2
3.895982375E0,4.165253107E-2,3.334137183E-2,-2.039508820E-3,5.339232169E-2
3.905926375E0,1.345225051E-3,2.683178998E-2,-3.811390579E-2,4.663072376E-2
3.915869375E0,2.050659643E-2,3.596045849E-2,-2.045063674E-2,4.617254179E-2
3.925813375E0,9.090410359E-3,3.261951478E-2,-1.738377213E-3,3.390708275E-2
3.935757375E0,-2.911313142E-2,-6.130988337E-3,-9.050378859E-2,9.526856348E-2
3.945700375E0,-3.980320293E-2,2.098693606E-3,7.071154833E-2,8.117156242E-2
3.955644375E0,-6.456426088E-2,-8.306988529E-3,-1.478351533E-1,1.615326048E-1
3.965588375E0,-2.249969297E-2,6.615055567E-3,9.376302660E-2,9.665143713E-2
3.975531375E0,-4.161040370E-2,1.061626869E-2,-8.361869216E-2,9.400115178E-2
3.985475375E0,-3.256983172E-2,-2.444676553E-2,-4.275484085E-2,5.904586945E-2
3.995419375E0,6.878929446E-3,3.173229117E-2,2.520500779E-2,4.110414080E-2
4.005362375E0,4.075523928E-2,9.588945793E-2,-7.433916092E-2,1.279925331E-1
4.015306375E0,1.025148192E-1,4.732394652E-2,7.310539842E-2,1.345111272E-1
4.025250375E0,3.858550200E-2,-2.863641889E-3,-1.717841792E-1,1.760876078E-1
4.035193375E0,2.334550185E-2,6.126368580E-2,2.805143237E-2,7.131012910E-2
4.045137375E0,-3.327367203E-2,4.751943539E-2,2.606104016E-3,5.806914644E-2
4.055081375E0,-2.999718474E-2,-1.664693160E-3,-2.867883861E-2,4.153405927E-2
4.065024375E0,1.395700227E-2,-2.299015102E-2,-3.556393504E-2,4.458854597E-2
4.074968375E0,-3.411637458E-2,-3.107500931E-2,-1.104094648E-1,1.196655052E-1
4.084912375E0,-6.993251648E-2,5.336118755E-3,7.595182300E-2,1.033813834E-1
4.094855375E0,-1.196989729E-1,-1.121024530E-2,-6.415681958E-2,1.362703607E-1
4.104799375E0,-2.799247599E-2,1.033693624E-2,-2.209253490E-2,3.712830539E-2
4.114743375E0,2.569403602E-2,1.524776142E-2,4.552642107E-3,3.022257873E-2
4.124687375E0,6.228325292E-2,3.437150504E-2,-1.163975984E-1,1.364148264E-1
4.134630375E0,9.634181315E-2,8.091284744E-2,9.601011157E-2,1.582610987E-1
4.144574375E0,6.119853046E-2,7.122305636E-2,-1.060690767E-1,1.416638024E-1
4.154518375E0,6.947763051E-2,3.713521893E-2,3.987625659E-2,8.829655410E-2
4.164461375E0,6.472995635E-3,7.191161625E-3,-1.047230476E-1,1.051690505E-1
4.174405375E0,-6.015253667E-2,-1.346363888E-2,3.044645190E-2,6.875015398E-2
4.184349375E0,-1.545903319E-1,-4.736009419E-2,-9.094876170E-2,1.855069446E-1
4.194292375E0,-1.599875678E-1,-5.196331928E-2,4.975863576E-2,1.754198684E-1
4.204236375E0,-1.484899045E-1,-6.094391619E-2,-8.346549511E-2,1.809140722E-1
4.214180375E0,-5.494492418E-2,-2.206286942E-2,-3.421966016E-2,6.838640246E-2
4.224123375E0,6.119000631E-2,5.797060703E-2,-1.012036085E-2,8.489540539E-2
4.234067375E0,1.407301376E-1,1.124496497E-1,-1.790475905E-2,1.810261743E-1
4.244011375E0,1.752444883E-1,1.078325055E-1,-7.427133322E-3,2.058971643E-1
4.253954375E0,1.590032439E-1,7.927894352E-2,-6.445853591E-2,1.890028711E-1
4.263898375E0,9.776857945E-2,6.817295224E-2,-1.101849318E-2,1.196981777E-1
4.273842375E0,-4.044302537E-2,1.281877778E-2,-2.239366651E-2,4.797328074E-2
4.283785375E0,-1.506791842E-1,-5.977281483E-2,-3.212401807E-2,1.652542238E-1
4.293729375E0,-2.208715181E-1,-9.718622418E-2,-2.538744092E-2,2.426394688E-1
4.303673375E0,-1.993108788E-1,-8.522721550E-2,-7.194238722E-2,2.283948593E-1
4.313616375E0,-1.152743209E-1,-2.013346641E-2,4.406344771E-2,1.250404452E-1
4.323560375E0,-2.346762643E-2,1.042863702E-2,-8.631893635E-2,9.005800760E-2
4.333504375E0,1.032676300E-1,6.542288795E-2,1.187277138E-2,1.228223122E-1
4.343448375E0,1.701325418E-1,1.089593462E-1,-3.258770227E-2,2.046440306E-1
4.353391375E0,1.990748888E-1,1.355920888E-1,-3.848052621E-3,2.408958974E-1
4.363335375E0,1.343048790E-1,9.068514364E-2,-1.926482141E-2,1.631953711E-1
4.373279375E0,4.017822873E-2,2.737804326E-2,-1.926423669E-2,5.229682717E-2
4.383222375E0,-5.903849591E-2,-4.955972079E-3,-3.547505736E-3,5.935225737E-2
4.393166375E0,-1.441860705E-1,-5.001703244E-2,-4.980424404E-2,1.605359436E-1
4.403110375E0,-1.065702287E-1,-8.198646932E-2,8.517288208E-2,1.591647406E-1
4.413053375E0,7.682875916E-1,3.052958652E-1,3.215886748E-1,8.870685794E-1
4.422997375E0,4.534530722E-1,4.284654712E-1,2.571248764E-1,6.747707394E-1
4.432941375E0,-5.976487358E-1,-3.711838078E-2,-1.577175325E-1,6.192225817E-1
4.442884375E0,-5.213500267E-1,2.855177131E-3,-3.472626293E-1,6.264226497E-1
4.452828375E0,-1.147354360E-2,5.898061761E-2,1.456336766E-1,1.575421316E-1
4.462772375E0,2.488569865E-1,-5.573966586E-2,4.803651381E-1,5.438633799E-1
4.472715375E0,1.946216311E-1,-8.105262330E-2,4.810399067E-1,5.252109090E-1
4.482659375E0,7.034374933E-2,1.242119636E-1,9.792741358E-2,1.731087326E-1
4.492603375E0,2.800204167E-2,2.072836487E-1,-2.349037027E-1,3.145319935E-1
4.502546375E0,-2.844124979E-2,5.579663144E-1,1.932797134E-2,5.590249397E-1
4.512490375E0,-2.211219616E-1,7.436724217E-1,4.833191514E-1,9.140793154E-1
4.522434375E0,-4.339955485E-1,3.208353707E-1,8.940269941E-1,1.044304428E0
4.532377375E0,-5.013933701E-1,-2.115320163E-1,7.318299097E-1,9.119847160E-1
4.542321375E0,-6.762930554E-1,-4.480221418E-1,4.808861250E-1,9.430522793E-1
4.552265375E0,-9.024368982E-1,-5.737654911E-1,6.429615873E-1,1.247797578E0
4.562209375E0,-8.004830188E-1,-7.094975659E-1,8.348566800E-1,1.356888181E0
4.572152375E0,-6.624126425E-1,-7.831189080E-1,9.672885132E-1,1.409862689E0
4.582096375E0,-5.849448192E-1,-6.967281970E-1,1.139298980E0,1.457941284E0
4.592039375E0,-6.077970902E-1,-3.819342061E-1,1.278728176E0,1.466436766E0
4.601983375E0,-8.086162765E-1,-3.151310829E-1,1.479147924E0,1.714947948E0
4.611927375E0,-8.139230633E-1,-3.342884252E-1,1.629866340E0,1.852210514E0
4.621871375E0,-8.679905853E-1,-2.772053844E-1,1.745468717E0,1.968987436E0
4.631814375E0,-8.363485971E-1,-1.655154524E-1,1.773168147E0,1.967485608E0
4.641758375E0,-7.626709756E-1,-1.135431339E-1,1.850378290E0,2.004609408E0
4.651702375E0,-8.380543030E-1,-9.728400059E-2,1.972096855E0,2.144986060E0
4.661645375E0,-9.601698936E-1,-1.769241741E-1,2.047546402E0,2.268407957E0
4.671588375E0,-9.401027611E-1,-2.098640250E-1,2.026524493E0,2.243799819E0
4.681532375E0,-7.919108545E-1,-1.605572328E-1,2.074749404E0,2.226541379E0
4.691475375E0,-6.260735129E-1,-1.108737338E-1,2.245040204E0,2.333338069E0
4.701419375E0,-3.890557128E-1,-7.630265594E-2,2.349669111E0,2.382882997E0
4.711363375E0,-3.198656465E-1,-1.630355752E-1,2.397138562E0,2.423874567E0
4.721306375E0,-3.977606454E-1,-2.539191404E-1,2.367748702E0,2.414316130E0
4.731250375E0,-5.791424444E-1,-3.145281619E-1,2.310468208E0,2.402622999E0
4.741194375E0,-7.845018476E-1,-3.964770354E-1,2.136614699E0,2.310359185E0
4.751137375E0,-8.302954133E-1,-4.245825545E-1,1.907023192E0,2.122827896E0
4.761081375E0,-7.718415293E-1,-4.367191815E-1,1.788474988E0,1.996272970E0
4.771025375E0,-6.297837905E-1,-3.945961323E-1,1.838518968E0,1.983049602E0
4.780968375E0,-4.148495717E-1,-3.723094699E-1,1.853070349E0,1.935092821E0
4.790912375E0,-2.759345651E-1,-3.387973228E-1,1.858935106E0,1.909597664E0
4.800856375E0,-2.468057102E-1,-3.812063009E-1,1.716719127E0,1.775769090E0
4.810799375E0,-1.484203134E-1,-4.632731420E-1,1.628384070E0,1.699495594E0
4.820743375E0,-1.262495720E-1,-4.232974827E-1,1.630527660E0,1.689301679E0
4.830687375E0,-2.034608853E-1,-5.063563040E-1,1.595516286E0,1.686257768E0
4.840631375E0,-5.817906484E-2,-4.177899903E-1,1.518606690E0,1.576102648E0
4.850574375E0,3.766615525E-2,-5.477139527E-1,1.295539505E0,1.407065003E0
4.860518375E0,9.930165544E-2,-9.240965930E-1,9.068820977E-1,1.298557073E0
4.870462375E0,1.567454329E-1,-1.030715308E0,6.949550289E-1,1.252958766E0
4.880405375E0,2.960851666E-1,-8.700048780E-1,7.999552345E-1,1.218401941E0
4.890349375E0,5.334268659E-1,-7.791373926E-1,1.054520200E0,1.415490074E0
4.900293375E0,6.692907223E-1,-8.046903098E-1,1.047374318E0,1.480698999E0
4.910236375E0,5.729885423E-1,-1.004479144E0,8.131026989E-1,1.413658452E0
4.920180375E0,7.017049085E-1,-1.245034765E0,6.171432066E-1,1.556716764E0
4.930124375E0,1.077192194E0,-1.202210927E0,5.709390932E-1,1.712199049E0
4.940067375E0,1.327615576E0,-1.183644848E0,7.756466049E-1,1.940413848E0
4.950011375E0,1.717330453E0,-1.276626102E0,8.089102453E-1,2.287648110E0
4.959955375E0,1.864587024E0,-1.419846632E0,6.082811666E-1,2.421292054E0
4.969898375E0,1.877004172E0,-1.639305500E0,3.986298341E-1,2.523761662E0
4.979842375E0,1.979058550E0,-1.775369039E0,2.999142158E-1,2.675547889E0
4.989786375E0,2.178638054E0,-1.710626913E0,4.079046875E-1,2.799838288E0
4.999729375E0,2.426122333E0,-1.661544800E0,5.524718320E-1,2.991993620E0
5.009673375E0,2.583339052E0,-1.832762384E0,4.918619335E-1,3.205399628E0
5.019617375E0,2.536529459E0,-2.064973444E0,2.570763445E-1,3.280881782E0
5.029560375E0,2.464220451E0,-2.234878913E0,-1.305040061E-2,3.326745632E0
5.039504375E0,2.408687105E0,-2.451034688E0,-3.170184910E-1,3.451064377E0
5.049448375E0,2.337736991E0,-2.676151906E0,-5.089486670E-1,3.589684109E0
5.059391375E0,2.601818007E0,-2.845527617E0,-7.866458023E-1,3.935136081E0
5.069335375E0,2.756027795E0,-2.953868337E0,-8.688471293E-1,4.132302348E0
5.079279375E0,2.546958553E0,-2.943774288E0,-8.118192351E-1,3.976412378E0
5.089222375E0,2.468488919E0,-3.058820010E0,-8.667374539E-1,4.025052945E0
5.099166375E0,2.333355672E0,-3.250113425E0,-1.040961969E0,4.134173168E0
5.109110375E0,2.053104765E0,-3.429820581E0,-1.260427268E0,4.191370336E0
5.119054375E0,1.803575130E0,-3.619187922E0,-1.446042159E0,4.294466485E0
5.128997375E0,1.670761766E0,-3.661104273E0,-1.627654923E0,4.341012545E0
5.138941375E0,1.560636768E0,-3.655324300E0,-1.642619702E0,4.300602556E0
5.148885375E0,1.262214323E0,-3.638276158E0,-1.514775886E0,4.138210288E0
5.158828375E0,9.265720117E-1,-3.703981905E0,-1.411631587E0,4.070715095E0
5.168772375E0,8.012848914E-1,-3.934182692E0,-1.408315923E0,4.254786090E0
5.178716375E0,6.732120113E-1,-4.191726814E0,-1.381463462E0,4.464552541E0
5.188659375E0,4.807409678E-1,-4.253443590E0,-1.452853288E0,4.520362478E0
5.198603375E0,2.377407718E-1,-4.240355183E0,-1.535430883E0,4.516047027E0
5.208547375E0,-6.020278618E-2,-4.216112627E0,-1.515581633E0,4.480649255E0
5.218490375E0,-4.054052952E-1,-4.169587501E0,-1.359930214E0,4.404454969E0
5.228434375E0,-7.297804606E-1,-4.170889091E0,-1.254191505E0,4.416094617E0
5.238378375E0,-1.032699561E0,-4.149402913E0,-1.403454548E0,4.500410824E0
5.248321375E0,-1.359356309E0,-3.969967067E0,-1.535294789E0,4.468290297E0
5.258265375E0,-1.489397801E0,-3.653199422E0,-1.503284207E0,4.221852109E0
5.268209375E0,-1.487274384E0,-3.378138796E0,-1.471008892E0,3.973370607E0
5.278152375E0,-1.600935194E0,-3.283058392E0,-1.553425105E0,3.969205897E0
5.288096375E0,-1.814472293E0,-3.120896975E0,-1.481959412E0,3.902372526E0
5.298040375E0,-1.998757235E0,-2.720576127E0,-1.347465558E0,3.634862910E0
5.307983375E0,-2.207860391E0,-2.256882570E0,-1.400609585E0,3.453964917E0
5.317927375E0,-2.350107945E0,-1.655608122E0,-1.383438359E0,3.190289532E0
5.327871375E0,-2.336048315E0,-1.054057685E0,-1.094864234E0,2.786913530E0
5.337814375E0,-2.292967784E0,-6.593314523E-1,-9.382899781E-1,2.563748682E0
5.347758375E0,-2.628541537E0,-1.783096719E-1,-8.030878803E-1,2.754264892E0
5.357702375E0,-3.212940628E0,4.753622603E-1,-7.287642145E-1,3.328671513E0
5.367646375E0,-3.750426924E0,1.144612345E0,-6.940259063E-1,3.982149104E0
5.377589375E0,-4.192194591E0,1.834606596E0,-5.785901749E-1,4.612487771E0
5.387533375E0,-4.414170685E0,2.500833085E0,-3.699305302E-1,5.086837677E0
5.397477375E0,-4.577915527E0,3.244380230E0,-1.914480731E-1,5.614264512E0
5.407420375E0,-4.762253094E0,3.691356597E0,2.185431933E-1,6.029339034E0
5.417364375E0,-5.024165086E0,3.958990674E0,6.753557467E-1,6.432102871E0
5.427308375E0,-5.230851880E0,4.245843964E0,1.097045099E0,6.825870663E0
5.437251375E0,-5.446646297E0,4.418565452E0,1.498081793E0,7.171744948E0
5.447195375E0,-5.547184492E0,4.417269709E0,1.756625496E0,7.305426792E0
5.457139375E0,-5.510569228E0,4.419657712E0,1.911786626E0,7.318106013E0
5.467082375E0,-5.562380821E0,4.382297512E0,1.914506312E0,7.335526314E0
5.477026375E0,-5.638834920E0,4.116290131E0,1.707280551E0,7.187148988E0
5.486970375E0,-5.566618883E0,3.725752843E0,1.429274537E0,6.849182852E0
5.496913375E0,-5.312845046E0,3.340530674E0,1.219053101E0,6.393086745E0
5.506857375E0,-5.065252301E0,2.844851679E0,1.208535714E0,5.933845339E0
5.516801375E0,-4.867914619E0,2.381938140E0,1.204008361E0,5.551563580E0
5.526744375E0,-4.712064980E0,2.087491071E0,1.087964519E0,5.267337292E0
5.536688375E0,-4.657007305E0,1.746807144E0,8.965711176E-1,5.053997626E0
5.546632375E0,-4.641070426E0,1.369643608E0,8.240587731E-1,4.908618052E0
5.556575375E0,-4.510556772E0,9.103857493E-1,8.571551831E-1,4.680666578E0
5.566519375E0,-4.135360240E0,8.064070523E-2,8.874095540E-1,4.230272208E0
5.576463375E0,-3.797371294E0,-8.169601071E-1,8.361335658E-1,3.973231922E0
5.586406375E0,-3.657514959E0,-1.401177642E0,7.970468295E-1,3.996998638E0
5.596350375E0,-3.638725224E0,-1.827906271E0,7.427185947E-1,4.139226196E0
5.606294375E0,-3.596941021E0,-2.028518393E0,6.914800286E-1,4.187005638E0
5.616238375E0,-3.502680981E0,-2.476950132E0,6.523024412E-1,4.339303457E0
5.626181375E0,-3.247179584E0,-3.111069560E0,6.822257135E-1,4.548445997E0
5.636125375E0,-2.979747236E0,-3.451351783E0,8.297451172E-1,4.634565749E0
5.646069375E0,-2.850361802E0,-3.889638019E0,1.114906223E0,4.949430493E0
5.656012375E0,-2.912550741E0,-4.462621883E0,1.230485138E0,5.469190029E0
5.665956375E0,-3.117114996E0,-4.734358951E0,1.245917695E0,5.803694641E0
5.675900667E0,-3.206418936E0,-4.607303633E0,1.303814485E0,5.762664434E0
5.685843667E0,-3.227571239E0,-4.504104370E0,1.299826684E0,5.691548268E0
5.695787667E0,-3.067954531E0,-4.666199713E0,1.185022452E0,5.708768954E0
5.705731667E0,-2.711592172E0,-4.942402300E0,1.113551935E0,5.746309295E0
5.715674667E0,-2.144233621E0,-5.061648077E0,1.156947046E0,5.617521299E0
5.725618667E0,-1.634800805E0,-5.187542723E0,1.212627157E0,5.572579097E0
5.735562667E0,-1.433214537E0,-5.228165669E0,1.329758581E0,5.581762988E0
5.745505667E0,-1.240787348E0,-4.911325518E0,1.186357956E0,5.202702835E0
5.755449667E0,-1.121107707E0,-4.524110034E0,8.774898988E-1,4.742830654E0
5.765393667E0,-9.250780481E-1,-4.422486595E0,5.868172073E-1,4.556150954E0
5.775336667E0,-2.642672503E-1,-4.399679530E0,4.627591717E-1,4.431835195E0
5.785280667E0,6.703212941E-1,-4.327630724E0,6.372213757E-1,4.425355285E0
5.795224667E0,1.616589067E0,-4.083818203E0,9.372525358E-1,4.491032581E0
5.805167667E0,2.204059408E0,-3.709427417E0,9.819849781E-1,4.425158091E0
5.815111667E0,2.591111171E0,-3.485536945E0,8.290655977E-1,4.421557945E0
5.825055667E0,3.274808555E0,-3.202942767E0,6.605499389E-1,4.628124854E0
5.834998667E0,4.298979367E0,-2.601511613E0,6.189289463E-1,5.062821280E0
5.844942667E0,5.517551388E0,-2.123576578E0,7.698964530E-1,5.962020744E0
5.854886667E0,6.591835762E0,-1.851391028E0,8.767437210E-1,6.902798490E0
5.864829667E0,7.340933669E0,-1.531679310E0,8.493536818E-1,7.546969611E0
5.874773667E0,7.794122702E0,-1.107010070E0,8.056771736E-1,7.913465467E0
5.884717667E0,8.104994600E0,-6.471306521E-1,7.814153217E-1,8.168251065E0
5.894660667E0,8.547649875E0,-3.293859369E-1,8.055568671E-1,8.591841208E0
5.904604667E0,9.097596880E0,-2.476389384E-1,8.446482812E-1,9.140077940E0
5.914548667E0,9.418592647E0,-1.609206372E-1,1.011416280E0,9.474109235E0
5.924491667E0,9.500552484E0,6.970641196E-2,1.298202327E0,9.589092020E0
5.934435667E0,9.399265260E0,2.521524042E-1,1.609512620E0,9.539407693E0
5.944379667E0,9.166961229E0,1.892732012E-1,1.753785796E0,9.335136161E0
5.954322667E0,8.667420732E0,2.987634838E-2,1.874911453E0,8.867940443E0
5.964266667E0,7.953299115E0,-9.120779335E-2,2.018534711E0,8.205959302E0
5.974210667E0,7.320436254E0,-2.363310081E-1,2.030268903E0,7.600436245E0
5.984154667E0,6.721309488E0,-4.536772764E-1,1.958349466E0,7.015479808E0
5.994097667E0,5.924076717E0,-7.662244016E-1,1.946424655E0,6.282543571E0
6.004041667E0,5.067701699E0,-1.109956482E0,2.002646072E0,5.560952723E0
6.013985667E0,4.472901288E0,-1.377660141E0,2.051792650E0,5.110249160E0
6.023928667E0,4.183450080E0,-1.697348471E0,2.090137521E0,4.975029775E0
6.033872667E0,3.928289284E0,-2.155332806E0,2.112632929E0,4.953799965E0
6.043816667E0,3.374486040E0,-2.723320225E0,2.227192163E0,4.874834768E0
6.053759667E0,2.628044524E0,-3.095425919E0,2.278399154E0,4.656112364E0
6.063703667E0,1.846128534E0,-3.318375574E0,2.202032179E0,4.389618746E0
6.073647667E0,1.210501109E0,-3.629281386E0,2.087754781E0,4.358407546E0
6.083590667E0,7.821118712E-1,-3.927537916E0,1.919414027E0,4.440878660E0
6.093534667E0,3.671770763E-1,-4.203549299E0,1.842634238E0,4.604339980E0
6.103478667E0,-3.806186557E-2,-4.449354551E0,1.725111051E0,4.772233519E0
6.113421667E0,-3.888743395E-1,-4.758398024E0,1.506785374E0,5.006393629E0
6.123365667E0,-7.136593947E-1,-5.142225047E0,1.299023277E0,5.351565158E0
6.133309667E0,-9.872968081E-1,-5.423901213E0,1.233554342E0,5.649346481E0
6.143252667E0,-1.251188082E0,-5.522205772E0,1.147175764E0,5.777217361E0
6.153196667E0,-1.531060674E0,-5.522181798E0,1.095536664E0,5.834281377E0
6.163140667E0,-1.559348626E0,-5.603745779E0,1.036283319E0,5.908249996E0
6.173083667E0,-1.399992119E0,-5.751207295E0,9.611185312E-1,5.996675088E0
6.183027667E0,-1.331843990E0,-5.926295151E0,9.913931481E-1,6.154481538E0
6.192971667E0,-1.359042022E0,-6.028251881E0,1.074759167E0,6.272314025E0
6.202914667E0,-1.392652987E0,-5.966490666E0,1.138251670E0,6.231702020E0
6.212858667E0,-1.447112199E0,-5.871911952E0,1.133117815E0,6.152839968E0
6.222802667E0,-1.530166050E0,-5.809047368E0,9.845518327E-1,6.087346037E0
6.232745667E0,-1.625103344E0,-5.680354244E0,8.633495772E-1,5.970993025E0
6.242689667E0,-1.778014027E0,-5.395362123E0,8.865244317E-1,5.749538406E0
6.252633667E0,-2.031528101E0,-5.099531602E0,9.097578315E-1,5.564170046E0
6.262577667E0,-2.305269156E0,-4.891657823E0,8.940252399E-1,5.481045819E0
6.272520667E0,-2.451971119E0,-4.510466725E0,8.966962481E-1,5.211577171E0
6.282464667E0,-2.395033857E0,-3.867504553E0,9.094104338E-1,4.639052272E0
6.292408667E0,-2.626049746E0,-3.092754911E0,8.680179942E-1,4.149063201E0
6.302351667E0,-3.311173266E0,-2.274894333E0,7.348371327E-1,4.083992928E0
6.312295667E0,-3.804568632E0,-1.563171244E0,5.426759917E-1,4.148824417E0
6.322239667E0,-3.872701266E0,-8.010024709E-1,3.017806105E-1,3.966168377E0
6.332182667E0,-3.973578308E0,1.161093307E-1,3.286252141E-1,3.988834476E0
6.342126667E0,-4.203957435E0,1.086785136E0,4.576363530E-1,4.366210150E0
6.352070667E0,-4.464976265E0,1.976146637E0,4.916596198E-1,4.907432909E0
6.362013667E0,-4.826661928E0,2.821424809E0,4.360046518E-1,5.607780611E0
6.371957667E0,-5.267553683E0,3.685859630E0,1.253958055E-1,6.430272710E0
6.381901667E0,-5.600513438E0,4.447635469E0,-1.313138455E-1,7.152933340E0
6.391844667E0,-5.924388374E0,5.016257311E0,-1.208556618E-1,7.763750454E0
6.401788667E0,-6.310330920E0,5.520793669E0,6.626064777E-3,8.384478693E0
6.411732667E0,-6.743745255E0,6.097570038E0,1.686209817E-1,9.093233389E0
6.421675667E0,-7.189583169E0,6.570290526E0,3.996380402E-1,9.747745088E0
6.431619667E0,-7.442341930E0,6.804405439E0,6.415179098E-1,1.010445110E1
6.441563667E0,-7.446603380E0,6.744614736E0,9.418578029E-1,1.009102700E1
6.451506667E0,-7.376188286E0,6.480100148E0,1.267244975E0,9.899785926E0
6.461450667E0,-7.188935882E0,6.067479681E0,1.525053537E0,9.529999848E0
6.471394667E0,-6.864541129E0,5.615168899E0,1.465542038E0,8.988874242E0
6.481337667E0,-6.677492793E0,5.148616054E0,1.297495984E0,8.531157782E0
6.491281667E0,-6.493186802E0,4.609161294E0,1.012017959E0,8.026831443E0
6.501225667E0,-6.271660944E0,3.995455080E0,6.822303182E-1,7.467451406E0
6.511168667E0,-6.018353130E0,3.379210006E0,4.483352602E-1,6.916692791E0
6.521112667E0,-5.718478675E0,2.758629806E0,4.385306489E-1,6.364223903E0
6.531056667E0,-5.472823112E0,2.145054570E0,6.067298272E-1,5.909413931E0
6.540999667E0,-5.184547779E0,1.424654213E0,8.393227834E-1,5.441841419E0
6.550943667E0,-4.577399510E0,4.301235223E-1,1.107387215E0,4.729048421E0
6.560887667E0,-3.982932391E0,-4.890400672E-1,1.353354435E0,4.234911905E0
6.570831667E0,-3.978064291E0,-8.767338538E-1,1.499716675E0,4.340830319E0
6.580774667E0,-4.232935943E0,-1.167158623E0,1.437701690E0,4.620280522E0
6.590718667E0,-4.484339027E0,-1.624865216E0,1.195914645E0,4.917285360E0
6.600662667E0,-4.629684143E0,-2.241924223E0,1.040336609E0,5.248094868E0
6.610605667E0,-4.652914546E0,-2.911969528E0,9.851997042E-1,5.576719355E0
6.620549667E0,-4.577385769E0,-3.403704577E0,1.121569710E0,5.813396937E0
6.630493667E0,-4.469760456E0,-3.749634626E0,1.416751117E0,6.003807300E0
6.640436667E0,-4.362998192E0,-4.186220491E0,1.591581695E0,6.252465715E0
6.650380667E0,-4.295760182E0,-4.838748708E0,1.757190045E0,6.704831203E0
6.660324667E0,-4.147742888E0,-5.401314588E0,1.917959239E0,7.075064522E0
6.670267667E0,-4.128888541E0,-5.687971412E0,2.003188255E0,7.308454184E0
6.680211750E0,-4.367611645E0,-5.842547235E0,2.020816441E0,7.569351939E0
6.690155750E0,-4.715756035E0,-5.935360090E0,1.947328488E0,7.826809223E0
6.700098750E0,-4.864273266E0,-6.020380944E0,1.815513682E0,7.949983085E0
6.710042750E0,-4.576343796E0,-6.241592807E0,1.880436487E0,7.964699912E0
6.719986750E0,-3.842217684E0,-6.510924915E0,2.183365381E0,7.869044692E0
6.729929750E0,-3.088716239E0,-6.611185368E0,2.476365995E0,7.705863256E0
6.739873750E0,-2.578640814E0,-6.472396442E0,2.577031660E0,7.428485466E0
6.749817750E0,-2.217246634E0,-6.148579978E0,2.464704309E0,6.985412350E0
6.759760750E0,-1.727230082E0,-5.847123851E0,2.253573046E0,6.500059427E0
6.769704750E0,-9.556566471E-1,-5.523738912E0,2.028853877E0,5.961645683E0
6.779648750E0,3.315488219E-1,-5.060518979E0,1.841779375E0,5.395454404E0
6.789591750E0,2.059269485E0,-4.443326072E0,1.803303527E0,5.218777730E0
6.799535750E0,4.024068430E0,-3.749004881E0,2.101962930E0,5.887818992E0
6.809479750E0,6.133502932E0,-3.102475907E0,2.317982465E0,7.253844338E0
6.819422750E0,7.642749984E0,-2.535801188E0,2.144700814E0,8.333166059E0
6.829366750E0,8.228934522E0,-2.157172340E0,1.584590764E0,8.653304789E0
6.839310750E0,8.499106876E0,-1.808893465E0,9.436341870E-1,8.740558262E0
6.849253750E0,9.136605409E0,-1.370438245E0,4.434020009E-1,9.249446725E0
6.859197750E0,1.021089680E1,-9.682398552E-1,2.866299266E-1,1.026070459E1
6.869141750E0,1.141422571E1,-7.835339141E-1,4.814667169E-1,1.145121322E1
6.879084750E0,1.230423743E1,-6.218402749E-1,8.334609497E-1,1.234810111E1
6.889028750E0,1.272315067E1,-3.640125632E-1,1.205798779E0,1.278534390E1
6.898972750E0,1.266252439E1,-1.937656170E-1,1.641485342E0,1.276994688E1
6.908915750E0,1.223329667E1,-1.253257120E-1,2.006469712E0,1.239738580E1
6.918859750E0,1.160443915E1,-1.919915718E-1,1.938125117E0,1.176674117E1
6.928803750E0,1.073576860E1,-4.421664476E-1,1.696121725E0,1.087791651E1
6.938746750E0,9.573835053E0,-6.203240919E-1,1.578526032E0,9.722904095E0
6.948690750E0,8.290685213E0,-6.239002490E-1,1.677955011E0,8.481759595E0
6.958634750E0,7.107148538E0,-6.742833674E-1,1.872165016E0,7.380462062E0
6.968577750E0,6.025602508E0,-8.850228667E-1,2.006498948E0,6.412268638E0
6.978521750E0,5.118294733E0,-1.129639379E0,2.128760719E0,5.657265090E0
6.988465750E0,4.457869851E0,-1.336258346E0,2.243466718E0,5.166365540E0
6.998409750E0,3.933103881E0,-1.512987515E0,2.285346816E0,4.793876034E0
7.008352750E0,3.304456277E0,-1.799252576E0,2.277053125E0,4.397921333E0
7.018296750E0,2.555095831E0,-2.208008033E0,2.404884953E0,4.145755156E0
7.028240750E0,1.782355292E0,-2.549902334E0,2.566195600E0,4.032883851E0
7.038183750E0,1.097132369E0,-2.818390104E0,2.744500594E0,4.084030573E0
7.048127750E0,6.156515819E-1,-3.116764163E0,2.705401725E0,4.172822092E0
7.058071750E0,2.189636081E-1,-3.433068125E0,2.567678454E0,4.292653544E0
7.068014750E0,-1.327972841E-1,-3.746715696E0,2.407371628E0,4.455440694E0
7.077958750E0,-4.327512610E-1,-3.983481152E0,2.298884435E0,4.619552510E0
7.087902750E0,-7.270655984E-1,-4.136379409E0,2.177393181E0,4.730676492E0
7.097845750E0,-9.883735728E-1,-4.364923096E0,2.127860394E0,4.955524776E0
7.107789750E0,-1.257067458E0,-4.591005689E0,2.033455782E0,5.176146660E0
7.117733750E0,-1.504527764E0,-4.717596738E0,1.899616232E0,5.303570930E0
7.127676750E0,-1.579905390E0,-4.718635204E0,1.790182375E0,5.288324136E0
7.137620750E0,-1.595980848E0,-4.663241606E0,1.765234791E0,5.235363503E0
7.147564750E0,-1.549548108E0,-4.754466357E0,1.713835572E0,5.286140562E0
7.157507750E0,-1.458281258E0,-4.923925098E0,1.642466797E0,5.391597145E0
7.167451750E0,-1.382714182E0,-5.072096466E0,1.667109303E0,5.515189435E0
7.177395750E0,-1.333692588E0,-4.995036011E0,1.751366511E0,5.458608369E0
7.187338750E0,-1.266808334E0,-4.779094244E0,1.967919897E0,5.321395857E0
7.197282750E0,-1.192056068E0,-4.692798697E0,1.989711592E0,5.234721530E0
7.207226750E0,-1.203483135E0,-4.753994486E0,1.745739735E0,5.205424330E0
7.217169750E0,-1.295199636E0,-4.806417698E0,1.428317201E0,5.178733746E0
7.227113750E0,-1.271605975E0,-4.707283419E0,1.190302488E0,5.019195051E0
7.237057750E0,-1.076884338E0,-4.608809291E0,1.060132942E0,4.850225233E0
7.247000750E0,-8.997136306E-1,-4.556897711E0,9.985848579E-1,4.750997062E0
7.256944750E0,-7.666620657E-1,-4.634255204E0,1.019746516E0,4.806659441E0
7.266888750E0,-7.692325017E-1,-4.659453195E0,1.159178051E0,4.862706703E0
7.276831750E0,-8.160067186E-1,-4.477124732E0,1.187108738E0,4.703162764E0
7.286775750E0,-8.008588486E-1,-4.247367164E0,9.389647467E-1,4.423025833E0
7.296719750E0,-9.764594324E-1,-4.122967651E0,4.841516487E-1,4.264591199E0
7.306662750E0,-1.394952843E0,-4.216725415E0,1.661753838E-1,4.444578823E0
7.316606750E0,-1.769690369E0,-4.163339167E0,2.104858764E-1,4.528741693E0
7.326550750E0,-2.088841047E0,-3.524827310E0,3.535532100E-1,4.112500986E0
7.336493750E0,-2.435603593E0,-2.561810188E0,3.159728627E-1,3.548925916E0
7.346437750E0,-2.828630333E0,-1.783300202E0,2.517447071E-1,3.353309495E0
7.356381750E0,-3.262863278E0,-1.266992229E0,2.384669960E-1,3.508334732E0
7.366325750E0,-3.620570789E0,-7.590387583E-1,2.977612710E-1,3.711244326E0
7.376268750E0,-3.888314501E0,-1.260250390E-2,4.535966213E-1,3.914702847E0
7.386212750E0,-4.202714024E0,1.072395723E0,7.321228552E-1,4.398731821E0
7.396156750E0,-4.647583055E0,2.264700297E0,5.994670737E-1,5.204637976E0
7.406099750E0,-5.199664001E0,3.117831280E0,3.200964653E-1,6.071230465E0
7.416043750E0,-5.941623627E0,3.748147094E0,2.030299820E-1,7.027995385E0
7.425987750E0,-6.590162289E0,4.474963017E0,1.362003636E-1,7.967062415E0
7.435930750E0,-7.020026194E0,5.127810491E0,7.085370876E-2,8.693689001E0
7.445874750E0,-7.453504264E0,5.590610009E0,1.584689728E-1,9.318516969E0
7.455818750E0,-7.746521105E0,5.928302500E0,1.646996927E-1,9.756048675E0
7.465761750E0,-7.775857755E0,6.028747140E0,2.335635209E-1,9.841966664E0
7.475705750E0,-7.650457199E0,6.091719314E0,4.579106605E-1,9.790210504E0
7.485649750E0,-7.396700903E0,6.204157178E0,6.786430514E-1,9.677980519E0
7.495592750E0,-7.114608416E0,6.131572182E0,8.127646568E-1,9.427322882E0
7.505536750E0,-6.694771900E0,5.691532366E0,7.916673180E-1,8.822712089E0
7.515480750E0,-6.216136369E0,5.052663245E0,6.929196862E-1,8.040515836E0
7.525423750E0,-5.724894825E0,4.362657884E0,5.465064295E-1,7.218439849E0
7.535367750E0,-5.180474024E0,3.774939621E0,2.968128526E-1,6.416819939E0
7.545311750E0,-4.704221525E0,3.129488289E0,5.515795469E-2,5.650348618E0
7.555254750E0,-4.324718810E0,2.462502832E0,-6.469593287E-2,4.977077310E0
7.565198750E0,-4.035792390E0,1.896289458E0,-8.576695919E-3,4.459103888E0
7.575142750E0,-3.855931159E0,1.472059345E0,8.933960795E-2,4.128334456E0
7.585085750E0,-3.827705187E0,1.167831053E0,1.203988663E-1,4.003704817E0
7.595029750E0,-3.838165856E0,8.025221622E-1,1.853169386E-1,3.925544717E0
7.604973750E0,-3.658049980E0,2.947517091E-1,3.103877119E-1,3.683008112E0
7.614916750E0,-3.303751980E0,-1.501717007E-1,4.671925672E-1,3.339999638E0
7.624860750E0,-3.097071326E0,-4.132712620E-1,5.762127701E-1,3.177210268E0
7.634804750E0,-3.116680256E0,-5.760653472E-1,7.040467914E-1,3.246725887E0
7.644747750E0,-3.213994881E0,-7.770867741E-1,8.082115030E-1,3.403943711E0
7.654691750E0,-3.258645097E0,-9.846161520E-1,9.163395305E-1,3.525324804E0
7.664635750E0,-3.247447094E0,-1.178762423E0,1.080097675E0,3.619669110E0
7.674579375E0,-3.213572712E0,-1.431386697E0,1.259305480E0,3.736544894E0
7.684523375E0,-3.140265293E0,-1.780331571E0,1.455811979E0,3.892330295E0
7.694467375E0,-3.058363343E0,-2.192462626E0,1.513208248E0,4.055894217E0
7.704411375E0,-3.088879669E0,-2.613115413E0,1.541248717E0,4.329549327E0
7.714354375E0,-3.175093648E0,-2.997817179E0,1.545830741E0,4.632247855E0
7.724298375E0,-3.374425229E0,-3.291303551E0,1.550396393E0,4.962172273E0
7.734242375E0,-3.496229163E0,-3.625749668E0,1.605100458E0,5.286400145E0
7.744185375E0,-3.599438952E0,-3.928722562E0,1.649784734E0,5.577867998E0
7.754129375E0,-3.752086948E0,-4.086375775E0,1.784344515E0,5.827564568E0
7.764073375E0,-3.780220534E0,-4.215178242E0,1.826890025E0,5.949396781E0
7.774016375E0,-3.737924407E0,-4.561321714E0,1.872927347E0,6.187535171E0
7.783960375E0,-3.732708691E0,-4.934851205E0,1.926083361E0,6.480406446E0
7.793904375E0,-3.811944018E0,-5.064485146E0,1.930533092E0,6.626227057E0
7.803847375E0,-3.940967216E0,-5.072498755E0,1.948121663E0,6.712424617E0
7.813791375E0,-3.849261825E0,-5.187625169E0,2.040754423E0,6.774433563E0
7.823735375E0,-3.328409396E0,-5.281195822E0,2.387425314E0,6.683497441E0
7.833678375E0,-2.497138229E0,-5.402207458E0,2.822465029E0,6.586793878E0
7.843622375E0,-1.730511831E0,-5.585075619E0,3.227839626E0,6.678823963E0
7.853566375E0,-1.256093604E0,-5.567683661E0,3.422363627E0,6.655031577E0
7.863509375E0,-1.056034629E0,-5.341135045E0,3.112903247E0,6.271610585E0
7.873453375E0,-7.722727615E-1,-5.031239047E0,2.654148248E0,5.740581372E0
7.883397375E0,-5.229632735E-2,-4.722542898E0,2.233217572E0,5.224213535E0
7.893340375E0,9.021055073E-1,-4.412693093E0,2.077047798E0,4.959816754E0
7.903284375E0,2.217529054E0,-4.097283171E0,2.126216011E0,5.121128686E0
7.913228375E0,3.672003483E0,-3.766157688E0,2.227473414E0,5.712196698E0
7.923171375E0,5.117542781E0,-3.340789706E0,2.219743395E0,6.502105867E0
7.933115375E0,6.175356132E0,-2.852712091E0,1.950219498E0,7.076464211E0
7.943059375E0,6.626447185E0,-2.425764776E0,1.372657263E0,7.188763803E0
7.953002375E0,6.686869973E0,-2.073340809E0,7.805026444E-1,7.044299577E0
7.962946375E0,6.782363191E0,-1.710441556E0,3.189152912E-1,7.001983128E0
7.972890375E0,7.367166032E0,-1.446536248E0,6.814816553E-2,7.508145353E0
7.982833375E0,8.261831542E0,-1.199781994E0,1.541021991E-1,8.349915254E0
7.992777375E0,9.084365800E0,-9.097986889E-1,3.967137015E-1,9.138425324E0
8.002721375E0,9.637521756E0,-5.716045064E-1,8.586893463E-1,9.692569562E0
8.012664375E0,9.956500819E0,-1.839054573E-1,1.365654638E0,1.005140499E1
8.022608375E0,1.002734568E1,1.365003258E-1,1.563856537E0,1.014947984E1
8.032552375E0,9.849819539E0,1.752545017E-1,1.504324865E0,9.965573360E0
8.042495375E0,9.391042905E0,-3.712981939E-2,1.389548700E0,9.493361421E0
8.052439375E0,8.719395463E0,-1.760011911E-1,1.286299735E0,8.815520442E0
8.062383375E0,8.025903992E0,-1.952777070E-1,1.173882337E0,8.113647023E0
8.072326375E0,7.283363737E0,-2.686702037E-1,1.108344405E0,7.372109490E0
8.082270375E0,6.515702675E0,-5.387501711E-1,1.153053385E0,6.638837640E0
8.092214375E0,5.887864911E0,-8.353881919E-1,1.139486602E0,6.055019105E0
8.102157375E0,5.383379424E0,-1.064075720E0,1.187875893E0,5.614630913E0
8.112101375E0,4.909509957E0,-1.233777121E0,1.342516036E0,5.237159852E0
8.122045375E0,4.355402659E0,-1.377610440E0,1.584838686E0,4.835189397E0
8.131988375E0,3.922073693E0,-1.628132055E0,1.775365530E0,4.602759912E0
8.141932375E0,3.492643066E0,-1.909330503E0,1.923816980E0,4.420992008E0
8.151876375E0,3.125348461E0,-2.223872699E0,2.020671576E0,4.335496096E0
8.161819375E0,2.816765748E0,-2.574237276E0,2.100366640E0,4.355732642E0
8.171763375E0,2.352550035E0,-2.807430668E0,2.174159671E0,4.259475190E0
8.181707375E0,1.813520951E0,-3.052743584E0,2.226668837E0,4.191199797E0
8.191650375E0,1.298704019E0,-3.487087626E0,2.179269991E0,4.312265059E0
8.201594375E0,9.032790434E-1,-3.998673388E0,2.137141972E0,4.623059344E0
8.211538375E0,6.103458184E-1,-4.338473216E0,2.129162715E0,4.871160614E0
8.221481375E0,2.117031205E-1,-4.453890821E0,2.037017906E0,4.902183555E0
8.231425375E0,-2.328846592E-1,-4.562855439E0,1.822350393E0,4.918825670E0
8.241369375E0,-7.115725234E-1,-4.813584630E0,1.813628540E0,5.192897162E0
8.251312375E0,-1.044423813E0,-5.061168020E0,1.865057287E0,5.494058747E0
8.261256375E0,-1.205922740E0,-5.231899116E0,1.870920728E0,5.685715644E0
8.271200375E0,-1.326407834E0,-5.441184413E0,1.886625326E0,5.909754705E0
8.281143375E0,-1.445540468E0,-5.584780335E0,1.966440990E0,6.094772251E0
8.291087375E0,-1.646172762E0,-5.566016620E0,2.056646716E0,6.157939712E0
8.301031375E0,-1.917058184E0,-5.463701456E0,2.127322012E0,6.168682567E0
8.310975375E0,-2.081121699E0,-5.372518805E0,2.038519471E0,6.111512699E0
8.320918375E0,-2.200408407E0,-5.328979268E0,1.907672818E0,6.072810945E0
8.330862375E0,-2.287487481E0,-5.333638330E0,1.794409912E0,6.074553789E0
8.340806375E0,-2.305160837E0,-5.263006303E0,1.739829369E0,6.003333080E0
8.350749375E0,-2.287046016E0,-5.084660379E0,1.748233280E0,5.843001818E0
8.360693375E0,-2.207468043E0,-4.939452964E0,1.700047253E0,5.671090848E0
8.370637375E0,-2.088174026E0,-4.878508605E0,1.577328230E0,5.536088991E0
8.380580375E0,-2.148633066E0,-4.722568041E0,1.491264524E0,5.398438926E0
8.390524375E0,-2.285965743E0,-4.349413941E0,1.337310845E0,5.092292343E0
8.400468375E0,-2.397458697E0,-3.943649919E0,1.150699296E0,4.756499948E0
8.410411375E0,-2.574280253E0,-3.561089988E0,9.483634150E-1,4.495294639E0
8.420355375E0,-2.770373646E0,-3.111560726E0,7.651083143E-1,4.235819994E0
8.430299375E0,-2.870622112E0,-2.553572046E0,6.217063737E-1,3.892007235E0
8.440242375E0,-2.896928151E0,-1.993887674E0,5.380009966E-1,3.557699515E0
8.450186375E0,-3.033732532E0,-1.510627579E0,3.368768779E-1,3.405732636E0
8.460130375E0,-3.334838410E0,-9.819638550E-1,1.060836216E-1,3.478024435E0
8.470073375E0,-3.669506137E0,-2.686245954E-1,-1.786184780E-1,3.683658375E0
8.480017375E0,-4.064295227E0,6.083419776E-1,-3.830195590E-1,4.127381693E0
8.489961375E0,-4.343000422E0,1.679730810E0,-4.839249229E-1,4.681594984E0
8.499904375E0,-4.416660722E0,2.683076178E0,-4.071907425E-1,5.183781825E0
8.509848375E0,-4.486657740E0,3.534443641E0,-1.853649223E-1,5.714608446E0
8.519792375E0,-4.618102563E0,4.431760279E0,-1.449138844E-1,6.402216061E0
8.529735375E0,-4.926679137E0,5.224525777E0,-1.748902019E-1,7.183204264E0
8.539679375E0,-5.414455036E0,5.905420591E0,-1.378843800E-1,8.013072307E0
8.549623375E0,-5.876152353E0,6.399983354E0,-1.317447488E-1,8.689436695E0
8.559566375E0,-6.276400112E0,6.763680167E0,-1.382866502E-1,9.228200852E0
8.569510375E0,-6.498945140E0,6.983629031E0,-9.337594092E-2,9.540234873E0
8.579454375E0,-6.563689020E0,6.993154145E0,1.194223996E-1,9.591688077E0
8.589397375E0,-6.437462837E0,6.818255739E0,4.150441378E-1,9.386255949E0
8.599341375E0,-6.112892082E0,6.494964355E0,6.508828104E-1,8.942911160E0
8.609285375E0,-5.753767791E0,5.947497740E0,8.379176974E-1,8.317492364E0
8.619228375E0,-5.433797625E0,5.243650850E0,8.287469244E-1,7.596634277E0
8.629172375E0,-5.185433047E0,4.596154747E0,6.719187534E-1,6.961668561E0
8.639116375E0,-4.872216708E0,3.945671301E0,4.046226454E-1,6.282558170E0
8.649059375E0,-4.687677705E0,3.311739569E0,8.684639174E-2,5.740164069E0
8.659003375E0,-4.541357273E0,2.598395047E0,-1.959004354E-1,5.235834192E0
8.668947375E0,-4.357284001E0,1.898344170E0,-2.889636234E-1,4.761631488E0
8.678895500E0,-4.088532813E0,1.261352590E0,-1.893001715E-1,4.282866502E0
8.688838500E0,-3.678463486E0,6.454829067E-1,-5.084811822E-3,3.734671024E0
8.698782500E0,-3.319656115E0,7.897834182E-2,1.531128502E-1,3.324123620E0
8.708726500E0,-3.127035382E0,-3.508925807E-1,2.908196758E-1,3.160071513E0
8.718669500E0,-3.016648722E0,-5.858266890E-1,4.123457940E-1,3.100546964E0
8.728613500E0,-3.052606467E0,-7.348336244E-1,4.928173685E-1,3.178247261E0
8.738557500E0,-3.057438898E0,-1.060180889E0,6.137249243E-1,3.293717416E0
8.748500500E0,-2.951209023E0,-1.326239727E0,6.762889624E-1,3.305436926E0
8.758444500E0,-2.758598523E0,-1.521708053E0,7.005549073E-1,3.227419773E0
8.768388500E0,-2.490117770E0,-1.793557972E0,8.175764036E-1,3.175841287E0
8.778331500E0,-2.116752293E0,-2.129540738E0,1.024890750E0,3.172693662E0
8.788275500E0,-1.837176447E0,-2.436213750E0,1.280980085E0,3.309269513E0
8.798219500E0,-1.840164959E0,-2.598459951E0,1.447021860E0,3.497438128E0
8.808162500E0,-1.996694337E0,-2.596396469E0,1.362146308E0,3.547323705E0
8.818106500E0,-2.272920021E0,-2.668404930E0,1.159429920E0,3.691995128E0
8.828050500E0,-2.558441023E0,-2.890409675E0,1.028740703E0,3.994796113E0
8.837993500E0,-2.781539489E0,-3.074069549E0,9.295365500E-1,4.248635513E0
8.847937500E0,-2.796332068E0,-3.045313527E0,8.518345092E-1,4.221259237E0
8.857881500E0,-2.719713370E0,-2.939140955E0,9.858711107E-1,4.123994691E0
8.867824500E0,-2.605013803E0,-2.998096091E0,1.248625102E0,4.163381045E0
8.877768500E0,-2.253879440E0,-3.268781245E0,1.566169696E0,4.268230415E0
8.887712500E0,-1.887119562E0,-3.533606905E0,1.936904218E0,4.449628743E0
8.897655500E0,-1.913165984E0,-3.636268224E0,2.108572623E0,4.618303713E0
8.907599500E0,-2.200070730E0,-3.573742193E0,1.989126432E0,4.644197287E0
8.917543500E0,-2.647837641E0,-3.492813220E0,1.665409809E0,4.688750174E0
8.927486500E0,-3.116055188E0,-3.541529297E0,1.350180566E0,4.906650310E0
8.937430500E0,-3.402139862E0,-3.642249341E0,1.144004234E0,5.113636826E0
8.947374500E0,-3.479618978E0,-3.678144228E0,1.195563812E0,5.202486523E0
8.957318500E0,-3.357544318E0,-3.596169773E0,1.321230125E0,5.094231044E0
8.967261500E0,-3.018292374E0,-3.714905089E0,1.585020096E0,5.042112392E0
8.977205500E0,-2.544376130E0,-4.005339798E0,1.999440336E0,5.149209497E0
8.987149500E0,-2.189821438E0,-4.109307386E0,2.405939791E0,5.241208964E0
8.997092500E0,-2.110215105E0,-4.076747750E0,2.667877511E0,5.309467998E0
9.007036500E0,-2.104015887E0,-3.863884542E0,2.263371664E0,4.947659840E0
9.016980500E0,-2.207323909E0,-3.631690439E0,1.848307060E0,4.634403227E0
9.026923500E0,-2.034245741E0,-3.555519930E0,1.676083171E0,4.425961195E0
9.036867500E0,-1.343707114E0,-3.524878766E0,1.645829823E0,4.115710744E0
9.046811500E0,-3.486870110E-1,-3.454765972E0,1.806838899E0,3.914288871E0
9.056754500E0,6.958192474E-1,-3.187167563E0,2.201289728E0,3.935464137E0
9.066698500E0,1.697761869E0,-2.665484830E0,2.481612117E0,4.018159211E0
9.076642500E0,2.593124952E0,-2.311688522E0,2.368550355E0,4.204548920E0
9.086585500E0,3.301982321E0,-2.182049904E0,2.165156128E0,4.511355682E0
9.096529500E0,4.169983943E0,-2.030822781E0,1.975674766E0,5.041457927E0
9.106473500E0,5.348696079E0,-1.852126316E0,1.809765869E0,5.942573023E0
9.116416500E0,6.628326480E0,-1.755702221E0,1.604221036E0,7.042068400E0
9.126360500E0,7.601420109E0,-1.713327449E0,1.372348530E0,7.912042664E0
9.136304500E0,8.258553593E0,-1.699689403E0,9.577517045E-1,8.485867065E0
9.146247500E0,8.675282314E0,-1.777785693E0,5.361920142E-1,8.871783759E0
9.156191500E0,9.112094466E0,-1.862432910E0,2.917924333E-1,9.305055869E0
9.166135500E0,9.591261510E0,-1.912116117E0,2.778164184E-1,9.783949476E0
9.176078500E0,1.007425439E1,-1.995909348E0,4.603635675E-1,1.028037889E1
9.186022500E0,1.035876119E1,-2.033291768E0,5.657871115E-1,1.057158095E1
9.195966500E0,1.027513899E1,-2.014901397E0,6.118339348E-1,1.048869151E1
9.205909500E0,9.838181241E0,-1.945954831E0,5.689294052E-1,1.004491070E1
9.215853500E0,9.161585299E0,-1.818303681E0,4.761574817E-1,9.352411423E0
9.225797500E0,8.424847237E0,-1.794452889E0,4.275343752E-1,8.624436085E0
9.235740500E0,7.586926616E0,-1.826593864E0,4.870602000E-1,7.818895591E0
9.245684500E0,6.733928949E0,-1.860398956E0,6.656984854E-1,7.017837120E0
9.255628500E0,5.953611588E0,-1.883894531E0,9.274794996E-1,6.313063264E0
9.265572500E0,5.279743958E0,-1.877003587E0,1.265066156E0,5.744495723E0
9.275515500E0,4.649698870E0,-1.978367409E0,1.497804050E0,5.270394118E0
9.285459500E0,3.979696249E0,-2.185515549E0,1.713407264E0,4.852857396E0
9.295403500E0,3.285082698E0,-2.384743634E0,1.877412307E0,4.472521381E0
9.305346500E0,2.621786249E0,-2.500355367E0,1.969159945E0,4.123485296E0
9.315290500E0,2.096703359E0,-2.696756324E0,1.987000823E0,3.951813751E0
9.325234500E0,1.741100262E0,-2.948233960E0,2.039445670E0,3.985329628E0
9.335177500E0,1.453945255E0,-3.171906915E0,2.060073331E0,4.052018314E0
9.345121500E0,1.071331530E0,-3.414523095E0,2.029749963E0,4.114195441E0
9.355065500E0,5.112711811E-1,-3.687755882E0,2.197601159E0,4.323238660E0
9.365008500E0,-5.236064672E-2,-3.958439282E0,2.370561944E0,4.614276445E0
9.374952500E0,-6.304818749E-1,-4.156873900E0,2.439729827E0,4.861007061E0
9.384896500E0,-1.055093812E0,-4.339745570E0,2.506946933E0,5.121659642E0
9.394839500E0,-1.319765105E0,-4.471251204E0,2.363289323E0,5.226758430E0
9.404783500E0,-1.587567582E0,-4.619669909E0,2.048200998E0,5.296871551E0
9.414727500E0,-1.880936424E0,-4.790379370E0,1.843270415E0,5.466562189E0
9.424670500E0,-2.117124760E0,-4.856902558E0,1.743939962E0,5.577906982E0
9.434614500E0,-2.273283425E0,-4.818026175E0,1.731944984E0,5.601859261E0
9.444558500E0,-2.321336428E0,-4.751422881E0,1.781924937E0,5.580311701E0
9.454501500E0,-2.293736401E0,-4.679533703E0,1.897599527E0,5.546183041E0
9.464445500E0,-2.125834480E0,-4.655602219E0,2.042659446E0,5.510559125E0
9.474389500E0,-1.877421078E0,-4.671001446E0,2.191193487E0,5.490381891E0
9.484333500E0,-1.637638751E0,-4.752155537E0,2.283824201E0,5.520932521E0
9.494276500E0,-1.487049267E0,-4.846889786E0,2.365978750E0,5.594775381E0
9.504220500E0,-1.350163902E0,-4.901532016E0,2.368623738E0,5.608773224E0
9.514164500E0,-1.246321445E0,-5.016272514E0,2.265920903E0,5.643642850E0
9.524107500E0,-1.162565051E0,-5.157554108E0,2.207580017E0,5.729339526E0
9.534051500E0,-1.069790204E0,-5.285271916E0,2.096739466E0,5.785746857E0
9.543995500E0,-1.050526186E0,-5.272809160E0,1.978691199E0,5.728991235E0
9.553938500E0,-1.100184908E0,-5.235105729E0,1.998000605E0,5.710406749E0
9.563882500E0,-1.297749753E0,-5.058423922E0,1.995754982E0,5.590603272E0
9.573826500E0,-1.740932739E0,-4.599871237E0,1.821158584E0,5.244643057E0
9.583769500E0,-2.294008588E0,-4.040533020E0,1.430100310E0,4.861436967E0
9.593713500E0,-3.008695339E0,-3.655685073E0,9.119412549E-1,4.821609467E0
9.603657500E0,-3.736563175E0,-3.135441924E0,5.434918244E-1,4.907981641E0
9.613600500E0,-4.155193411E0,-2.220045111E0,4.542842174E-1,4.732927923E0
9.623544500E0,-4.408647990E0,-1.067364779E0,6.672725558E-1,4.584833403E0
9.633488500E0,-4.775534459E0,1.005896509E-1,8.875582194E-1,4.858354376E0
9.643431500E0,-5.298997670E0,1.229170099E0,1.001951977E0,5.531197267E0
9.653375500E0,-5.737293845E0,2.228100820E0,9.639836669E-1,6.229786388E0
9.663319500E0,-6.055961251E0,3.177296294E0,7.109980345E-1,6.875710627E0
9.673258375E0,-6.418786830E0,4.213947403E0,4.236296046E-1,7.690100072E0
9.683201375E0,-6.850964479E0,4.998214558E0,1.021719074E-1,8.481055486E0
9.693145375E0,-7.342320628E0,5.482780920E0,-2.392271340E-1,9.166667249E0
9.703089375E0,-7.773545766E0,5.807244671E0,-5.421573436E-1,9.718335198E0
9.713032375E0,-8.077968185E0,5.987408495E0,-7.568939996E-1,1.008342794E1
9.722976375E0,-8.177833366E0,6.075203853E0,-8.993941534E-1,1.022711935E1
9.732920375E0,-8.078046538E0,6.064038010E0,-9.265456992E-1,1.014326771E1
9.742863375E0,-7.781230177E0,5.809343821E0,-9.381068140E-1,9.755822010E0
9.752807375E0,-7.271952896E0,5.429677677E0,-8.704141831E-1,9.117034576E0
9.762751375E0,-6.556965891E0,4.979611641E0,-7.076791549E-1,8.263845569E0
9.772694375E0,-5.877769693E0,4.558912661E0,-5.811454082E-1,7.461205747E0
9.782638375E0,-5.228013057E0,4.169780459E0,-4.830186045E-1,6.704662301E0
9.792582375E0,-4.727296100E0,3.680534570E0,-4.044554150E-1,6.004768715E0
9.802525375E0,-4.398643988E0,3.222599936E0,-3.192696691E-1,5.462156388E0
9.812469375E0,-4.151421664E0,2.766374443E0,-2.453900993E-1,4.994731794E0
9.822413375E0,-3.869590547E0,2.279189698E0,-1.770724010E-1,4.494417795E0
9.832357375E0,-3.705137607E0,1.825684329E0,4.182981133E-2,4.130728470E0
9.842300375E0,-3.588661364E0,1.512176507E0,3.305349147E-1,3.908250440E0
9.852244375E0,-3.478816155E0,1.141042035E0,5.291472888E-1,3.699207431E0
9.862188375E0,-3.403388827E0,6.149101549E-1,6.411776018E-1,3.517425014E0
9.872131375E0,-3.329822668E0,6.147645593E-2,7.546230141E-1,3.414813941E0
9.882075375E0,-3.216432585E0,-3.446115017E-1,8.882282373E-1,3.354570772E0
9.892019375E0,-3.159521051E0,-6.817011452E-1,9.922794398E-1,3.381110499E0
9.901962375E0,-3.181712404E0,-1.024819268E0,1.036249259E0,3.499622962E0
9.911906375E0,-3.211987824E0,-1.365482730E0,1.030590470E0,3.639165507E0
9.921850375E0,-3.198612026E0,-1.588031266E0,9.958718960E-1,3.707387629E0
9.931793375E0,-3.143232754E0,-1.735958805E0,1.017837546E0,3.732218964E0
9.941737375E0,-2.994213540E0,-2.000732424E0,1.151716565E0,3.780832713E0
9.951681375E0,-2.850732223E0,-2.359894137E0,1.344638575E0,3.937489993E0
9.961624375E0,-2.717416876E0,-2.631679738E0,1.523424064E0,4.078101715E0
9.971568375E0,-2.552614565E0,-2.829768786E0,1.570957396E0,4.122055269E0
9.981512375E0,-2.476229171E0,-2.968799787E0,1.662226439E0,4.208144462E0
9.991456375E0,-2.518784914E0,-3.155570379E0,1.753147134E0,4.401752689E0
1.000139938E1,-2.688770197E0,-3.341632875E0,1.711677511E0,4.617990401E0
1.001134337E1,-2.909653738E0,-3.479170496E0,1.595956436E0,4.808096210E0
1.002128738E1,-3.162147912E0,-3.554910650E0,1.413095437E0,4.963205402E0
1.003123038E1,-3.494510082E0,-3.519050846E0,1.210979412E0,5.105074995E0
1.004117437E1,-3.736373726E0,-3.620291877E0,1.039542411E0,5.305435921E0
1.005111838E1,-3.823957999E0,-3.827685015E0,9.495832904E-1,5.493226354E0
1.006106137E1,-3.817377543E0,-3.945907529E0,1.024352806E0,5.584966983E0
1.007100538E1,-3.599600335E0,-4.024933818E0,1.143989177E0,5.519594736E0
1.008094938E1,-3.364336444E0,-4.108368908E0,1.224093693E0,5.449390806E0
1.009089237E1,-3.316230816E0,-4.169210356E0,1.335602434E0,5.492133982E0
1.010083638E1,-3.389099402E0,-4.281203247E0,1.529448158E0,5.670441576E0
1.011078037E1,-3.432545968E0,-4.260332195E0,1.459669826E0,5.662458674E0
1.012072338E1,-3.446726636E0,-4.179929472E0,1.233985720E0,5.556478709E0
1.013066738E1,-3.407639753E0,-4.118248948E0,1.000037599E0,5.438019702E0
1.014061137E1,-3.283134406E0,-4.089786456E0,9.586252785E-1,5.331443257E0
1.015055438E1,-2.874634472E0,-3.964564240E0,1.123514348E0,5.024298702E0
1.016049837E1,-1.924875911E0,-3.790301426E0,1.604539271E0,4.543795599E0
1.017044238E1,-3.974691617E-1,-4.141229675E0,2.401094788E0,4.803438470E0
1.018038638E1,1.129951036E0,-4.665807365E0,3.053411336E0,5.689452390E0
1.019032937E1,2.502021824E0,-4.595009862E0,3.083418077E0,6.073030206E0
1.020027338E1,3.324022231E0,-4.007072328E0,2.672664042E0,5.852254737E0
1.021021737E1,3.423945299E0,-3.425113572E0,1.955511228E0,5.222913799E0
1.022016037E1,3.472218742E0,-3.163182870E0,1.000593084E0,4.802417660E0
1.023010438E1,3.437783319E0,-3.166498826E0,5.927345896E-1,4.711305897E0
1.024004837E1,3.697688547E0,-3.107063048E0,5.453358901E-1,4.860466295E0
1.024999138E1,4.768050023E0,-3.199052906E0,3.090808958E-1,5.750110566E0
1.025993537E1,6.049297764E0,-3.226407351E0,1.888153277E-1,6.858524554E0
1.026987938E1,7.180390761E0,-3.099526864E0,3.215710966E-1,7.827418875E0
1.027982238E1,8.132470082E0,-2.812088268E0,7.431495345E-1,8.636965977E0
1.028976637E1,8.682312421E0,-2.400846866E0,1.253062992E0,9.094876663E0
1.029971038E1,8.980139766E0,-1.976817605E0,1.697948834E0,9.350601494E0
1.030965338E1,9.172100932E0,-1.626200428E0,1.966651197E0,9.520487397E0
1.031959737E1,9.257414732E0,-1.312769788E0,1.948217411E0,9.550845152E0
1.032954138E1,9.098148857E0,-7.366871917E-1,1.602457516E0,9.267518046E0
1.033948437E1,8.650045146E0,-4.616903007E-2,1.061532254E0,8.715059572E0
1.034942838E1,7.984639022E0,5.722085238E-2,9.468360492E-1,8.040785598E0
1.035937237E1,7.266754721E0,-5.534740448E-1,1.678445592E0,7.478585248E0
1.036931537E1,6.926064947E0,-1.068968962E0,2.220985928E0,7.351588181E0
1.037925938E1,6.695413340E0,-1.206796314E0,2.161586403E0,7.138443311E0
1.038920337E1,6.136801347E0,-1.305395572E0,1.973751032E0,6.577239657E0
1.039914738E1,5.449178726E0,-1.404620483E0,1.623265418E0,5.856748083E0
1.040909038E1,4.654136907E0,-1.637209565E0,1.302980672E0,5.102862348E0
1.041903437E1,3.826682217E0,-1.977356718E0,1.185144074E0,4.467438064E0
1.042897838E1,3.094997318E0,-2.173745103E0,1.202437214E0,3.968630926E0
1.043892137E1,2.522187116E0,-2.352408532E0,1.306307738E0,3.688047404E0
1.044886538E1,2.116575122E0,-2.611985146E0,1.443103348E0,3.658538495E0
1.045880938E1,1.903330091E0,-2.869056813E0,1.580871935E0,3.788576052E0
1.046875237E1,1.823222067E0,-3.069049714E0,1.783092041E0,3.990316038E0
1.047869638E1,1.698512651E0,-3.229303184E0,1.926901971E0,4.126293190E0
1.048864037E1,1.290643632E0,-3.372541841E0,2.052080333E0,4.153412230E0
1.049858338E1,7.071727860E-1,-3.573960879E0,2.060191737E0,4.185412728E0
1.050852738E1,1.639804852E-1,-3.842979577E0,1.948243431E0,4.311732145E0
1.051847137E1,-3.892397904E-1,-4.120658585E0,1.834065728E0,4.527154944E0
1.052841538E1,-8.649856281E-1,-4.306169688E0,1.709389057E0,4.713099667E0
1.053835837E1,-1.222882589E0,-4.329462656E0,1.748594492E0,4.826724709E0
1.054830238E1,-1.328440619E0,-4.245733452E0,1.757380518E0,4.783240879E0
1.055824638E1,-1.387463583E0,-4.300929413E0,1.648325415E0,4.810408058E0
1.056818937E1,-1.477869138E0,-4.560185015E0,1.592558326E0,5.051299495E0
1.057813338E1,-1.618609865E0,-4.790300433E0,1.645268636E0,5.317309942E0
1.058807737E1,-1.717814895E0,-4.805597919E0,1.764790256E0,5.399920742E0
1.059802038E1,-1.742665269E0,-4.655027438E0,1.842771209E0,5.301128976E0
1.060796438E1,-1.748422145E0,-4.430627673E0,2.018606193E0,5.173220712E0
1.061790837E1,-1.738831834E0,-4.356798974E0,2.113738053E0,5.145203787E0
1.062785138E1,-1.616961535E0,-4.432849615E0,2.296427435E0,5.247694664E0
1.063779537E1,-1.453280134E0,-4.502265421E0,2.415702449E0,5.312065077E0
1.064773938E1,-1.462698245E0,-4.578556967E0,2.473963959E0,5.405845699E0
1.065768238E1,-1.547308625E0,-4.412021248E0,2.437506862E0,5.272716110E0
1.066762637E1,-1.551764788E0,-4.156449977E0,2.229278742E0,4.965252670E0
1.067757092E1,-1.472836440E0,-4.113619123E0,2.099827527E0,4.847719578E0
1.068751392E1,-1.340476673E0,-4.024680634E0,2.082885512E0,4.725816752E0
1.069745792E1,-1.167191952E0,-3.949981284E0,1.987159867E0,4.573127326E0
1.070740192E1,-9.993794945E-1,-3.944697740E0,1.739233246E0,4.425418841E0
1.071734492E1,-9.092046118E-1,-3.922589418E0,1.615886085E0,4.338715087E0
1.072728892E1,-1.142157464E0,-3.877029083E0,1.774095369E0,4.413988283E0
1.073723292E1,-1.419468025E0,-3.746867139E0,1.676390734E0,4.343292383E0
1.074717692E1,-1.762601497E0,-3.417886999E0,1.461530410E0,4.113974564E0
1.075711992E1,-2.092670681E0,-2.953052065E0,1.084317172E0,3.778297343E0
1.076706392E1,-2.530058053E0,-2.527978199E0,7.578716540E-1,3.655986456E0
1.077700792E1,-3.042294025E0,-1.735959390E0,3.704387263E-1,3.522262453E0
1.078695092E1,-3.483631922E0,-8.885616016E-1,2.044990584E-2,3.595226180E0
1.079689492E1,-3.974931353E0,-2.606805682E-1,-2.601625049E-1,3.991956682E0
1.080683892E1,-4.547058308E0,3.810221136E-1,-4.120603768E-1,4.581562055E0
1.081678192E1,-5.029535168E0,1.275953672E0,-4.763423268E-1,5.210679782E0
1.082672592E1,-5.353999504E0,2.185607350E0,-4.467635286E-1,5.800154121E0
1.083666992E1,-5.605240327E0,2.928230635E0,-3.635273174E-1,6.334461768E0
1.084661392E1,-5.967882303E0,3.648405874E0,-1.818460314E-1,6.997110303E0
1.085655692E1,-6.407826809E0,4.281550571E0,-1.028501479E-1,7.707301594E0
1.086650092E1,-6.800194860E0,4.697382329E0,-1.672396867E-1,8.266560348E0
1.087644492E1,-7.225211424E0,5.025637999E0,-2.863568616E-1,8.805834297E0
1.088638792E1,-7.582390931E0,5.285955455E0,-4.947633219E-1,9.256282626E0
1.089633192E1,-7.784462517E0,5.369535556E0,-6.204550695E-1,9.477063536E0
1.090627592E1,-7.760356786E0,5.197761902E0,-5.247502192E-1,9.354957457E0
1.091621892E1,-7.511891052E0,4.910142041E0,-3.702503729E-1,8.981931161E0
1.092616292E1,-7.110024784E0,4.597430609E0,-2.535329318E-1,8.470720133E0
1.093610692E1,-6.717906994E0,4.177979425E0,-1.388268964E-1,7.912335898E0
1.094604992E1,-6.309894133E0,3.778247391E0,-2.678655537E-1,7.359461208E0
1.095599392E1,-5.995865323E0,3.334420334E0,-4.796026611E-1,6.877410752E0
1.096593792E1,-5.640610719E0,2.848400939E0,-6.294504261E-1,6.350282280E0
1.097588092E1,-5.186341705E0,2.327122248E0,-6.346123481E-1,5.719822643E0
1.098582492E1,-4.772160908E0,1.846032055E0,-5.052695259E-1,5.141658427E0
1.099576892E1,-4.405721751E0,1.399443358E0,-3.280252167E-1,4.634266544E0
1.100571192E1,-4.085655983E0,1.004625324E0,-1.682055371E-1,4.210718461E0
1.101565592E1,-3.849431394E0,5.718629533E-1,8.182959035E-2,3.892537139E0
1.102559992E1,-3.713548242E0,2.194845951E-1,3.641131353E-1,3.737805828E0
1.103554392E1,-3.685263214E0,-8.786903322E-2,6.659253573E-1,3.745976842E0
1.104548692E1,-3.627931264E0,-4.420319617E-1,8.694295120E-1,3.756751947E0
1.105543092E1,-3.587622313E0,-6.923208582E-1,9.823646817E-1,3.783567418E0
1.106537492E1,-3.607408414E0,-9.307369834E-1,1.031951848E0,3.865823511E0
1.107531792E1,-3.638793637E0,-1.176558022E0,1.025152852E0,3.959298711E0
1.108526192E1,-3.588288019E0,-1.499421390E0,9.755520907E-1,4.009460973E0
1.109520592E1,-3.478148988E0,-1.790321538E0,9.658582842E-1,4.029349056E0
1.110514892E1,-3.274603610E0,-2.109543845E0,1.151845643E0,4.062013346E0
1.111509292E1,-3.038248336E0,-2.436365193E0,1.548768674E0,4.191123085E0
1.112503692E1,-2.782171866E0,-2.655851542E0,1.940016983E0,4.307864158E0
1.113497992E1,-2.611427029E0,-2.834750614E0,2.086182172E0,4.382638272E0
1.114492392E1,-2.691689127E0,-3.076292660E0,1.998605792E0,4.550076043E0
1.115486792E1,-2.830356139E0,-3.435363157E0,1.880034199E0,4.831890363E0
1.116481092E1,-2.914312508E0,-3.637128350E0,1.738779502E0,4.974462200E0
1.117475492E1,-3.006779791E0,-3.624386682E0,1.696385142E0,5.005459627E0
1.118469892E1,-3.052909645E0,-3.680674903E0,1.703074064E0,5.076227567E0
1.119464292E1,-3.014593425E0,-3.799733570E0,1.820843712E0,5.180851334E0
1.120458592E1,-2.896318871E0,-3.815402938E0,1.949667521E0,5.171766238E0
1.121452992E1,-2.697635745E0,-3.849848301E0,2.002840638E0,5.109788760E0
1.122447392E1,-2.595777833E0,-3.974037314E0,2.069228755E0,5.178102237E0
1.123441692E1,-2.600913443E0,-4.120752141E0,2.150629306E0,5.326401727E0
1.124436092E1,-2.660503002E0,-4.191683545E0,2.135985685E0,5.404712944E0
1.125430492E1,-2.783838907E0,-4.174910806E0,2.063425393E0,5.425621039E0
1.126424792E1,-2.884787577E0,-4.005423414E0,1.859239453E0,5.274674154E0
1.127419192E1,-2.954044923E0,-3.930718802E0,1.656235528E0,5.188453317E0
1.128413592E1,-2.918727740E0,-3.994970346E0,1.641591469E0,5.212828621E0
1.129407892E1,-2.638068990E0,-3.996240361E0,1.669553293E0,5.071168822E0
1.130402292E1,-2.107722437E0,-4.028426945E0,1.717572674E0,4.860120720E0
1.131396692E1,-1.279684196E0,-4.168611016E0,1.710566833E0,4.684116601E0
1.132390992E1,-4.264970791E-1,-4.254506029E0,1.751149871E0,4.620524557E0
1.133385392E1,2.895359927E-1,-4.083027075E0,1.874391782E0,4.502031290E0
1.134379792E1,9.408368790E-1,-3.739899012E0,1.953256688E0,4.322872927E0
1.135374192E1,1.532692047E0,-3.392002544E0,1.795019338E0,4.132423090E0
1.136368492E1,1.894946938E0,-3.216527895E0,1.316815184E0,3.958645959E0
1.137362892E1,2.123764274E0,-3.328170245E0,7.901811019E-1,4.026347979E0
1.138357292E1,2.429969509E0,-3.436604521E0,3.555479877E-1,4.223910134E0
1.139351592E1,3.046286504E0,-3.480246092E0,9.769637547E-2,4.626177569E0
1.140345992E1,4.134198983E0,-3.373068968E0,1.689384855E-2,5.335679984E0
1.141340392E1,5.489169588E0,-3.133903522E0,2.363421909E-1,6.325202897E0
1.142334692E1,6.720915386E0,-2.773108389E0,6.146242261E-1,7.296478377E0
1.143329092E1,7.483018085E0,-2.381018081E0,8.553517556E-1,7.899141307E0
1.144323492E1,7.714669567E0,-2.122815563E0,9.285144567E-1,8.055098481E0
1.145317792E1,7.680669177E0,-1.944042499E0,9.061090958E-1,7.974522803E0
1.146312192E1,7.816809314E0,-1.740571089E0,7.770785880E-1,8.045865193E0
1.147306592E1,8.190486740E0,-1.479092083E0,7.861441112E-1,8.360012500E0
1.148300892E1,8.624646596E0,-1.282934078E0,9.574909186E-1,8.771957456E0
1.149295292E1,8.877071480E0,-1.074079136E0,9.735543895E-1,8.994656870E0
1.150289692E1,8.747147518E0,-8.935562932E-1,1.029404655E0,8.852723112E0
1.151283992E1,8.339911752E0,-7.568092149E-1,1.152846394E0,8.453161717E0
1.152278392E1,7.785972853E0,-6.779843625E-1,1.388245940E0,7.937774427E0
1.153272792E1,7.230863342E0,-6.673187488E-1,1.576636212E0,7.430779282E0
1.154267092E1,6.663241374E0,-7.416532320E-1,1.556334679E0,6.882660297E0
1.155261492E1,6.082901713E0,-8.616877985E-1,1.466811469E0,6.316307069E0
1.156255892E1,5.542956955E0,-9.746519119E-1,1.377512791E0,5.794122854E0
1.157250292E1,5.066727553E0,-1.139012466E0,1.387007646E0,5.375208620E0
1.158244592E1,4.587605533E0,-1.378130257E0,1.465749614E0,5.009370166E0
1.159238992E1,4.062555973E0,-1.589191353E0,1.619316208E0,4.653179039E0
1.160233392E1,3.528920946E0,-1.791378130E0,1.862380431E0,4.373874658E0
1.161227692E1,2.954609179E0,-2.018157127E0,2.013711196E0,4.105813728E0
1.162222092E1,2.292868089E0,-2.305869373E0,2.048579167E0,3.843299916E0
1.163216492E1,1.631067358E0,-2.662134960E0,2.060202262E0,3.740558332E0
1.164210792E1,1.109410937E0,-2.960328341E0,1.907831716E0,3.692446122E0
1.165205192E1,7.399996394E-1,-3.227649007E0,1.718047906E0,3.730550387E0
1.166199592E1,3.414540052E-1,-3.515288748E0,1.604140345E0,3.879060719E0
1.167193892E1,-1.775021714E-1,-3.699312319E0,1.799732486E0,4.117700289E0
1.168188362E1,-6.594688618E-1,-3.730941077E0,2.140401356E0,4.351567358E0
1.169182763E1,-9.870105869E-1,-3.758252252E0,2.485005841E0,4.612364244E0
1.170177062E1,-1.085515705E0,-3.877974578E0,2.471631797E0,4.725039144E0
1.171171463E1,-1.171237056E0,-4.118195153E0,2.304343250E0,4.862234607E0
1.172165863E1,-1.390805851E0,-4.378133125E0,2.157456515E0,5.075136372E0
1.173160162E1,-1.524543660E0,-4.537438177E0,1.888953834E0,5.145942593E0
1.174154563E1,-1.662320433E0,-4.562257268E0,1.833745301E0,5.190387503E0
1.175148962E1,-1.806358989E0,-4.424938917E0,1.913092310E0,5.148100563E0
1.176143363E1,-1.896967151E0,-4.294120331E0,2.009346542E0,5.106410414E0
1.177137663E1,-1.740806147E0,-4.411649950E0,1.923530759E0,5.117912846E0
1.178132062E1,-1.569657560E0,-4.591313252E0,1.766693232E0,5.163834546E0
1.179126463E1,-1.474484185E0,-4.777863990E0,1.759477476E0,5.300740411E0
1.180120762E1,-1.375411009E0,-4.767243692E0,1.787367525E0,5.273807973E0
1.181115163E1,-1.278760043E0,-4.711431434E0,1.855109565E0,5.222474979E0
1.182109563E1,-1.225482845E0,-4.773397887E0,2.099780457E0,5.356884688E0
1.183103862E1,-1.260537049E0,-4.872825696E0,2.152446913E0,5.474158531E0
1.184098263E1,-1.475144189E0,-4.884216072E0,1.992364182E0,5.477328916E0
1.185092662E1,-1.844385625E0,-4.706860666E0,1.815449071E0,5.371419830E0
1.186086963E1,-2.271466987E0,-4.391817949E0,1.651092609E0,5.212843176E0
1.187081363E1,-2.375763481E0,-4.154694058E0,1.460725687E0,5.003943881E0
1.188075762E1,-2.318371013E0,-3.892345864E0,1.405701195E0,4.743542592E0
1.189070063E1,-2.265491425E0,-3.594969925E0,1.492352253E0,4.503706851E0
1.190064462E1,-2.541675886E0,-3.204609808E0,1.520188508E0,4.363555136E0
1.191058863E1,-3.078169616E0,-2.797429006E0,1.107564240E0,4.304350796E0
1.192053263E1,-3.571746538E0,-2.192417602E0,5.388302779E-1,4.225447473E0
1.193047562E1,-4.056987085E0,-1.102633429E0,1.455117622E-1,4.206675452E0
1.194041963E1,-4.435712997E0,-1.263349414E-2,-1.693821430E-2,4.435763327E0
1.195036362E1,-4.621198079E0,9.140835285E-1,-1.188107443E-1,4.712232632E0
1.196030662E1,-4.702781356E0,1.705684261E0,-1.613151781E-1,5.005150734E0
1.197025063E1,-4.919643182E0,2.592867090E0,-8.551077805E-2,5.561758793E0
1.198019462E1,-5.194206795E0,3.581181021E0,-2.272508669E-1,6.313183403E0
1.199013763E1,-5.460304223E0,4.573855805E0,-6.447327089E-1,7.151975909E0
1.200008162E1,-5.963340771E0,5.359517521E0,-7.625704034E-1,8.054028484E0
1.201002563E1,-6.522973688E0,6.072431688E0,-9.323549080E-1,8.960630447E0
1.201996863E1,-6.785772117E0,6.441746507E0,-1.113684082E0,9.422478099E0
1.202991262E1,-6.862024487E0,6.562892629E0,-1.022888517E0,9.550143488E0
1.203985663E1,-6.755982893E0,6.483803775E0,-7.080720878E-1,9.390653988E0
1.204979963E1,-6.446455269E0,6.282953671E0,-4.501794354E-1,9.013043543E0
1.205974362E1,-6.139227356E0,5.834445918E0,-1.661123435E-1,8.471036832E0
1.206968763E1,-5.738976674E0,5.205528173E0,2.024282670E-1,7.750764739E0
1.207963162E1,-5.179398721E0,4.545420796E0,5.784463334E-1,6.915317887E0
1.208957463E1,-4.706950713E0,4.110789070E0,6.835862875E-1,6.286593832E0
1.209951863E1,-4.425731800E0,3.669617234E0,5.119167868E-1,5.771936538E0
1.210946262E1,-4.366904132E0,3.178579758E0,1.216946641E-1,5.402594800E0
1.211940563E1,-4.352049866E0,2.731889319E0,-2.502561522E-1,5.144529661E0
1.212934962E1,-4.248088710E0,2.408854043E0,-4.244960158E-1,4.901941693E0
1.213929363E1,-3.974294592E0,1.971398697E0,-4.215316236E-1,4.456357171E0
1.214923663E1,-3.548135481E0,1.361886692E0,-2.684409928E-1,3.809994924E0
1.215918062E1,-3.298819562E0,9.214925355E-1,1.676411346E-2,3.425148176E0
1.216912463E1,-3.151789570E0,5.367498386E-1,2.625094311E-1,3.207925978E0
1.217906762E1,-3.153886674E0,1.092692578E-1,5.395798910E-1,3.201575765E0
1.218901163E1,-3.240784484E0,-2.438668996E-1,7.596937926E-1,3.337557460E0
1.219895563E1,-3.278425058E0,-5.723921263E-1,8.289808130E-1,3.429710308E0
1.220889862E1,-3.240661401E0,-9.771720618E-1,9.323712802E-1,3.510850005E0
1.221884263E1,-3.178038598E0,-1.381784767E0,1.091949689E0,3.633402344E0
1.222878662E1,-3.152642094E0,-1.710668428E0,1.267850162E0,3.804337350E0
1.223873063E1,-3.093120362E0,-1.978689006E0,1.480650805E0,3.959157810E0
1.224867363E1,-2.989715277E0,-2.320228965E0,1.707536952E0,4.151811933E0
1.225861762E1,-2.804593599E0,-2.637624602E0,1.880331237E0,4.284676692E0
1.226856163E1,-2.643144373E0,-2.889634919E0,1.993408348E0,4.394300739E0
1.227850462E1,-2.612865444E0,-3.071162313E0,2.127857909E0,4.559263434E0
1.228844863E1,-2.688192784E0,-3.215248232E0,2.105057276E0,4.689932598E0
1.229839263E1,-2.919012792E0,-3.385171827E0,2.067960494E0,4.925087266E0
1.230833562E1,-3.215606959E0,-3.445160751E0,1.991241370E0,5.116082770E0
1.231827963E1,-3.379976576E0,-3.460655288E0,1.760479835E0,5.147782622E0
1.232822362E1,-3.404154520E0,-3.585465276E0,1.620609759E0,5.202903539E0
1.233816663E1,-3.330256824E0,-3.696299833E0,1.663419563E0,5.245970607E0
1.234811063E1,-3.120353184E0,-3.731365001E0,1.770729127E0,5.176405162E0
1.235805462E1,-2.841277860E0,-3.813745837E0,1.911076190E0,5.125400413E0
1.236799763E1,-2.596028679E0,-4.022412499E0,2.201281689E0,5.269232229E0
1.237794162E1,-2.513889917E0,-4.085922031E0,2.320421046E0,5.329048245E0
1.238788563E1,-2.606940753E0,-3.976402513E0,2.320467532E0,5.290792625E0
1.239782863E1,-2.963962385E0,-3.879019475E0,2.168503075E0,5.341747906E0
1.240777262E1,-3.340745852E0,-3.929552282E0,1.858606638E0,5.482370165E0
1.241771663E1,-3.407925097E0,-4.006854812E0,1.601222877E0,5.498431927E0
1.242766062E1,-3.114308918E0,-4.090509172E0,1.596176437E0,5.383211359E0
1.243760363E1,-2.536439120E0,-4.201808583E0,1.587578691E0,5.158403326E0
1.244754763E1,-1.865857040E0,-4.291731158E0,1.425593276E0,4.892105377E0
1.245749162E1,-1.144611175E0,-4.356427676E0,1.202165319E0,4.661952198E0
1.246743463E1,-4.380611175E-1,-4.435335267E0,1.134618357E0,4.599071133E0
1.247737862E1,3.371644878E-1,-4.517960809E0,1.270991725E0,4.705429813E0
1.248732263E1,1.191981223E0,-4.348973061E0,1.621362734E0,4.791993639E0
1.249726563E1,2.203892763E0,-3.937662370E0,1.733874857E0,4.834113184E0
1.250720962E1,3.040973139E0,-3.475664506E0,1.482621170E0,4.850353278E0
1.251715363E1,3.404856479E0,-3.153820015E0,9.151536421E-1,4.730447602E0
1.252709662E1,3.565670112E0,-3.031397738E0,2.716862706E-1,4.687983471E0
1.253704063E1,3.804696102E0,-2.950359423E0,-8.808247486E-2,4.815401507E0
1.254698463E1,4.344996954E0,-2.598570756E0,-2.070732951E-2,5.062805280E0
1.255692762E1,5.470504691E0,-2.110903907E0,2.886314285E-1,5.870744840E0
1.256687163E1,6.648518670E0,-1.765808549E0,1.015999328E0,6.953641850E0
1.257681562E1,7.488202811E0,-1.417836944E0,1.681815342E0,7.804610547E0
1.258675862E1,7.928147902E0,-1.043383885E0,2.025681324E0,8.249094733E0
1.259670263E1,8.040721421E0,-7.236291897E-1,2.064912633E0,8.333108925E0
1.260664662E1,8.037800152E0,-5.314113307E-1,1.869257049E0,8.269386386E0
1.261658963E1,8.048553182E0,-5.204413694E-1,1.665133236E0,8.235456043E0
1.262653363E1,7.932548516E0,-5.562087876E-1,1.524523487E0,8.096842968E0
1.263647762E1,7.619053558E0,-6.278287008E-1,1.484510990E0,7.787677373E0
1.264642163E1,7.212709492E0,-6.452706528E-1,1.501918151E0,7.395627800E0
1.265636462E1,6.828842708E0,-6.073315787E-1,1.440513616E0,7.005499543E0
1.266630863E1,6.484658638E0,-6.624091342E-1,1.442357243E0,6.676075039E0
1.267625200E1,6.114359733E0,-8.241097900E-1,1.450424647E0,6.337845339E0
1.268619500E1,5.689331474E0,-9.870702285E-1,1.445773187E0,5.952567544E0
1.269613900E1,5.217746515E0,-1.135588044E0,1.431339920E0,5.528396953E0
1.270608300E1,4.743177137E0,-1.276410924E0,1.423953717E0,5.114156665E0
1.271602600E1,4.247837865E0,-1.415336383E0,1.401144898E0,4.691536063E0
1.272597000E1,3.762517796E0,-1.618493505E0,1.427981279E0,4.337648202E0
1.273591400E1,3.346911156E0,-1.842410290E0,1.464483107E0,4.091576803E0
1.274585700E1,2.989524073E0,-2.067052714E0,1.472048235E0,3.921337413E0
1.275580100E1,2.591310561E0,-2.265066333E0,1.495646428E0,3.752648951E0
1.276574500E1,2.161309245E0,-2.484739793E0,1.620773335E0,3.670435355E0
1.277568800E1,1.737352781E0,-2.683720542E0,1.911557708E0,3.724889730E0
1.278563200E1,1.397515531E0,-2.829175293E0,2.167509048E0,3.828234315E0
1.279557600E1,1.115193248E0,-2.971594756E0,2.222278748E0,3.874603748E0
1.280551900E1,7.648222393E-1,-3.150154104E0,2.076154343E0,3.849524749E0
1.281546300E1,2.605571920E-1,-3.376230850E0,1.943413339E0,3.904315587E0
1.282540700E1,-2.606454849E-1,-3.513884246E0,1.803614745E0,3.958325999E0
1.283535100E1,-6.733998531E-1,-3.573077365E0,1.734246887E0,4.028394405E0
1.284529400E1,-9.086935651E-1,-3.661058664E0,1.738299153E0,4.153403241E0
1.285523800E1,-1.031139523E0,-3.704005879E0,1.681446822E0,4.196447507E0
1.286518200E1,-1.151545388E0,-3.809569756E0,1.609402839E0,4.292907640E0
1.287512500E1,-1.196591168E0,-4.025591045E0,1.627737515E0,4.504080717E0
1.288506900E1,-1.187499332E0,-4.190624614E0,1.832214792E0,4.725304261E0
1.289501300E1,-1.083538762E0,-4.213336369E0,2.074377228E0,4.819678463E0
1.290495600E1,-1.032437605E0,-4.082838795E0,2.264419338E0,4.781536884E0
1.291490000E1,-1.027518343E0,-4.068953412E0,2.286106661E0,4.778960083E0
1.292484400E1,-1.124817765E0,-4.240151115E0,2.153513445E0,4.886892330E0
1.293478700E1,-1.270016994E0,-4.381104680E0,2.078854149E0,5.012849086E0
1.294473100E1,-1.481864248E0,-4.364253590E0,2.052752178E0,5.045435814E0
1.295467500E1,-1.717266134E0,-4.209307052E0,2.056545559E0,4.989654144E0
1.296461800E1,-1.818252518E0,-4.096993150E0,1.997048678E0,4.907096750E0
1.297456200E1,-1.870188072E0,-4.167526942E0,2.056097078E0,5.009333233E0
1.298450600E1,-1.843982314E0,-4.223599402E0,2.036272970E0,5.038399576E0
1.299445000E1,-1.870354864E0,-4.185304232E0,2.005235073E0,5.003595360E0
1.300439300E1,-2.007815449E0,-4.079060909E0,1.925150145E0,4.937232408E0
1.301433700E1,-2.163026572E0,-3.950028062E0,1.672639307E0,4.804074093E0
1.302428100E1,-2.291253380E0,-3.702582082E0,1.330049772E0,4.552800075E0
1.303422400E1,-2.380444177E0,-3.476601230E0,1.049163273E0,4.342120929E0
1.304416800E1,-2.479784570E0,-3.323622866E0,8.780366135E-1,4.238720180E0
1.305411200E1,-2.587538522E0,-3.091020627E0,5.881103191E-1,4.073774401E0
1.306405500E1,-3.032737920E0,-2.630595664E0,4.016662931E-1,4.034708001E0
1.307399900E1,-3.480611250E0,-2.045588754E0,7.886929125E-2,4.037983209E0
1.308394300E1,-3.661322958E0,-1.533390205E0,-3.789674020E-1,3.987503933E0
1.309388600E1,-3.562880405E0,-9.679784846E-1,-7.482491836E-1,3.767091181E0
1.310383000E1,-3.526920614E0,-1.832786357E-1,-8.712933120E-1,3.637569533E0
1.311377400E1,-3.595084822E0,4.972963357E-1,-8.572135091E-1,3.729175985E0
1.312371700E1,-3.661423238E0,1.142261764E0,-8.894904318E-1,3.937254792E0
1.313366100E1,-3.930253363E0,1.904901237E0,-1.115677105E0,4.507801640E0
1.314360500E1,-4.308175868E0,2.639372334E0,-1.451055561E0,5.256636555E0
1.315354800E1,-4.771878780E0,3.342711686E0,-1.763527404E0,6.087247113E0
1.316349200E1,-5.412421374E0,3.927586448E0,-1.934006338E0,6.961366314E0
1.317343600E1,-6.073300000E0,4.331976959E0,-1.936220386E0,7.707136086E0
1.318338000E1,-6.546787058E0,4.870763383E0,-1.873997241E0,8.372372566E0
1.319332300E1,-6.747809654E0,5.384839473E0,-1.607953753E0,8.781511633E0
1.320326700E1,-6.658837252E0,5.719551639E0,-1.084284282E0,8.844719153E0
1.321321100E1,-6.434960228E0,5.916497557E0,-5.484830077E-1,8.758680842E0
1.322315400E1,-6.146322953E0,5.869595286E0,-1.064335044E-1,8.499456615E0
1.323309800E1,-5.745422645E0,5.583861153E0,7.214068092E-2,8.012152708E0
1.324304200E1,-5.476225022E0,5.287362295E0,2.360846941E-1,7.615837217E0
1.325298500E1,-5.294587115E0,4.939376950E0,2.610713084E-1,7.245567997E0
1.326292900E1,-5.141423979E0,4.393589655E0,7.316737890E-2,6.763373718E0
1.327287300E1,-5.032205007E0,3.642933465E0,-1.096070807E-1,6.213377920E0
1.328281600E1,-4.717159367E0,2.844663983E0,-1.870195381E-1,5.511685947E0
1.329276000E1,-4.290738886E0,2.379318003E0,-2.625258033E-1,4.913299721E0
1.330270400E1,-3.969309548E0,1.894205511E0,-2.569044363E-1,4.405613770E0
1.331264800E1,-3.782946213E0,1.417760346E0,-1.667016332E-1,4.043329802E0
1.332259100E1,-3.695727975E0,1.023237011E0,-6.811684638E-2,3.835369494E0
1.333253500E1,-3.538991313E0,5.987507898E-1,3.689139917E-2,3.589473917E0
1.334247900E1,-3.477000595E0,1.111602473E-1,1.539761916E-1,3.482182994E0
1.335242200E1,-3.279120000E0,-5.507428104E-1,2.718547435E-1,3.336143075E0
1.336236600E1,-3.047827830E0,-1.084239843E0,5.602600309E-1,3.283096377E0
1.337231000E1,-2.828600220E0,-1.300585653E0,9.509353128E-1,3.255269607E0
1.338225300E1,-2.610491475E0,-1.486641131E0,1.285323543E0,3.267541002E0
1.339219700E1,-2.496630691E0,-1.898193312E0,1.625097643E0,3.532314398E0
1.340214100E1,-2.573621856E0,-2.212598682E0,1.837800930E0,3.859615867E0
1.341208400E1,-2.700197703E0,-2.490865921E0,1.931214585E0,4.150309680E0
1.342202800E1,-2.557099379E0,-2.797448886E0,2.028235388E0,4.298629583E0
1.343197200E1,-2.399648480E0,-2.989724633E0,2.170680870E0,4.405521722E0
1.344191500E1,-2.227535687E0,-3.078407598E0,2.256903327E0,4.419515947E0
1.345185900E1,-1.941683732E0,-3.238192706E0,2.222488370E0,4.381264917E0
1.346180300E1,-1.690009923E0,-3.262086183E0,2.150917281E0,4.257203890E0
1.347174600E1,-1.514571818E0,-3.222922702E0,2.117535235E0,4.143080256E0
1.348169000E1,-1.423593821E0,-3.154361760E0,2.114044155E0,4.055342176E0
1.349163400E1,-1.534043339E0,-3.068368514E0,1.981419071E0,3.961590064E0
1.350157700E1,-1.786575812E0,-3.112115042E0,1.840563154E0,4.032962421E0
1.351152100E1,-2.021062608E0,-3.289145343E0,1.767181475E0,4.245715667E0
1.352146500E1,-1.970194756E0,-3.555784809E0,1.868185401E0,4.473856242E0
1.353140900E1,-1.682515254E0,-3.585543044E0,2.005930599E0,4.439677248E0
1.354135200E1,-1.250334681E0,-3.497545956E0,2.145978431E0,4.289683899E0
1.355129600E1,-9.865077263E-1,-3.184834524E0,2.314282347E0,4.058604591E0
1.356124000E1,-9.191425395E-1,-2.873476138E0,2.298534041E0,3.792749249E0
1.357118300E1,-9.753296041E-1,-2.823398829E0,2.064119750E0,3.630900595E0
1.358112700E1,-1.166078058E0,-2.849091495E0,1.746072442E0,3.539184843E0
1.359107100E1,-1.418653216E0,-2.844340632E0,1.417063650E0,3.480074707E0
1.360101400E1,-1.596265315E0,-2.842278319E0,1.162274152E0,3.460851081E0
1.361095800E1,-1.460063197E0,-2.850156273E0,1.108279208E0,3.388725147E0
1.362090200E1,-8.518492734E-1,-2.677710189E0,1.183743666E0,3.049102836E0
1.363084500E1,-1.051212430E-1,-2.257756729E0,1.389754814E0,2.653287464E0
1.364078900E1,4.549180555E-1,-2.000919535E0,1.630378848E0,2.620832809E0
1.365073300E1,6.941709173E-1,-1.938522143E0,1.638990627E0,2.631735480E0
1.366067600E1,6.086407703E-1,-1.856331925E0,1.435666859E0,2.424366131E0
1.367062000E1,4.930594432E-1,-1.561269144E0,1.152008341E0,2.001947096E0
1.368056438E1,7.525085878E-1,-1.280121567E0,8.172185540E-1,1.694941464E0
1.369050838E1,1.444995507E0,-1.161954017E0,5.257024017E-1,1.927306973E0
1.370045137E1,2.266847395E0,-1.077779839E0,4.420448256E-1,2.548648685E0
1.371039538E1,2.961107774E0,-8.843258786E-1,4.037455630E-1,3.116601032E0
1.372033937E1,3.492299250E0,-6.764772427E-1,3.083798146E-1,3.570556486E0
1.373028238E1,3.987537950E0,-6.140184546E-1,2.535377558E-1,4.042494151E0
1.374022638E1,4.662255181E0,-5.273942935E-1,3.406612690E-1,4.704340359E0
1.375017037E1,5.443812736E0,-3.698890150E-1,5.569955304E-1,5.484720504E0
1.376011338E1,6.208620358E0,-2.396563196E-1,6.261691149E-1,6.244716940E0
1.377005737E1,6.809874925E0,-2.224087876E-1,5.785374038E-1,6.838023668E0
1.378000138E1,7.249530578E0,-3.639406425E-1,4.222344589E-1,7.270930362E0
1.378994438E1,7.566580644E0,-4.869578737E-1,3.260454226E-1,7.589240821E0
1.379988837E1,7.866897733E0,-5.744351435E-1,2.108831947E-1,7.890660771E0
1.380983238E1,8.016663637E0,-7.409597522E-1,1.232230532E-1,8.051776273E0
1.381977537E1,7.958073367E0,-9.864346361E-1,1.784789488E-2,8.018996418E0
1.382971938E1,7.709526356E0,-1.220960024E0,9.801395237E-4,7.805609584E0
1.383966338E1,7.425590826E0,-1.378218550E0,1.641268118E-1,7.554192419E0
1.384960637E1,7.153842064E0,-1.455616974E0,3.731226714E-1,7.309958794E0
1.385955038E1,6.735267962E0,-1.561700084E0,7.121838498E-1,6.950535771E0
1.386949437E1,6.183681983E0,-1.676762763E0,9.250704467E-1,6.473423481E0
1.387943737E1,5.673638717E0,-1.814871658E0,1.111268451E0,6.059608320E0
1.388938138E1,5.240412077E0,-1.961369553E0,1.211226456E0,5.725029152E0
1.389932537E1,4.745202613E0,-2.082388791E0,1.364685462E0,5.358699219E0
1.390926938E1,4.198234180E0,-2.207915647E0,1.502483139E0,4.975692647E0
1.391921237E1,3.536841584E0,-2.383354336E0,1.643290085E0,4.570561080E0
1.392915638E1,2.859980764E0,-2.577585976E0,1.750674493E0,4.229456303E0
1.393910038E1,2.186552260E0,-2.737347695E0,1.902672571E0,3.986758847E0
1.394904337E1,1.706591749E0,-2.872712492E0,2.032551802E0,3.911035577E0
1.395898738E1,1.363233891E0,-3.008014138E0,2.098683519E0,3.912930898E0
1.396893137E1,1.083705407E0,-3.143837941E0,2.169048328E0,3.970252518E0
1.397887437E1,7.483032703E-1,-3.280619518E0,2.284167140E0,4.066920423E0
1.398881838E1,4.098401159E-1,-3.445863002E0,2.361628714E0,4.197526764E0
1.399876237E1,7.917129993E-3,-3.594472911E0,2.309736429E0,4.272608169E0
1.400870538E1,-4.886711079E-1,-3.686818573E0,2.324254481E0,4.385611649E0
1.401864937E1,-8.927166331E-1,-3.720710204E0,2.342007505E0,4.486159445E0
1.402859337E1,-1.153077943E0,-3.690726852E0,2.346938462E0,4.523181798E0
1.403853638E1,-1.100920780E0,-3.737743728E0,2.289601250E0,4.519405782E0
1.404848037E1,-1.029435060E0,-3.831643580E0,2.264995289E0,4.568526319E0
1.405842438E1,-1.054365249E0,-3.911228278E0,2.309083003E0,4.662752088E0
1.406836738E1,-1.239928684E0,-3.919975712E0,2.358197860E0,4.739697234E0
1.407831137E1,-1.598689278E0,-3.875074359E0,2.379836943E0,4.820335317E0
1.408825538E1,-1.886516422E0,-3.761309177E0,2.352536001E0,4.820873009E0
1.409819937E1,-2.109075775E0,-3.582774387E0,2.300194066E0,4.751354088E0
1.410814238E1,-2.254810609E0,-3.464510357E0,2.248133089E0,4.705433591E0
1.411808638E1,-2.329782146E0,-3.306465966E0,2.058463739E0,4.538488184E0
1.412803037E1,-2.195658275E0,-3.123994246E0,1.881568801E0,4.256824692E0
1.413797338E1,-2.020804015E0,-2.971789468E0,1.858779862E0,4.046015829E0
1.414791737E1,-2.064563992E0,-2.814526849E0,1.995628390E0,4.020760939E0
1.415786138E1,-2.228446975E0,-2.690761759E0,2.030974224E0,4.041167042E0
1.416780438E1,-2.275099278E0,-2.746927189E0,1.826445344E0,4.007192072E0
1.417774837E1,-2.204935906E0,-2.811516702E0,1.491803345E0,3.871930492E0
1.418769238E1,-2.172749615E0,-2.659928806E0,1.397828357E0,3.708097391E0
1.419763537E1,-2.433456788E0,-2.321602476E0,1.396701014E0,3.641747344E0
1.420757938E1,-2.812818877E0,-1.937673712E0,1.075508780E0,3.580956379E0
1.421752338E1,-3.097812168E0,-1.798096581E0,4.402997240E-1,3.608802487E0
1.422746637E1,-3.387271562E0,-1.803267859E0,-1.040658206E-1,3.838777579E0
1.423741038E1,-3.623485626E0,-1.594845026E0,-4.291616553E-1,3.982129891E0
1.424735437E1,-3.924499703E0,-1.044102800E0,-6.218393978E-1,4.108349159E0
1.425729738E1,-4.150952717E0,-4.133636481E-1,-7.965860689E-1,4.246860880E0
1.426724138E1,-4.095990644E0,9.593877554E-2,-1.028895654E0,4.224330701E0
1.427718537E1,-3.947771621E0,5.674231625E-1,-1.026787441E0,4.118393166E0
1.428712938E1,-3.919888589E0,1.108913339E0,-8.014918828E-1,4.151819430E0
1.429707237E1,-4.139222910E0,1.745861650E0,-8.266980600E-1,4.567781615E0
1.430701638E1,-4.412619711E0,2.326505367E0,-1.101500823E0,5.108536385E0
1.431696038E1,-4.621952370E0,2.945081726E0,-1.414746399E0,5.660164084E0
1.432690337E1,-4.832683683E0,3.596819984E0,-1.490179281E0,6.205850455E0
1.433684738E1,-5.144463946E0,4.063791490E0,-1.197049005E0,6.664295678E0
1.434679137E1,-5.394172214E0,4.463935168E0,-8.064997306E-1,7.047996373E0
1.435673438E1,-5.496273370E0,4.871703030E0,-6.834868848E-1,7.376290782E0
1.436667838E1,-5.521095386E0,5.079134175E0,-5.953563349E-1,7.525592827E0
1.437662237E1,-5.332534375E0,5.116994897E0,-4.625169508E-1,7.404963306E0
1.438656538E1,-5.065122492E0,5.034221712E0,-1.706824176E-1,7.143387613E0
1.439650937E1,-4.876429920E0,4.772016774E0,2.434382987E-1,6.827223086E0
1.440645338E1,-4.651193126E0,4.679544813E0,3.929532109E-1,6.609549862E0
1.441639638E1,-4.501110595E0,4.459600042E0,3.706266412E-1,6.347077535E0
1.442634037E1,-4.322191644E0,3.922909260E0,2.735399111E-1,5.843404979E0
1.443628438E1,-3.943345864E0,3.299644604E0,9.658167690E-2,5.142660706E0
1.444622837E1,-3.506728131E0,2.777934973E0,-8.246942192E-2,4.474468249E0
1.445617138E1,-3.269166577E0,2.356025035E0,-1.759352638E-1,4.033516740E0
1.446611538E1,-3.179909415E0,1.838152932E0,-1.069783187E-1,3.674516900E0
1.447605937E1,-3.059897068E0,1.342393829E0,-1.126466095E-3,3.341405771E0
1.448600238E1,-2.918090394E0,9.092051965E-1,1.852421308E-1,3.062061443E0
1.449594637E1,-2.811103304E0,5.497926378E-1,3.299139404E-1,2.883299662E0
1.450589038E1,-2.789996610E0,2.193413383E-1,4.316651407E-1,2.831700284E0
1.451583338E1,-2.830536525E0,-1.979785359E-1,6.741328016E-1,2.916434048E0
1.452577737E1,-2.679640939E0,-6.107627249E-1,9.107883301E-1,2.895348347E0
1.453572138E1,-2.587863919E0,-8.629040194E-1,9.981644431E-1,2.904819318E0
1.454566437E1,-2.662915856E0,-1.164659523E0,1.095974328E0,3.106237658E0
1.455560837E1,-2.816719262E0,-1.442230359E0,1.166478300E0,3.372626192E0
1.456555238E1,-2.968974911E0,-1.594737437E0,1.271732275E0,3.602124719E0
1.457549537E1,-2.975604191E0,-1.798101844E0,1.341996511E0,3.726707015E0
1.458543938E1,-2.720180270E0,-2.266132865E0,1.550420513E0,3.865041090E0
1.459538337E1,-2.438005922E0,-2.694202260E0,1.846922586E0,4.075993343E0
1.460532637E1,-2.276687820E0,-2.788946450E0,2.059722059E0,4.147768640E0
1.461527038E1,-2.393603043E0,-2.766509514E0,1.994627931E0,4.166707453E0
1.462521437E1,-2.865197065E0,-2.839762262E0,1.921854655E0,4.468459381E0
1.463515838E1,-3.405956632E0,-2.968778737E0,1.889361677E0,4.897333490E0
1.464510138E1,-3.616650816E0,-3.192547587E0,1.792518630E0,5.146420722E0
1.465504537E1,-3.375903990E0,-3.467959045E0,1.825690176E0,5.172679413E0
1.466498938E1,-2.864070892E0,-3.659200419E0,2.101430833E0,5.099868756E0
1.467493237E1,-2.427347910E0,-3.571217950E0,2.393822314E0,4.937205767E0
1.468487992E1,-2.257364965E0,-3.470015511E0,2.609804134E0,4.893647091E0
1.469482392E1,-2.291263028E0,-3.546366114E0,2.543472151E0,4.929082010E0
1.470476692E1,-2.342741330E0,-3.669992040E0,2.220675441E0,4.887604519E0
1.471471092E1,-2.198350187E0,-3.732443227E0,2.071480225E0,4.801552490E0
1.472465492E1,-1.791965775E0,-3.744051704E0,2.038498713E0,4.624342279E0
1.473459792E1,-1.325386618E0,-3.649648992E0,2.087963819E0,4.408648360E0
1.474454192E1,-8.305765182E-1,-3.497802649E0,2.132055918E0,4.179730034E0
1.475448592E1,-3.026220614E-1,-3.317968608E0,2.048182579E0,3.910952272E0
1.476442892E1,1.538431674E-1,-3.117897354E0,1.957308370E0,3.684563432E0
1.477437292E1,4.060464424E-1,-2.959814370E0,1.843063131E0,3.510307184E0
1.478431692E1,6.890949494E-1,-2.851601704E0,1.516573905E0,3.302496107E0
1.479426092E1,1.000799491E0,-2.847526780E0,1.104647795E0,3.214071426E0
1.480420392E1,1.166900176E0,-2.735301170E0,7.625424099E-1,3.070016195E0
1.481414792E1,1.386355535E0,-2.407205713E0,7.422139800E-1,2.875326522E0
1.482409192E1,1.882540900E0,-2.002187212E0,8.316904128E-1,2.871310296E0
1.483403492E1,2.727977532E0,-1.689889762E0,8.686261046E-1,3.324469903E0
1.484397892E1,3.744723549E0,-1.561155124E0,7.950368491E-1,4.134276645E0
1.485392292E1,4.628265901E0,-1.522318502E0,8.078818662E-1,4.938721695E0
1.486386592E1,5.235510356E0,-1.331028011E0,8.321687150E-1,5.465776160E0
1.487380992E1,5.595947932E0,-1.004709524E0,8.712083812E-1,5.751789159E0
1.488375392E1,5.974776170E0,-7.255464917E-1,7.588962324E-1,6.066324380E0
1.489369692E1,6.349903706E0,-6.127151102E-1,7.177550769E-1,6.419647126E0
1.490364092E1,6.829997533E0,-6.318264422E-1,7.359516120E-1,6.898528519E0
1.491358492E1,7.396268209E0,-7.019880599E-1,6.891822191E-1,7.461403540E0
1.492352792E1,7.768708364E0,-8.033115363E-1,7.268676701E-1,7.843881417E0
1.493347192E1,7.785616758E0,-9.763958439E-1,8.756347235E-1,7.895309577E0
1.494341592E1,7.622568904E0,-1.078532668E0,8.177379330E-1,7.741801130E0
1.495335892E1,7.188500850E0,-1.047563183E0,6.730285549E-1,7.295539769E0
1.496330292E1,6.844714390E0,-1.129393212E0,5.333738025E-1,6.957738981E0
1.497324692E1,6.517213011E0,-1.288706449E0,6.514628541E-1,6.675270301E0
1.498318992E1,6.178432353E0,-1.434543024E0,8.077587824E-1,6.394013941E0
1.499313392E1,5.812651591E0,-1.502781200E0,9.108627360E-1,6.072474025E0
1.500307792E1,5.353843968E0,-1.554832529E0,9.833648479E-1,5.661109065E0
1.501302192E1,4.819127206E0,-1.663456839E0,1.078844032E0,5.211044054E0
1.502296492E1,4.318199165E0,-1.813399329E0,1.214423129E0,4.838396913E0
1.503290892E1,3.846832892E0,-1.953874007E0,1.370376557E0,4.526994460E0
1.504285292E1,3.397933375E0,-2.117084414E0,1.543641690E0,4.290783997E0
1.505279592E1,2.943044556E0,-2.344622964E0,1.695707742E0,4.127250035E0
1.506273992E1,2.552339453E0,-2.561285693E0,1.811265973E0,4.044169322E0
1.507268392E1,2.268185238E0,-2.803007249E0,1.825605099E0,4.041577401E0
1.508262692E1,1.897769389E0,-3.103305042E0,1.855213061E0,4.083362137E0
1.509257092E1,1.445275589E0,-3.343178294E0,2.012763948E0,4.161355709E0
1.510251492E1,1.048896348E0,-3.478323235E0,2.053775733E0,4.173357262E0
1.511245792E1,7.347891855E-1,-3.671119968E0,2.091883792E0,4.288707820E0
1.512240192E1,4.220420855E-1,-3.933547685E0,2.165184487E0,4.509871481E0
1.513234592E1,9.269006252E-3,-4.163736777E0,2.175995112E0,4.698057534E0
1.514228892E1,-3.789001590E-1,-4.295495011E0,2.125989431E0,4.807772227E0
1.515223292E1,-6.867730200E-1,-4.370565659E0,2.113089012E0,4.902922244E0
1.516217692E1,-8.576391864E-1,-4.496041644E0,2.038795752E0,5.010651011E0
1.517211992E1,-9.451924700E-1,-4.699566264E0,2.057944213E0,5.216746712E0
1.518206392E1,-8.929581231E-1,-4.742179602E0,1.983700655E0,5.217347015E0
1.519200792E1,-8.956133437E-1,-4.733765459E0,2.006603906E0,5.218919229E0
1.520195092E1,-1.074255430E0,-4.780156099E0,2.127076721E0,5.341195787E0
1.521189492E1,-1.391315436E0,-4.874598572E0,2.162421970E0,5.511219344E0
1.522183892E1,-1.655710740E0,-4.949893168E0,2.205375909E0,5.666260083E0
1.523178292E1,-1.775539485E0,-4.841272951E0,2.320771879E0,5.654771999E0
1.524172592E1,-1.728016532E0,-4.648331791E0,2.411765665E0,5.514493920E0
1.525166992E1,-1.687451181E0,-4.437777064E0,2.542477247E0,5.385679837E0
1.526161392E1,-1.768530720E0,-4.189085627E0,2.615887578E0,5.245856185E0
1.527155692E1,-1.915815066E0,-3.792628618E0,2.511390817E0,4.935733282E0
1.528150092E1,-1.944409850E0,-3.546290685E0,2.291775537E0,4.648563477E0
1.529144492E1,-1.918343694E0,-3.496574149E0,2.193407536E0,4.551605203E0
1.530138792E1,-1.898261432E0,-3.285909494E0,2.153793819E0,4.363419013E0
1.531133192E1,-2.168231179E0,-2.821699044E0,2.048413252E0,4.105996686E0
1.532127592E1,-2.689951042E0,-2.214266308E0,1.898820718E0,3.967912803E0
1.533121892E1,-3.286887733E0,-1.424914414E0,1.389025082E0,3.842317365E0
1.534116292E1,-3.878833241E0,-6.456086218E-1,7.624314590E-1,4.005428758E0
1.535110692E1,-4.456022131E0,3.143673635E-1,1.981084903E-1,4.471488236E0
1.536104992E1,-4.867138986E0,1.257296376E0,-2.968186998E-1,5.035666533E0
1.537099392E1,-5.148766912E0,1.978017161E0,-5.336554921E-1,5.541402421E0
1.538093792E1,-5.445890837E0,2.775764487E0,-5.509249511E-1,6.137272504E0
1.539088192E1,-5.782596318E0,3.643869020E0,-6.088686655E-1,6.861991159E0
1.540082492E1,-6.158951769E0,4.306992391E0,-8.203126082E-1,7.560144385E0
1.541076892E1,-6.499963140E0,4.861447599E0,-1.121584840E0,8.193970108E0
1.542071292E1,-6.757394410E0,5.395877262E0,-1.314783715E0,8.746800950E0
1.543065592E1,-7.071295166E0,5.821817687E0,-1.289179928E0,9.249797911E0
1.544059992E1,-7.430472082E0,6.043530071E0,-1.214298291E0,9.654568422E0
1.545054392E1,-7.600969874E0,5.899916022E0,-9.747869825E-1,9.671295764E0
1.546048692E1,-7.583843379E0,5.786770061E0,-6.288234584E-1,9.560167733E0
1.547043092E1,-7.357942634E0,5.509498603E0,-3.677008407E-1,9.199407512E0
1.548037492E1,-7.019482988E0,4.962955847E0,-1.399564688E-1,8.597886948E0
1.549031792E1,-6.668824296E0,4.427640331E0,1.272821903E-2,8.004834689E0
1.550026192E1,-6.360043947E0,3.917089527E0,-6.986019373E-2,7.469848045E0
1.551020592E1,-6.124699949E0,3.397466767E0,-2.957977760E-1,7.010151655E0
1.552014892E1,-5.822445093E0,2.853687991E0,-4.445032874E-1,6.499383446E0
1.553009292E1,-5.484793532E0,2.278268761E0,-3.704817764E-1,5.950691168E0
1.554003692E1,-5.146936734E0,1.718548136E0,-2.378740883E-1,5.431477655E0
1.554997992E1,-4.721509987E0,1.197158933E0,-1.366792506E-1,4.872835652E0
1.555992392E1,-4.445356225E0,7.500814086E-1,7.149536759E-2,4.508760991E0
1.556986792E1,-4.235762195E0,2.838858283E-1,3.188390216E-1,4.257221025E0
1.557981192E1,-4.065548286E0,-1.139891303E-1,5.952626333E-1,4.110476126E0
1.558975492E1,-3.982841174E0,-4.678439105E-1,8.388231388E-1,4.097014279E0
1.559969892E1,-3.858027971E0,-8.796802658E-1,1.042418218E0,4.092047523E0
1.560964292E1,-3.767072192E0,-1.270655510E0,1.281171435E0,4.176936506E0
1.561958592E1,-3.724640410E0,-1.493312804E0,1.469683621E0,4.273511350E0
1.562952992E1,-3.634871909E0,-1.646335607E0,1.613309071E0,4.304123707E0
1.563947392E1,-3.460558224E0,-2.019353467E0,1.864264551E0,4.419132716E0
1.564941692E1,-3.247834180E0,-2.399036568E0,2.121926201E0,4.561400456E0
1.565936092E1,-3.031602391E0,-2.616019725E0,2.358428533E0,4.647188118E0
1.566930492E1,-2.831332039E0,-2.842242651E0,2.545026633E0,4.750994103E0
1.567924367E1,-2.778957359E0,-3.060215156E0,2.659071896E0,4.915097573E0
1.568918767E1,-2.873462982E0,-3.138088374E0,2.562784627E0,4.967117192E0
1.569913167E1,-3.072598389E0,-3.330455337E0,2.468324027E0,5.159982279E0
1.570907467E1,-3.205533083E0,-3.597997613E0,2.478732948E0,5.418961727E0
1.571901867E1,-3.139442589E0,-3.715874557E0,2.387693847E0,5.418939509E0
1.572896267E1,-3.008997055E0,-3.720475146E0,2.466225462E0,5.383146535E0
1.573890667E1,-2.771955026E0,-3.739140043E0,2.668830607E0,5.365403968E0
1.574884967E1,-2.566425396E0,-3.892685587E0,2.799727838E0,5.438567492E0
1.575879367E1,-2.485459585E0,-4.034065415E0,2.800887926E0,5.504195336E0
1.576873767E1,-2.439791077E0,-4.139070883E0,2.492569799E0,5.412706576E0
1.577868067E1,-2.509664134E0,-4.153947369E0,2.191678222E0,5.325142837E0
1.578862467E1,-2.684115229E0,-3.952793795E0,1.950710371E0,5.160845309E0
1.579856867E1,-2.616688061E0,-3.829114074E0,1.806930262E0,4.977365566E0
1.580851167E1,-2.072090090E0,-3.785427187E0,1.788040247E0,4.671199445E0
1.581845567E1,-1.293612848E0,-3.718118134E0,1.923950735E0,4.381714629E0
1.582839967E1,-4.141500986E-1,-3.649660687E0,2.070625509E0,4.216519113E0
1.583834267E1,4.458607185E-1,-3.508794830E0,2.239583290E0,4.186426430E0
1.584828667E1,1.144108315E0,-3.348125038E0,2.084109480E0,4.106389830E0
1.585823067E1,1.511535652E0,-3.106413715E0,1.562685925E0,3.791639948E0
1.586817367E1,1.681986666E0,-2.929203319E0,1.057209042E0,3.539350532E0
1.587811767E1,2.072226330E0,-2.874224289E0,6.908553998E-1,3.610064876E0
1.588806167E1,2.794118897E0,-2.673879385E0,4.832383136E-1,3.897467209E0
1.589800567E1,3.826778696E0,-2.507587788E0,3.778144772E-1,4.590748902E0
1.590794867E1,4.997961373E0,-2.486145464E0,4.297741511E-1,5.598682254E0
1.591789267E1,6.079327310E0,-2.426553858E0,4.840640867E-1,6.563589125E0
1.592783667E1,6.967010660E0,-2.316608077E0,6.660716839E-1,7.372215542E0
1.593777967E1,7.655436687E0,-2.138580533E0,7.058841328E-1,7.979818919E0
1.594772367E1,8.251203058E0,-2.043030598E0,7.434641147E-1,8.532822793E0
1.595766767E1,8.907414436E0,-2.016243626E0,6.945812456E-1,9.159132787E0
1.596761067E1,9.368114803E0,-2.041980730E0,5.482795246E-1,9.603742537E0
1.597755467E1,9.572590765E0,-2.123223406E0,5.330498667E-1,9.819710472E0
1.598749867E1,9.595842218E0,-2.116146521E0,6.815515295E-1,9.850014034E0
1.599744167E1,9.486876431E0,-2.031537310E0,8.524026393E-1,9.739330497E0
1.600738567E1,9.164770862E0,-1.953112700E0,9.549777853E-1,9.419111251E0
1.601732967E1,8.662623092E0,-2.039258266E0,1.104307341E0,8.967670144E0
1.602727267E1,8.102092043E0,-2.179220436E0,1.211307002E0,8.477037326E0
1.603721667E1,7.572647715E0,-2.313156758E0,1.135757175E0,7.999101947E0
1.604716067E1,7.004255084E0,-2.443603754E0,1.068829067E0,7.494877195E0
1.605710367E1,6.339638334E0,-2.568679205E0,1.030655959E0,6.917469101E0
1.606704767E1,5.531153766E0,-2.701428249E0,1.090180760E0,6.251389498E0
1.607699167E1,4.712383361E0,-2.896666195E0,1.259375792E0,5.673029118E0
1.608693467E1,3.999597248E0,-3.088272436E0,1.478574020E0,5.265015281E0
1.609687867E1,3.361750220E0,-3.260630811E0,1.769258698E0,5.006331409E0
1.610682267E1,2.856899866E0,-3.411669070E0,2.006292103E0,4.881246838E0
1.611676567E1,2.450437102E0,-3.584308112E0,2.191194949E0,4.863459873E0
1.612670967E1,1.883588721E0,-3.820421603E0,2.373639772E0,4.876237634E0
1.613665367E1,1.243887541E0,-4.018397216E0,2.385365778E0,4.835777321E0
1.614659767E1,5.470690048E-1,-4.215322668E0,2.272035629E0,4.819789995E0
1.615654067E1,-1.345947182E-1,-4.529921581E0,2.347539263E0,5.103846183E0
1.616648467E1,-6.534000367E-1,-4.777322538E0,2.330167770E0,5.355317365E0
1.617642867E1,-1.095709156E0,-4.874910228E0,2.232599960E0,5.472643865E0
1.618637167E1,-1.596500373E0,-4.868968872E0,2.339767144E0,5.632954963E0
1.619631567E1,-1.870842376E0,-5.046938236E0,2.475940026E0,5.924686976E0
1.620625967E1,-1.941353365E0,-5.137733216E0,2.530719373E0,6.047288321E0
1.621620267E1,-2.190255302E0,-5.206690600E0,2.705404064E0,6.263070847E0
1.622614667E1,-2.247746588E0,-5.301257619E0,2.806908804E0,6.405812524E0
1.623609067E1,-2.315123469E0,-5.322509909E0,2.880659735E0,6.479746053E0
1.624603367E1,-2.387161750E0,-5.264563417E0,2.960805473E0,6.494654590E0
1.625597767E1,-2.399018150E0,-5.030029843E0,3.038306516E0,6.347266718E0
