"Time (s)","Linear Acceleration x (m/s^2)","Linear Acceleration y (m/s^2)","Linear Acceleration z (m/s^2)","Absolute acceleration (m/s^2)"
3.833083319E-3,4.693651367E-3,2.770623195E-3,-4.215550125E-2,4.250638777E-2
1.377608324E-2,8.502746914E-3,-3.121001604E-3,-5.182971954E-3,1.043554284E-2
2.372008329E-2,-7.427096777E-3,3.627123800E-4,-4.395293534E-2,4.457750387E-2
3.366308333E-2,-3.081637966E-3,1.570638412E-2,-4.140764236E-2,4.439346620E-2
4.360708327E-2,1.611636987E-2,2.033109545E-2,-2.030270219E-2,3.294374806E-2
5.355108331E-2,1.800080870E-2,1.773546160E-2,-2.763744950E-2,3.744868926E-2
6.349408324E-2,1.935931790E-2,-9.922382352E-4,-6.550928056E-2,6.831715426E-2
7.343808329E-2,6.626823088E-3,-6.697026221E-4,-4.096091509E-2,4.149891385E-2
8.338208334E-2,-1.679000566E-2,-4.543492128E-4,-2.641772032E-3,1.700263752E-2
9.332508326E-2,-3.272277296E-2,-1.253719095E-2,-4.470488727E-2,5.680218282E-2
1.032690833E-1,-4.139920045E-2,-1.876101526E-2,-1.701188922E-2,4.853116386E-2
1.132120832E-1,-3.683138299E-2,-1.434976385E-2,-4.590298176E-2,6.057681264E-2
1.231560833E-1,-3.315955997E-3,3.044483021E-3,-1.880990803E-2,1.934107239E-2
1.331000833E-1,7.351338789E-3,1.337089427E-2,-3.033710897E-2,3.395825638E-2
1.430430833E-1,1.797512664E-2,9.289275077E-3,-4.665376425E-2,5.085242892E-2
1.529870833E-1,3.397246912E-2,2.029255179E-2,-1.298081875E-3,3.959294549E-2
1.629300832E-1,3.460949586E-2,2.665149017E-2,-5.368737996E-2,6.921310496E-2
1.728740833E-1,1.991895125E-2,2.387443276E-2,-1.461803913E-2,3.435753522E-2
1.828180833E-1,-3.195832260E-3,-5.237734783E-4,-3.138259113E-2,3.154924260E-2
1.927610832E-1,-1.164076483E-2,-1.016579554E-3,-3.138493001E-2,3.348962036E-2
2.027050833E-1,-2.628974852E-2,-6.294915942E-3,-2.449866414E-2,3.648234352E-2
2.126490832E-1,-3.495933294E-2,-1.661995675E-2,-4.470605671E-2,5.913551749E-2
2.225920833E-1,-2.461209099E-2,-1.287636829E-3,-2.255329549E-2,3.340754659E-2
2.325360833E-1,-2.030088407E-2,4.162217123E-3,-5.324006796E-2,5.713103169E-2
2.424790832E-1,1.213477232E-2,6.412255398E-3,-2.375197470E-2,2.743220773E-2
2.524230833E-1,1.374312208E-2,2.002872359E-2,-3.123641074E-2,3.956938879E-2
2.623670833E-1,1.765162029E-2,2.214295800E-2,-4.560594320E-2,5.368232804E-2
2.723100833E-1,2.049279151E-2,1.301126310E-2,-2.824205160E-2,3.724058203E-2
2.822540833E-1,1.133153848E-2,7.330939772E-3,-3.632582724E-2,3.875193114E-2
2.921970832E-1,2.431217451E-3,-3.059311195E-3,-2.480038047E-2,2.510635526E-2
3.021410833E-1,-1.941199766E-2,-1.265686930E-2,-2.869404137E-2,3.688319405E-2
3.120850833E-1,-3.170889317E-2,-1.621962348E-2,-2.345493615E-2,4.264579840E-2
3.220280833E-1,-3.517965420E-2,-1.670875449E-2,-2.794676721E-2,4.793550191E-2
3.319720833E-1,-2.147774586E-2,1.347054590E-3,-3.438279748E-2,4.056211145E-2
3.419160832E-1,-6.611465011E-3,-2.418650505E-3,-2.405369103E-2,2.506274909E-2
3.518590833E-1,1.783594463E-2,1.843136020E-3,-4.126730919E-2,4.499454277E-2
3.618030833E-1,1.094002171E-2,1.798322137E-2,-3.123582602E-2,3.766639289E-2
3.717460833E-1,1.672669128E-2,2.169940558E-2,-2.599789023E-2,3.776952078E-2
3.816900833E-1,2.815504686E-2,2.063629498E-2,-3.228423178E-2,4.754823820E-2
3.916347499E-1,4.169064760E-3,1.555062435E-3,-4.021597981E-2,4.046139336E-2
4.015777500E-1,-4.707154781E-3,-2.198966502E-3,-3.991543293E-2,4.025213716E-2
4.115217499E-1,-1.957278695E-2,6.965244398E-3,-2.749068439E-2,3.445789237E-2
4.214657500E-1,-2.191599467E-2,-5.454613951E-3,-2.644169390E-2,3.477393869E-2
4.314087499E-1,-9.053234858E-3,-1.360890792E-2,-4.081181109E-2,4.396325012E-2
4.413527499E-1,-1.361229977E-2,-4.309879874E-3,-3.632173419E-2,3.902740248E-2
4.512957500E-1,-1.060823791E-2,1.149582469E-2,-2.689134479E-2,3.111001641E-2
4.612397499E-1,1.323156380E-2,1.542542541E-2,-2.090321124E-2,2.915411240E-2
4.711837500E-1,2.050847850E-2,5.503399372E-3,-3.676904619E-2,4.245995587E-2
4.811267500E-1,2.275605683E-2,9.358379573E-3,-2.973367631E-2,3.859415627E-2
4.910707499E-1,1.460629902E-2,1.464395189E-2,-2.105056107E-2,2.951127614E-2
5.010137500E-1,2.065209160E-3,1.398601907E-2,-2.599028885E-2,2.958663437E-2
5.109577499E-1,7.879406316E-3,-3.824485601E-3,-2.838706255E-2,2.970752521E-2
5.209017500E-1,-1.701564423E-2,-1.174097834E-2,-2.898640215E-2,3.560328960E-2
5.308447500E-1,-2.439035361E-2,-5.519862939E-3,-2.599555135E-2,3.607113702E-2
5.407887499E-1,-2.426502219E-2,-6.451603048E-3,-2.480038047E-2,3.529126458E-2
5.507327500E-1,-1.517485851E-2,-1.059390994E-2,-3.497979820E-2,3.957389974E-2
5.606757499E-1,-1.811778042E-3,-2.282547425E-3,-2.914076865E-2,2.928612231E-2
5.706197500E-1,1.683340296E-2,1.339158565E-2,-1.926189780E-2,2.887418793E-2
5.805627500E-1,7.598347105E-3,2.067729629E-2,-2.240419149E-2,3.142026826E-2
5.905067499E-1,1.990459817E-2,1.287018303E-2,-2.614816368E-2,3.529250775E-2
6.004507500E-1,1.009002842E-2,6.201422161E-3,-2.554999352E-2,2.816147153E-2
6.103937499E-1,1.004312279E-2,5.143443863E-3,-3.123816490E-2,3.321358572E-2
6.203377499E-1,-2.080201786E-3,1.351937700E-2,-1.881400108E-2,2.326085619E-2
6.302817500E-1,-2.368016358E-2,3.255809618E-3,-3.078909874E-2,3.897844334E-2
6.402247499E-1,-3.377919124E-2,-1.301078344E-2,-2.360287070E-2,4.321353667E-2
6.501687500E-1,-2.052886153E-2,-1.116203318E-2,-3.992011070E-2,4.625624692E-2
6.601117499E-1,-7.526654759E-3,-3.851935538E-3,-3.438279748E-2,3.540712784E-2
6.700557499E-1,-1.514300946E-3,7.996026292E-3,-2.675042689E-2,2.796095282E-2
6.799997500E-1,4.894009866E-3,8.257791975E-3,-3.393607020E-2,3.526753921E-2
6.899427499E-1,5.489649279E-3,7.993344795E-3,-2.570319057E-2,2.747150916E-2
6.998867500E-1,9.829288283E-3,1.678504923E-2,-2.585287929E-2,3.235311659E-2
7.098307499E-1,9.333892073E-3,1.886166503E-2,-2.480388880E-2,3.252870806E-2
7.197737499E-1,6.410878105E-3,6.788610520E-3,-2.121019006E-2,2.317448496E-2
7.297177500E-1,1.094799768E-4,-4.405104979E-3,-3.483127892E-2,3.510890096E-2
7.396607499E-1,-6.157474397E-3,-5.115724406E-3,-2.959158897E-2,3.065529751E-2
7.496047500E-1,-1.348539691E-2,1.832238729E-3,-2.285735071E-2,2.660209597E-2
7.595487500E-1,-1.400141370E-2,-3.362658347E-3,-2.614933312E-2,2.985187899E-2
7.694917499E-1,-1.445242588E-2,-1.452794404E-2,-3.737481773E-2,4.262406330E-2
7.794357500E-1,6.604320444E-3,6.403342963E-3,-3.423076987E-2,3.544524588E-2
7.893787499E-1,1.530124060E-2,8.371282776E-3,-1.896193564E-2,2.576356618E-2
7.993227500E-1,1.413557989E-2,6.193229207E-3,-3.961722493E-2,4.251699917E-2
8.092667500E-1,1.109665400E-2,1.166148590E-2,-3.258127034E-2,3.634095706E-2
8.192097499E-1,1.257949876E-2,1.362247986E-2,-2.539562702E-2,3.144445290E-2
8.291537500E-1,1.577240741E-2,3.473458516E-3,-2.734099567E-2,3.175474443E-2
8.390977499E-1,-9.347285852E-3,-8.530859230E-4,-3.452546954E-2,3.577859074E-2
8.490407499E-1,-1.462517456E-2,-6.972754416E-3,-2.015359819E-2,2.585889702E-2
8.589847500E-1,-1.880388723E-2,-4.495912695E-3,-2.674107134E-2,3.299824696E-2
8.689277499E-1,-7.110223370E-3,3.036685211E-3,-2.479336381E-2,2.597089953E-2
8.788717500E-1,7.157266047E-4,1.056989296E-3,-2.314561844E-2,2.318079256E-2
8.888157499E-1,-8.161287792E-3,1.995444568E-3,-2.883437455E-2,3.003347421E-2
8.987587499E-1,-1.890934724E-4,9.655785863E-3,-2.524184525E-2,2.702629661E-2
9.087027500E-1,1.314590209E-2,1.467704804E-2,-2.763686478E-2,3.394151994E-2
9.186467499E-1,1.511815879E-2,1.388525282E-2,-2.688842118E-2,3.382818595E-2
9.285897500E-1,-8.768630773E-4,4.614517526E-3,-5.188468337E-2,5.209686199E-2
9.385337499E-1,-9.743982889E-3,-1.204396232E-3,-2.883262038E-2,3.045842693E-2
9.484767499E-1,-1.186621154E-2,5.186160514E-4,-2.793331861E-2,3.035368557E-2
9.584207500E-1,-1.370590090E-2,9.312901483E-4,-2.074884474E-2,2.488440433E-2
9.683647499E-1,-1.485708975E-2,-3.704606260E-3,-3.407114089E-2,3.735371286E-2
9.783077500E-1,-1.304230588E-2,4.951262330E-3,-3.556744337E-2,3.820549397E-2
9.882517500E-1,-4.711202150E-3,1.717121671E-3,-2.494012892E-2,2.543922096E-2
9.981957499E-1,1.513105921E-2,6.487122600E-3,-3.002837598E-2,3.424521977E-2
1.008138750E0,1.366370045E-2,9.541077653E-3,-2.613705397E-2,3.099797514E-2
1.018082750E0,6.300877361E-3,7.923635021E-3,-3.242398024E-2,3.396762491E-2
1.028025750E0,9.855911387E-3,9.502492882E-3,-3.990900099E-2,4.219199830E-2
1.037969750E0,9.070429327E-3,1.365321657E-2,-2.898055494E-2,3.329497823E-2
1.047913750E0,4.564345675E-3,6.058521692E-3,-2.538802564E-2,2.649699573E-2
1.057856750E0,-6.463018823E-3,-3.549088596E-3,-3.601534009E-2,3.676236342E-2
1.067800750E0,-1.372379886E-2,-1.998331631E-5,-3.496868849E-2,3.756530619E-2
1.077744750E0,-1.288317938E-2,-5.238399447E-3,-2.883262038E-2,3.201151571E-2
1.087687750E0,-7.900218749E-3,5.695416452E-3,-1.700662673E-2,1.959787176E-2
1.097631750E0,-8.700784799E-3,5.253492573E-3,-3.107736647E-2,3.269717950E-2
1.107574750E0,-5.210417323E-5,1.276476641E-2,-2.314503372E-2,2.643169617E-2
1.117518750E0,7.594747413E-3,1.355043577E-2,-2.493954420E-2,2.938154800E-2
1.127462750E0,7.013333179E-3,1.186517000E-2,-4.380032301E-2,4.591772422E-2
1.137405750E0,9.164925814E-3,9.589225820E-3,-2.823386550E-2,3.119455526E-2
1.147349750E0,1.446633129E-2,1.305825324E-2,-2.763452590E-2,3.381508155E-2
1.157292750E0,-2.039655000E-3,-1.987276739E-4,-3.406997144E-2,3.413154903E-2
1.167236750E0,-1.225711618E-2,-2.016512817E-3,-1.999806225E-2,2.354199895E-2
1.177180750E0,-7.549732989E-3,-2.573526346E-3,-2.658436596E-2,2.775518005E-2
1.187123750E0,-8.633075869E-3,-3.615018236E-4,-2.987576365E-2,3.110019190E-2
1.197067750E0,-2.178069558E-3,-2.620388581E-3,-2.867766917E-2,2.887938940E-2
1.207011750E0,-1.019617366E-3,-2.061031598E-3,-2.658261180E-2,2.668188001E-2
1.216954750E0,3.666021489E-4,2.507633250E-4,-2.029510081E-2,2.029996050E-2
1.226898750E0,1.321534691E-2,1.473380943E-2,-2.792922556E-2,3.423115796E-2
1.236841750E0,1.369737675E-2,7.477113311E-3,-2.762926340E-2,3.173171205E-2
1.246785750E0,9.085613815E-3,5.326710676E-3,-2.119264841E-2,2.366538763E-2
1.256729750E0,1.679089188E-2,4.732706656E-3,-3.107210398E-2,3.563436835E-2
1.266672750E0,4.032861181E-3,-2.594274825E-3,-2.014482737E-2,2.070768700E-2
1.276616750E0,-7.615367984E-3,-3.172765451E-3,-3.271926463E-2,3.374330375E-2
1.286560750E0,-9.478985248E-3,6.639330648E-5,-3.257016063E-2,3.392154084E-2
1.296503750E0,-1.253209976E-2,7.894654758E-5,-2.493486643E-2,2.790711954E-2
1.306447750E0,-3.686194383E-3,3.778980102E-3,-2.463431954E-2,2.519361862E-2
1.316390750E0,-3.063511597E-3,1.906763320E-3,-1.400700510E-2,1.446433688E-2
1.326334750E0,1.141212042E-3,3.277496849E-3,-3.391735911E-2,3.409445116E-2
1.336278750E0,7.808499690E-3,1.403918305E-2,-3.271867990E-2,3.644973721E-2
1.346221750E0,4.704934666E-3,1.352131618E-2,-3.137148142E-2,3.448379689E-2
1.356165750E0,1.218430921E-2,8.117947590E-3,-2.927525461E-2,3.273223176E-2
1.366109750E0,7.560212296E-3,8.308870601E-3,-2.208961129E-2,2.478195044E-2
1.376052750E0,-5.921511836E-3,1.162349270E-2,-3.646148264E-2,3.872479311E-2
1.385996750E0,-1.530162432E-2,6.247156067E-5,-2.044420481E-2,2.553642731E-2
1.395942500E0,-1.551259917E-2,-2.964949468E-4,-2.867766917E-2,3.260578708E-2
1.405886500E0,-1.064145740E-2,-4.555549726E-3,-3.451435983E-2,3.640377293E-2
1.415830500E0,-1.091651408E-2,4.210278494E-3,-3.331626534E-2,3.531105013E-2
1.425773500E0,3.020991376E-3,8.081178654E-3,-3.062420726E-2,3.181625225E-2
1.435717500E0,9.919892717E-3,1.089808621E-2,-2.763218701E-2,3.131629470E-2
1.445661500E0,9.273857614E-3,1.027012495E-2,-2.359176099E-2,2.735052263E-2
1.455604500E0,1.829431152E-2,7.091710994E-3,-3.332035840E-2,3.866808092E-2
1.465548500E0,1.644912212E-2,1.447890738E-2,-2.344031811E-2,3.208832950E-2
1.475491500E0,9.618487023E-4,2.826114642E-3,-2.493545115E-2,2.511351829E-2
1.485435500E0,-9.283459838E-4,-8.067846545E-3,-3.661058664E-2,3.750049371E-2
1.495379500E0,-9.350273414E-3,-1.752326021E-3,-3.137206614E-2,3.278269045E-2
1.505322500E0,-4.155314667E-3,1.421269689E-2,-2.418759227E-2,2.836030699E-2
1.515266500E0,-4.870164189E-3,9.195488936E-3,-2.643233836E-2,2.840676023E-2
1.525209500E0,-1.653418997E-3,-3.689750677E-3,-3.331860423E-2,3.356303685E-2
1.535153500E0,1.913921591E-3,7.039074632E-3,-2.807949901E-2,2.901154825E-2
1.545097500E0,3.627923224E-3,1.038670609E-2,-2.508572459E-2,2.739231769E-2
1.555040500E0,7.264114777E-3,2.061056723E-3,-3.256957591E-2,3.343340535E-2
1.564984500E0,5.493650967E-3,4.070760731E-3,-2.194167674E-2,2.298235131E-2
1.574928500E0,1.058483077E-2,2.427176933E-3,-2.987342477E-2,3.178602425E-2
1.584871500E0,6.749130394E-3,-2.369287214E-4,-2.732813179E-2,2.815019864E-2
1.594815500E0,-1.000820395E-2,2.206935617E-3,-3.286544502E-2,3.442632985E-2
1.604758500E0,-9.007763620E-3,-5.070047602E-3,-3.720524848E-2,3.861444940E-2
1.614702500E0,-1.009741967E-2,-2.205334485E-3,-3.376123846E-2,3.530782642E-2
1.624646500E0,-5.373006463E-3,1.845767268E-3,-2.373150945E-2,2.440206130E-2
1.634589500E0,9.331699368E-4,4.108568919E-3,-2.342979312E-2,2.380559494E-2
1.644533500E0,7.242078083E-3,-3.166883974E-3,-2.537399232E-2,2.657661257E-2
1.654477500E0,6.949251350E-3,9.055311077E-3,-3.196029603E-2,3.393746124E-2
1.664420500E0,1.149253791E-2,1.139311012E-2,-2.103243470E-2,2.653760907E-2
1.674364500E0,1.367872962E-2,1.140088737E-2,-1.908706605E-2,2.610371559E-2
1.684307500E0,6.524177045E-3,1.315484879E-2,-2.851687074E-2,3.207533085E-2
1.694251500E0,-1.262077644E-2,2.007234930E-3,-3.136037171E-2,3.386422750E-2
1.704195500E0,-9.599264301E-3,5.403581006E-4,-2.178029358E-2,2.380796192E-2
1.714138500E0,-1.718546016E-2,-1.352218869E-3,-3.076044738E-2,3.526150394E-2
1.724082500E0,-1.414656169E-2,-7.182669458E-3,-3.734792054E-2,4.057811130E-2
1.734026500E0,-1.141613125E-2,4.035362236E-3,-3.869453430E-2,4.054478001E-2
1.743969500E0,8.494359814E-4,9.549661183E-3,-2.776667297E-2,2.937525656E-2
1.753913500E0,1.096225941E-2,5.882388025E-3,-2.477406800E-2,2.772233874E-2
1.763856500E0,1.165176490E-2,4.278544737E-3,-3.689768493E-2,3.892953537E-2
1.773800500E0,3.292896040E-3,5.928014580E-3,-3.719647765E-2,3.780955529E-2
1.783744500E0,6.830525463E-3,8.080459172E-3,-3.629893005E-2,3.780955198E-2
1.793687500E0,1.292600110E-2,7.127116341E-3,-1.953262389E-2,2.448266096E-2
1.803631500E0,-9.620953817E-4,3.664354119E-3,-2.911270201E-2,2.935817666E-2
1.813575500E0,-9.765124228E-4,-7.194953179E-3,-3.390274107E-2,3.467155578E-2
1.823518500E0,-8.130991906E-3,-1.636393550E-3,-3.075869322E-2,3.185730720E-2
1.833462500E0,-4.635498980E-3,6.876901193E-3,-2.477231383E-2,2.612368951E-2
1.843405500E0,2.460864661E-3,6.193736270E-3,-3.076044738E-2,3.147416952E-2
1.853349500E0,9.784758082E-3,3.597481158E-3,-2.911387146E-2,3.092411474E-2
1.863293500E0,6.734064678E-3,5.853046880E-3,-3.195678771E-2,3.317894009E-2
1.873236500E0,3.652344486E-3,8.221073288E-3,-3.614748716E-2,3.725005362E-2
1.883180500E0,4.842426460E-3,9.469234559E-3,-4.123690367E-2,4.258635605E-2
1.893123500E0,2.774595190E-4,1.758917843E-3,-2.252639830E-2,2.259666781E-2
1.903067500E0,8.921553735E-3,1.008867397E-2,-2.701589048E-2,3.018664940E-2
1.913011500E0,-7.073303685E-4,7.022005788E-3,-3.659479916E-2,3.726913210E-2
1.922954500E0,-1.426308573E-2,-6.787214954E-3,-2.985822201E-2,3.377891832E-2
1.932898500E0,-7.265046677E-3,-2.190741571E-3,-3.135393977E-2,3.225910400E-2
1.942842500E0,2.383672278E-3,6.245879272E-3,-3.479561090E-2,3.543201151E-2
1.952785500E0,-1.633163877E-3,2.041489107E-3,-2.671358943E-2,2.684121387E-2
1.962729500E0,-1.023180513E-3,4.664488379E-3,-3.165156305E-2,3.200977653E-2
1.972672500E0,1.518553882E-2,8.164686486E-3,-3.105222344E-2,3.551764738E-2
1.982616500E0,1.139118922E-2,3.855845863E-3,-3.808642387E-2,3.993998526E-2
1.992560500E0,1.534291115E-2,1.062425380E-2,-2.281875908E-2,2.947838967E-2
2.002503500E0,-3.740938939E-3,5.676020142E-3,-3.299700737E-2,3.368997364E-2
2.012447500E0,-4.187163720E-3,7.017410242E-3,-3.628782034E-2,3.719653601E-2
2.022391500E0,-2.435529772E-3,2.421916723E-3,-3.493945241E-2,3.510787405E-2
2.032334500E0,1.265026834E-3,6.852114480E-4,-3.808174610E-2,3.810891226E-2
2.042278500E0,-5.967576932E-3,2.304945001E-3,-2.430921435E-2,2.513687825E-2
2.052221500E0,-3.667154387E-3,-3.307996017E-3,-3.433835864E-2,3.469169545E-2
2.062165500E0,-6.143897893E-3,1.745021569E-3,-3.553703785E-2,3.610642105E-2
2.072109500E0,1.197162587E-2,2.956498414E-3,-2.760178149E-2,3.023109409E-2
2.082052500E0,4.010194084E-3,1.905742341E-3,-3.253975511E-2,3.284127240E-2
2.091996500E0,2.907637618E-3,9.774413535E-3,-2.894664109E-2,3.069041457E-2
2.101940500E0,9.829690279E-3,1.090858151E-2,-3.089200974E-2,3.420433053E-2
2.111883500E0,7.448228979E-3,1.283086964E-3,-3.463422775E-2,3.544928997E-2
2.121827500E0,6.360427598E-3,6.113211431E-3,-3.493535936E-2,3.603200975E-2
2.131770500E0,5.764258280E-4,1.065034928E-2,-3.852847338E-2,3.997756205E-2
2.141714500E0,-3.828738537E-3,9.647419320E-3,-2.520617723E-2,2.725955446E-2
2.151658500E0,1.530965511E-3,2.819915679E-3,-2.700361133E-2,2.719358021E-2
2.161601500E0,-4.192727711E-4,-1.907539903E-4,-3.209302783E-2,3.209633331E-2
2.171545500E0,1.149233691E-3,3.464699113E-3,-2.865135670E-2,2.888295550E-2
2.181488500E0,3.294677613E-3,4.160691365E-3,-2.610781789E-2,2.664177937E-2
2.191432500E0,-2.930734120E-3,8.612197198E-3,-2.101957083E-2,2.290374425E-2
2.201376500E0,-4.024400990E-3,3.270528156E-3,-3.224739432E-2,3.266169926E-2
2.211319500E0,9.472251814E-3,6.593653844E-3,-3.359400809E-2,3.552122189E-2
2.221263500E0,5.232161656E-4,7.250821497E-3,-3.329404593E-2,3.407846331E-2
2.231207500E0,-1.783501273E-3,3.335133037E-3,-3.164747000E-2,3.187265829E-2
2.241150500E0,7.791305222E-3,6.132776763E-3,-2.895307302E-2,3.060385311E-2
2.251094500E0,-8.182666674E-3,2.389323064E-3,-3.000030935E-2,3.118787360E-2
2.261037500E0,1.079094512E-3,2.838135695E-3,-2.880279958E-2,2.896240189E-2
2.270981500E0,-2.615185473E-3,6.941807570E-3,-2.116750538E-2,2.242969397E-2
2.280925500E0,-3.226804230E-3,1.095289929E-2,-2.745443165E-2,2.973422415E-2
2.290868500E0,3.110956270E-3,8.417667642E-3,-2.745560110E-2,2.888503434E-2
2.300812500E0,1.408523901E-2,1.580196554E-2,-2.536112845E-2,3.303457143E-2
2.310756500E0,6.120883618E-3,1.149028354E-2,-2.026995778E-2,2.409072478E-2
2.320699500E0,7.068269597E-3,7.513112517E-3,-3.269412160E-2,3.428283655E-2
2.330643500E0,5.012616981E-4,4.934209473E-3,-2.954948902E-2,2.996281008E-2
2.340586500E0,-5.193515215E-4,1.553929537E-3,-2.595637500E-2,2.600803388E-2
2.350530500E0,-2.325940160E-3,6.890189904E-3,-3.508738697E-2,3.583307744E-2
2.360474500E0,1.902035298E-3,4.958973345E-3,-2.655454516E-2,2.708049157E-2
2.370417500E0,-6.784999408E-3,3.479682603E-3,-2.910100758E-2,3.008343481E-2
2.380361500E0,-6.456833566E-3,4.809533588E-3,-3.014999807E-2,3.120648485E-2
2.390305833E0,4.470717134E-3,7.914998957E-3,-3.119781911E-2,3.249520638E-2
2.400248833E0,3.313598838E-3,6.197626039E-3,-3.628723562E-2,3.696152019E-2
2.410192833E0,7.496952731E-3,1.068437277E-2,-2.775263965E-2,3.066869950E-2
2.420135833E0,7.508546663E-3,9.308664536E-3,-2.071551561E-2,2.391991002E-2
2.430079833E0,3.307422716E-3,8.622900343E-3,-3.089493334E-2,3.224578052E-2
2.440023833E0,1.077419833E-2,8.219705131E-3,-3.897812426E-2,4.126670659E-2
2.449966833E0,-4.640368614E-3,6.282983967E-3,-3.224213183E-2,3.317474903E-2
2.459910833E0,-8.529059384E-3,8.750773924E-3,-3.328819871E-2,3.546018995E-2
2.469853833E0,-2.205030704E-3,1.745850686E-3,-2.939629197E-2,2.953052889E-2
2.479797833E0,-4.889505683E-3,-2.047445958E-3,-3.179189622E-2,3.223079221E-2
2.489741833E0,5.557321664E-4,-2.655930973E-3,-3.897812426E-2,3.907245806E-2
2.499684833E0,1.033531912E-3,6.374138861E-3,-2.296084642E-2,2.385158911E-2
2.509628833E0,1.256246874E-2,2.276622551E-3,-2.999621630E-2,3.260017827E-2
2.519572833E0,-1.868221946E-3,2.172037333E-3,-2.805084765E-2,2.819677381E-2
2.529515833E0,6.272043278E-3,5.002283854E-3,-2.939746141E-2,3.047248116E-2
2.539459833E0,5.125440834E-3,8.484081505E-4,-3.343905687E-2,3.384021963E-2
2.549402833E0,1.062630946E-2,3.860123924E-3,-2.266205370E-2,2.532563301E-2
2.559346833E0,-2.406942369E-3,8.317995456E-3,-2.999913990E-2,3.122388213E-2
2.569290833E0,-1.035058583E-2,5.544021532E-3,-3.404015064E-2,3.600836927E-2
2.579233833E0,-4.235211387E-3,2.534742861E-3,-3.613579273E-2,3.647132371E-2
2.589177833E0,5.406755861E-3,5.142660427E-3,-4.002653003E-2,4.071612790E-2
2.599121833E0,6.266132109E-3,2.827448538E-3,-2.969917774E-2,3.048442283E-2
2.609064833E0,-3.331359755E-4,9.849566245E-3,-3.508797169E-2,3.644572255E-2
2.619008833E0,1.904556910E-3,1.061868295E-2,-2.610664845E-2,2.824784696E-2
2.628951833E0,1.842948270E-2,6.295269972E-3,-3.493711352E-2,3.999847695E-2
2.638895833E0,1.169148942E-2,1.019588358E-2,-2.625633717E-2,3.049659339E-2
2.648839833E0,-6.366567174E-3,1.032517557E-2,-2.476061940E-2,2.757228139E-2
2.658782833E0,2.165032094E-3,5.332030272E-3,-3.314318776E-2,3.363909639E-2
2.668726833E0,-6.129572215E-3,-5.596874880E-3,-3.778236866E-2,3.868338203E-2
2.678669833E0,-1.017594595E-2,-1.711767814E-3,-3.329170704E-2,3.485423622E-2
2.688613833E0,-6.653903006E-3,1.460095887E-2,-2.356135547E-2,2.850613788E-2
2.698557833E0,5.339330155E-4,1.303448522E-2,-2.879812181E-2,3.161510255E-2
2.708500833E0,6.854508184E-3,4.038879701E-3,-2.370870531E-2,2.500798950E-2
2.718444833E0,3.967281003E-3,-1.715632458E-3,-3.298999071E-2,3.327194314E-2
2.728388833E0,5.662196958E-3,9.361024525E-3,-3.388753831E-2,3.560975298E-2
2.738331833E0,4.853919894E-4,1.456792895E-2,-2.655396044E-2,3.029146702E-2
2.748275833E0,9.286145903E-3,9.088430072E-3,-1.981621385E-2,2.369629503E-2
2.758218833E0,7.875724398E-3,3.433994378E-3,-2.550496995E-2,2.691324664E-2
2.768162833E0,3.877179064E-3,3.923241876E-3,-2.580434740E-2,2.638728271E-2
2.778106833E0,-1.272445489E-3,3.947082984E-3,-2.161364794E-2,2.200791582E-2
2.788049833E0,-5.190737788E-3,9.266512049E-3,-2.834847093E-2,3.027288900E-2
2.797993833E0,-4.354476314E-3,8.116460661E-4,-3.119372606E-2,3.150664658E-2
2.807937833E0,8.233500905E-3,-5.204994944E-3,-2.655337572E-2,2.828363965E-2
2.817880833E0,5.553036751E-3,4.223188050E-3,-2.775088549E-2,2.861438764E-2
2.827824833E0,1.788188182E-3,9.221065936E-3,-2.610489428E-2,2.774330873E-2
2.837767833E0,7.208538819E-3,1.331384280E-2,-3.314026415E-2,3.643485351E-2
2.847711833E0,8.694151863E-3,4.616924934E-3,-2.745209277E-2,2.916370466E-2
2.857655833E0,7.499236800E-3,5.025177074E-3,-2.909866869E-2,3.046676020E-2
2.867598833E0,-4.751758073E-3,3.830849016E-3,-2.430862963E-2,2.506320178E-2
2.877542833E0,-1.564102778E-3,3.631954605E-3,-2.850049853E-2,2.877352826E-2
2.887486833E0,9.171138480E-3,4.998677310E-3,-3.059672534E-2,3.233042155E-2
2.897429833E0,9.015355865E-3,4.214298455E-3,-3.029734790E-2,3.188990817E-2
2.907373833E0,-8.092363738E-3,1.079721261E-2,-2.296143115E-2,2.663256411E-2
2.917316833E0,2.237181254E-3,6.385074982E-3,-3.778061450E-2,3.838162313E-2
2.927260833E0,6.166510172E-3,6.825406866E-3,-3.882902026E-2,3.990369458E-2
2.937204833E0,1.311835622E-2,7.857972616E-4,-2.580727100E-2,2.896073176E-2
2.947147833E0,4.485161584E-3,8.872256682E-3,-2.924952686E-2,3.089285410E-2
2.957091833E0,4.509811252E-3,4.075269483E-3,-3.433835864E-2,3.487218222E-2
2.967034833E0,1.808909252E-3,8.607055759E-3,-2.430921435E-2,2.585133389E-2
2.976978833E0,-4.766339567E-3,8.888144663E-3,-3.284147143E-2,3.435519399E-2
2.986922833E0,1.102200150E-4,9.636665925E-3,-3.553645313E-2,3.682006219E-2
2.996865833E0,1.045893291E-3,1.113577553E-2,-3.014765918E-2,3.215557096E-2
3.006809833E0,9.931313060E-4,7.425870232E-3,-3.808057666E-2,3.881056785E-2
3.016753833E0,6.564851739E-3,8.566604904E-4,-2.835022509E-2,2.911299380E-2
3.026696833E0,5.024265731E-3,6.889817601E-3,-3.613286912E-2,3.712542342E-2
3.036640833E0,-3.325055726E-4,9.012861662E-3,-2.685158372E-2,2.832577949E-2
3.046583833E0,9.528576946E-3,3.247632652E-3,-2.879812181E-2,3.050692899E-2
3.056527833E0,7.760817474E-3,6.313745803E-3,-3.718069017E-2,3.850321279E-2
3.066471833E0,4.023715770E-3,-4.492603079E-4,-3.448629320E-2,3.472314130E-2
3.076414833E0,6.097677480E-3,4.660292545E-3,-2.700185716E-2,2.807134281E-2
3.086358833E0,5.116807055E-3,2.684109528E-3,-3.778061450E-2,3.821990306E-2
3.096302833E0,5.344738830E-3,5.781434476E-4,-3.897870898E-2,3.934768401E-2
3.106245833E0,3.255154090E-3,1.161521524E-2,-3.059555590E-2,3.288764653E-2
3.116189833E0,-7.994057424E-3,7.649391470E-3,-3.029617846E-2,3.225331879E-2
3.126132833E0,-5.032058973E-3,-8.212619950E-4,-2.146512866E-2,2.206236246E-2
3.136076833E0,-6.452100975E-3,6.863404631E-3,-3.703217089E-2,3.821148533E-2
3.146020833E0,-2.299253102E-3,1.042405747E-2,-3.029617846E-2,3.212173669E-2
3.155963833E0,6.815742971E-3,1.348192285E-2,-3.418750048E-2,3.737648706E-2
3.165907833E0,2.435529772E-3,3.437973226E-3,-3.239240527E-2,3.266526266E-2
3.175851833E0,5.076570902E-3,6.597166741E-4,-2.969859302E-2,3.013657621E-2
3.185794833E0,1.369277207E-2,3.831445158E-3,-2.969917774E-2,3.292739190E-2
3.195738833E0,-1.679557879E-3,5.447087944E-3,-2.610606372E-2,2.672111983E-2
3.205681833E0,8.996215370E-4,8.499256857E-3,-2.625575244E-2,2.761179499E-2
3.215625833E0,-6.177948788E-5,1.531470290E-3,-3.074582934E-2,3.078400949E-2
3.225569833E0,4.592987895E-3,9.498463785E-3,-2.595754445E-2,2.801982273E-2
3.235512833E0,1.986938696E-3,1.034149295E-2,-2.116809011E-2,2.364280949E-2
3.245456833E0,5.343039483E-3,4.918572740E-3,-2.955182791E-2,3.043108545E-2
3.255399833E0,2.772694845E-3,9.787807313E-3,-3.104871511E-2,3.267279784E-2
3.265343833E0,-2.773407474E-3,9.867525876E-3,-2.985120535E-2,3.156191244E-2
3.275287833E0,3.584717782E-3,1.532820174E-3,-2.371455252E-2,2.403288873E-2
3.285230833E0,7.205140125E-3,7.884728196E-3,-3.030202568E-2,3.212935952E-2
3.295174833E0,-1.394286845E-3,7.756114576E-3,-3.179949760E-2,3.276140102E-2
3.305118833E0,3.950808300E-3,2.495434040E-3,-3.599136651E-2,3.629345038E-2
3.315061833E0,2.707160348E-3,3.215038993E-3,-3.105222344E-2,3.133537575E-2
3.325005833E0,6.248024013E-4,-1.627878542E-4,-2.820813775E-2,2.821552610E-2
3.334948833E0,-6.752255000E-4,9.222429525E-4,-1.787786186E-2,1.791436312E-2
3.344892833E0,6.943842676E-3,6.081337254E-3,-2.356603324E-2,2.530923817E-2
3.354836833E0,3.305723369E-3,3.523242075E-3,-3.344607353E-2,3.379320755E-2
3.364779833E0,-1.910952302E-3,2.733909076E-3,-2.790759087E-2,2.810622041E-2
3.374723833E0,2.020121645E-3,5.230334401E-4,-3.329580009E-2,3.336112647E-2
3.384667833E0,3.307934348E-3,9.593586107E-3,-2.940272391E-2,3.110465395E-2
3.394606583E0,6.234273920E-3,6.820875274E-3,-2.790466726E-2,2.939491394E-2
3.404550583E0,-9.163409192E-4,4.898806410E-3,-3.329346120E-2,3.366441064E-2
3.414493583E0,8.049569428E-3,6.158282957E-3,-3.928042531E-2,4.056688094E-2
3.424437583E0,3.302306402E-3,2.608232768E-3,-3.404073536E-2,3.429985087E-2
3.434381583E0,-2.339461846E-3,2.721015508E-3,-2.595871389E-2,2.620556876E-2
3.444324583E0,-4.335746951E-3,4.101250763E-3,-3.314377248E-2,3.367682607E-2
3.454268583E0,7.449389286E-3,5.938034789E-3,-3.613637745E-2,3.737099722E-2
3.464212583E0,7.209543809E-3,4.847232141E-3,-3.583583057E-2,3.687383807E-2
3.474155583E0,-7.371328957E-4,8.031004518E-3,-3.329112232E-2,3.425403952E-2
3.484099583E0,6.734466674E-3,5.109861202E-3,-3.388812304E-2,3.492661744E-2
3.494042583E0,1.213746753E-2,9.209899125E-3,-3.059321702E-2,3.417726272E-2
3.503986583E0,3.168843705E-3,1.445177949E-2,-3.748123705E-2,4.029564036E-2
3.513930583E0,7.257609749E-3,1.138263081E-2,-2.969742358E-2,3.262168222E-2
3.523873583E0,5.484450739E-3,2.276953741E-3,-3.373668015E-2,3.425532522E-2
3.533817583E0,2.797984052E-4,-7.415662729E-4,-3.328761399E-2,3.329704871E-2
3.543761583E0,-9.410655051E-3,5.320479737E-3,-3.568204880E-2,3.728373023E-2
3.553704583E0,-9.953788295E-4,6.040324518E-3,-2.999387741E-2,3.061223581E-2
3.563648583E0,-2.128916401E-3,1.009923093E-2,-2.774854660E-2,2.960588774E-2
3.573591583E0,-3.455804950E-3,5.208425615E-3,-1.951683640E-2,2.049334498E-2
3.583535583E0,3.777319584E-3,8.143280195E-3,-3.343847215E-2,3.462242879E-2
3.593479583E0,5.725712338E-3,4.784870215E-3,-2.924835742E-2,3.018518140E-2
3.603422583E0,6.040968625E-3,9.091586655E-3,-2.700361133E-2,2.912636734E-2
3.613366583E0,3.830748517E-3,1.074071160E-2,-3.404190481E-2,3.590109752E-2
3.623310583E0,9.618943837E-4,1.022787196E-2,-2.984945118E-2,3.156777378E-2
3.633253583E0,7.077597734E-3,3.893880174E-3,-2.416186452E-2,2.547646737E-2
3.643197583E0,-1.336825160E-2,6.581205670E-3,-2.461034596E-2,2.876962890E-2
3.653140583E0,-8.732524216E-3,1.872769527E-3,-2.505882740E-2,2.660280202E-2
3.663084583E0,-8.141562575E-3,7.707406813E-4,-2.476003468E-2,2.607562846E-2
3.673028583E0,8.135377318E-3,1.643225656E-2,-3.074816823E-2,3.580018532E-2
3.682971583E0,-4.281934295E-3,6.333763381E-3,-2.446124196E-2,2.562818523E-2
3.692915583E0,-1.010563318E-3,8.380297995E-3,-3.434128225E-2,3.536345994E-2
3.702858583E0,7.649619877E-3,1.346129542E-2,-2.985120535E-2,3.362763179E-2
3.712802583E0,1.809274703E-3,8.841245882E-3,-3.673630178E-2,3.782852062E-2
3.722746583E0,3.981177276E-3,5.507992634E-3,-2.431155324E-2,2.524360070E-2
3.732689583E0,-6.515890444E-3,9.860319640E-3,-2.865194142E-2,3.099381356E-2
3.742633583E0,1.798265493E-3,4.702924686E-3,-3.329170704E-2,3.367029874E-2
3.752577583E0,-3.890956566E-4,4.188620956E-3,-2.550672412E-2,2.585128461E-2
3.762520583E0,-8.203625288E-3,9.441033164E-3,-2.176450610E-2,2.510231664E-2
3.772464583E0,3.956436245E-3,3.200982835E-3,-2.355843186E-2,2.410185451E-2
3.782407583E0,8.458673526E-3,5.663725000E-3,-2.250827193E-2,2.470322335E-2
3.792351583E0,3.003267003E-3,7.533991188E-3,-2.669897139E-2,2.790368630E-2
3.802295583E0,4.374557845E-3,7.374606596E-3,-3.148901045E-2,3.263555359E-2
3.812238583E0,1.315263553E-2,2.413246399E-3,-2.684807539E-2,2.999391158E-2
3.822182583E0,4.835775252E-3,1.060543764E-2,-3.148901045E-2,3.357704289E-2
3.832126583E0,3.226731140E-3,4.636577060E-3,-3.193807662E-2,3.243378452E-2
3.842069583E0,6.607353687E-4,4.238393095E-3,-2.789472699E-2,2.822262109E-2
3.852013583E0,3.945737667E-3,3.258671556E-3,-3.373083293E-2,3.411681223E-2
3.861956583E0,1.896708850E-3,-2.298270953E-3,-3.028682292E-2,3.043306091E-2
3.871900583E0,2.387409015E-3,9.027870276E-3,-1.980802774E-2,2.189886131E-2
3.881844583E0,7.055752901E-3,8.777593458E-3,-2.190250039E-2,2.462822201E-2
3.891787583E0,1.995106526E-3,4.874654668E-3,-3.268008828E-2,3.310182591E-2
3.901731583E0,9.834523369E-3,5.486353368E-3,-2.684573650E-2,2.911205062E-2
3.911675583E0,1.614726875E-3,8.780174456E-3,-3.163577557E-2,3.287128081E-2
3.921618583E0,2.047247244E-3,5.736904275E-3,-2.384962320E-2,2.461519488E-2
3.931562583E0,1.038039749E-2,4.242043037E-3,-3.687137246E-2,3.853888541E-2
3.941505583E0,8.077270612E-3,3.080473091E-3,-3.896584511E-2,3.991326471E-2
3.951449583E0,-1.511939219E-2,2.001444816E-3,-2.714219034E-2,3.113358794E-2
3.961393583E0,-3.474104907E-3,1.084335536E-2,-2.325028360E-2,2.588867412E-2
3.971336583E0,-8.877352439E-4,5.322096858E-3,-3.402845621E-2,3.445357196E-2
3.981280583E0,6.249184320E-3,-2.945496056E-3,-2.414958537E-2,2.511833444E-2
3.991224583E0,1.099386178E-3,6.306989528E-3,-3.103585124E-2,3.168928571E-2
4.001167583E0,1.304120952E-3,7.424180021E-3,-3.268359661E-2,3.354156627E-2
4.011111583E0,-1.899422323E-3,8.252159462E-3,-3.268242717E-2,3.376162002E-2
4.021054583E0,-1.359176142E-3,9.398672828E-3,-3.447869182E-2,3.576258660E-2
4.030998583E0,2.054017223E-4,5.680138317E-3,-2.489919841E-2,2.553969935E-2
4.040942583E0,5.797715317E-3,1.136053017E-2,-3.343087077E-2,3.578125583E-2
4.050885583E0,7.125005862E-3,1.014777653E-2,-2.923841715E-2,3.175890606E-2
4.060829583E0,1.531312689E-3,-1.990616047E-3,-2.774211466E-2,2.785556312E-2
4.070773583E0,1.205440052E-4,9.077902799E-3,-2.669546306E-2,2.819699626E-2
4.080716583E0,1.092023254E-2,6.019484675E-3,-3.163577557E-2,3.400452867E-2
4.090660583E0,3.276374001E-2,2.481579336E-2,1.132488728E-2,4.263260878E-2
4.100603583E0,-1.684601102E-3,9.626536081E-3,-8.971558392E-2,9.024629674E-2
4.110547583E0,-2.749028239E-2,-4.177028851E-2,-2.475009441E-2,5.579462162E-2
4.120491583E0,1.808911080E-2,1.774909521E-2,1.282352865E-2,2.840227450E-2
4.130434583E0,-3.627730449E-2,1.834083800E-2,-1.995713174E-2,4.528483484E-2
4.140378583E0,-6.956630719E-2,-5.458244249E-2,-7.384565592E-2,1.152037110E-1
4.150322583E0,-7.138430703E-2,-6.075833562E-2,-1.095768213E-3,9.374697513E-2
4.160265583E0,2.437631115E-2,3.471950574E-2,-1.102170914E-1,1.180993475E-1
4.170209583E0,1.201260024E-1,9.677557605E-2,1.194065756E-1,1.950735729E-1
4.180152583E0,3.915534971E-2,2.391120398E-2,-1.489858854E-1,1.558899648E-1
4.190096583E0,5.182055586E-2,-2.526802068E-2,-1.022736490E-2,5.855289806E-2
4.200040583E0,1.023265206E-1,9.851624647E-2,2.496761084E-3,1.420647791E-1
4.209983583E0,8.082936930E-2,6.840122206E-2,-3.597382486E-2,1.118312577E-1
4.219927583E0,-7.679835364E-2,-9.330020120E-2,5.789912939E-3,1.209811463E-1
4.229870583E0,-1.825100192E-1,-9.018522497E-2,-1.555751127E-1,2.562165054E-1
4.239814583E0,-1.170759485E-1,-1.374775417E-2,8.033489585E-2,1.426515824E-1
4.249758583E0,-4.638063532E-2,-4.394342448E-3,-1.860934854E-2,5.016753364E-2
4.259701583E0,1.902130315E-2,-3.738717911E-2,-9.225795329E-2,1.013466382E-1
4.269645583E0,4.193607534E-2,9.702152456E-4,-4.899849772E-2,6.450138380E-2
4.279589583E0,1.278874594E-1,1.368517526E-1,5.637300611E-3,1.873909913E-1
4.289532583E0,1.951135464E-1,1.544145866E-1,3.362850666E-2,2.510857164E-1
4.299476583E0,1.776341723E-1,2.921006044E-2,-1.160596293E-1,2.141890855E-1
4.309419583E0,4.418358972E-2,-3.285718583E-2,-3.567503214E-2,6.560862885E-2
4.319363583E0,-9.942423684E-2,-2.633183477E-2,-1.097639322E-2,1.034360943E-1
4.329307583E0,-1.778457684E-1,-2.537972534E-2,2.405076742E-2,1.812503440E-1
4.339250583E0,-2.093965401E-1,-1.209992201E-1,-6.695997477E-2,2.509409502E-1
4.349194583E0,-1.528515710E-1,-1.516008516E-1,-6.875682414E-2,2.259954022E-1
4.359138583E0,-9.468230026E-2,-4.310555502E-2,-1.157631755E-2,1.046749157E-1
4.369081583E0,3.514085244E-4,5.979844208E-2,-9.332740903E-3,6.052336091E-2
4.379025583E0,1.036448302E-1,6.349948291E-2,-4.692975283E-3,1.216406970E-1
4.388968583E0,2.090443367E-1,7.244092631E-2,-6.338966489E-3,2.213309852E-1
4.398913708E0,2.586819168E-1,1.594586872E-1,-1.509353471E-1,3.393005835E-1
4.408857708E0,1.436730321E-1,9.514194623E-2,7.509579062E-2,1.879715613E-1
4.418800708E0,3.198873726E-2,1.352418954E-2,-6.426323891E-2,7.304756593E-2
4.428744708E0,-7.945507262E-2,-2.457525353E-2,-3.189071417E-3,8.322993348E-2
4.438687708E0,-1.525379501E-1,-8.333789790E-2,-8.297374427E-2,1.926075640E-1
4.448631708E0,-1.996929030E-1,-1.054852322E-1,3.243801355E-2,2.281591866E-1
4.458575708E0,-1.980993174E-1,-8.544447611E-2,-6.920121253E-2,2.265676629E-1
4.468518708E0,-7.655457957E-2,-4.391145665E-2,-4.046273232E-2,9.708785910E-2
4.478462708E0,4.356907477E-2,3.260901263E-2,-2.100436807E-2,5.833348489E-2
4.488406708E0,1.401770550E-1,8.228992154E-2,-4.330857217E-2,1.682167363E-1
4.498349708E0,1.714765426E-1,9.960348140E-2,-4.869619668E-2,2.041969092E-1
4.508293708E0,1.911291440E-1,1.069921145E-1,-2.968280554E-2,2.210401122E-1
4.518236708E0,1.334692023E-1,7.816719596E-2,-2.548859775E-2,1.567603493E-1
4.528180708E0,1.899270661E-2,3.844717881E-3,-1.500629425E-2,2.450905194E-2
4.538124708E0,-1.326618389E-1,-5.921445598E-2,-5.557018340E-2,1.555427934E-1
4.548067708E0,-1.943658154E-1,-9.820055164E-2,-1.455313504E-2,2.182503432E-1
4.558011708E0,-1.619421458E-1,-8.003668785E-2,-3.386181056E-2,1.837872471E-1
4.567955708E0,-1.164157704E-1,-6.199861685E-2,-3.685500026E-2,1.369479870E-1
4.577898708E0,-3.912211195E-2,-2.913013402E-2,-4.671340585E-3,4.899924259E-2
4.587842708E0,5.257673789E-2,4.040269329E-2,-3.925060451E-2,7.705388340E-2
4.597785708E0,1.640803081E-1,1.026199686E-1,-2.907177150E-2,1.956997020E-1
4.607729708E0,1.935210938E-1,1.030916014E-1,-6.169981956E-3,2.193544180E-1
4.617673708E0,1.442570776E-1,8.305977143E-2,-2.278367579E-2,1.680122792E-1
4.627616708E0,6.228706274E-2,4.631018094E-2,-3.775020897E-2,8.630984487E-2
4.637560708E0,-2.679664730E-2,-7.031304231E-3,-1.454787254E-2,3.129121508E-2
4.647503708E0,-8.931322239E-2,-4.464752060E-2,-3.729997337E-2,1.065905287E-1
4.657447708E0,-1.526631536E-1,-8.661361774E-2,-3.849689841E-2,1.796940968E-1
4.667391708E0,-1.581701801E-1,-7.586304582E-2,-1.784219384E-2,1.763273985E-1
4.677334708E0,-8.975123366E-2,-3.719748721E-2,-2.548216581E-2,1.004404190E-1
4.687278708E0,2.630150691E-4,6.903282185E-3,-3.035874367E-3,7.545927049E-3
4.697222708E0,8.215591067E-2,3.995513918E-2,-4.286184490E-2,1.009115680E-1
4.707165708E0,1.314348737E-1,7.450594361E-2,-1.338135302E-2,1.516750549E-1
4.717109708E0,1.585437075E-1,8.757911182E-2,-1.308723807E-2,1.815970369E-1
4.727052708E0,1.296397968E-1,9.021333729E-2,-4.454525828E-2,1.641011980E-1
4.736996708E0,1.113439139E-1,-8.647639090E-2,3.868921334E-1,4.117780424E-1
4.746940708E0,6.905182347E-1,3.376471938E-2,3.533010489E-1,7.763872229E-1
4.756883708E0,2.035039208E0,7.982562529E-1,3.353886884E-1,2.211579344E0
4.766827708E0,6.474947874E-1,1.499085486E-1,7.596369284E-1,1.009341536E0
4.776770708E0,6.733684243E-1,6.392965525E-1,1.960150409E-1,9.489715555E-1
4.786714708E0,9.096124551E-1,1.067964191E0,3.750345647E-2,1.403334900E0
4.796658708E0,6.997102770E-1,6.336615908E-1,-8.057580113E-2,9.474249011E-1
4.806601708E0,2.399155340E-1,-3.167283230E-2,-2.510408485E-1,3.486891730E-1
4.816545708E0,-8.957193428E-2,-6.328173991E-1,1.792183292E-1,6.637772228E-1
4.826489708E0,-4.875139805E-1,-9.072261333E-1,9.944739729E-1,1.431679999E0
4.836432708E0,-8.240599425E-1,-9.471501908E-1,2.020073259E0,2.378416332E0
4.846376708E0,-8.664331795E-1,-8.351793732E-1,2.771383168E0,3.021389698E0
4.856319708E0,-4.527428182E-1,-1.000570718E0,2.970007821E0,3.166554007E0
4.866263708E0,-1.693476810E-1,-1.305217963E0,3.168726030E0,3.431194722E0
4.876207708E0,-2.680383207E-1,-1.263163180E0,3.594776382E0,3.819665299E0
4.886150708E0,-5.922611844E-1,-1.096959072E0,3.831452376E0,4.029158699E0
4.896094708E0,-9.847143122E-1,-1.078003934E0,3.983385258E0,4.242536136E0
4.906038708E0,-1.255158634E0,-9.369533046E-1,3.755561364E0,4.069096441E0
4.915981708E0,-1.582958514E0,-6.482711515E-1,3.510398721E0,3.904985573E0
4.925925708E0,-1.964675569E0,-1.696397129E-1,3.596050490E0,4.101256740E0
4.935868708E0,-2.229616857E0,3.898633960E-1,3.826578721E0,4.445884559E0
4.945812708E0,-2.379398256E0,4.607041678E-1,3.710691585E0,4.432044272E0
4.955756708E0,-2.770207293E0,-1.906013963E-1,3.235983628E0,4.264031822E0
4.965699708E0,-2.694401066E0,-8.808634499E-1,2.444246655E0,3.743001367E0
4.975643708E0,-2.038568003E0,-1.041822386E0,1.963745862E0,3.016198136E0
4.985587708E0,-1.555830503E0,-6.272816938E-1,2.177420663E0,2.748681797E0
4.995530708E0,-1.395444009E0,-4.084645584E-1,2.389015610E0,2.796694989E0
5.005474708E0,-1.524967583E0,-5.174493492E-1,2.251161069E0,2.767852257E0
5.015417708E0,-1.823526999E0,-8.834338859E-1,1.639978514E0,2.606767284E0
5.025361708E0,-2.052507326E0,-1.175200884E0,1.129424787E0,2.620970009E0
5.035305708E0,-1.929193056E0,-1.230135182E0,6.300538588E-1,2.373180625E0
5.045248708E0,-2.085585610E0,-1.265267301E0,4.682391822E-1,2.483911554E0
5.055192708E0,-2.234736533E0,-1.238352567E0,6.320653009E-1,2.631932939E0
5.065135708E0,-2.055476835E0,-1.595111074E0,4.090337849E-1,2.633756442E0
5.075079708E0,-1.851965079E0,-2.067308822E0,-9.654396236E-2,2.777203837E0
5.085023708E0,-1.483449428E0,-1.905702306E0,-1.321815723E-1,2.418635039E0
5.094966708E0,-1.113923818E0,-1.215302258E0,2.667628419E-1,1.670014450E0
5.104910708E0,-9.863507286E-1,-9.511583841E-1,4.030491596E-1,1.428299218E0
5.114854708E0,-1.057671264E0,-9.835624838E-1,4.178724360E-1,1.503556130E0
5.124797708E0,-9.875301120E-1,-1.198162315E0,2.387102401E-1,1.570920505E0
5.134741708E0,-7.979043236E-1,-1.942583619E0,-2.599484968E-1,2.116094432E0
5.144684708E0,-7.605786225E-1,-2.193948988E0,-3.801081938E-1,2.352950114E0
5.154628708E0,-5.568475959E-1,-1.626276149E0,-6.232254803E-2,1.720098096E0
5.164572708E0,-5.674518138E-2,-1.096634186E0,1.983667910E-1,1.115874517E0
5.174515708E0,3.275809014E-1,-9.085152251E-1,9.225152135E-3,9.658127482E-1
5.184459708E0,4.724453768E-1,-1.076959475E0,-6.306748331E-2,1.177719768E0
5.194402708E0,8.456541485E-1,-1.443102179E0,-9.839109778E-2,1.675516531E0
5.204346708E0,1.456657194E0,-1.639182124E0,2.972724438E-3,2.192892394E0
5.214290708E0,1.980648116E0,-1.607831107E0,1.203976786E-1,2.553934891E0
5.224233708E0,2.268236401E0,-1.476833012E0,2.365800995E-1,2.716965634E0
5.234177708E0,2.632830762E0,-1.242936199E0,4.245373848E-1,2.942264469E0
5.244121708E0,3.001042503E0,-1.054352385E0,3.913716853E-1,3.204853640E0
5.254064708E0,3.344897375E0,-1.257726731E0,3.943438250E-1,3.595236019E0
5.264008708E0,3.774344959E0,-1.433886382E0,4.383072853E-1,4.061258832E0
5.273951708E0,4.045237690E0,-1.635287878E0,5.013391006E-1,4.391976241E0
5.283895708E0,4.267022579E0,-1.811776142E0,5.065647572E-1,4.663327389E0
5.293839708E0,4.257333158E0,-2.033993726E0,3.636313248E-1,4.732255682E0
5.303782708E0,4.080267189E0,-2.243005373E0,2.366254154E-1,4.662150258E0
5.313726708E0,3.955950122E0,-2.334856945E0,1.242132792E-1,4.595272272E0
5.323669708E0,3.804499635E0,-2.477564090E0,2.191214830E-2,4.540156543E0
5.333613708E0,3.541878961E0,-2.734457417E0,-1.150945464E-1,4.476093240E0
5.343557708E0,3.292124500E0,-3.035531720E0,-2.729901266E-1,4.486319221E0
5.353500708E0,3.065996883E0,-3.394816225E0,-4.139378446E-1,4.593088136E0
5.363444708E0,2.723918395E0,-3.633873205E0,-6.395159693E-1,4.586256269E0
5.373387708E0,2.433892990E0,-3.749266251E0,-9.099612415E-1,4.561673155E0
5.383331708E0,2.182422956E0,-3.965692753E0,-1.024873501E0,4.641126443E0
5.393278958E0,1.741838473E0,-4.033324572E0,-9.459859371E-1,4.494062501E0
5.403221958E0,1.439276345E0,-4.015854846E0,-8.706702912E-1,4.353926194E0
5.413165958E0,1.205152954E0,-4.018532286E0,-7.054537046E-1,4.254252027E0
5.423109958E0,7.951461920E-1,-4.022040031E0,-4.840015946E-1,4.128355728E0
5.433052958E0,4.287643370E-1,-4.192722010E0,-3.755175813E-1,4.231284694E0
5.442996958E0,2.405836880E-1,-4.444593748E0,-2.379068692E-1,4.457453732E0
5.452939958E0,6.787067860E-2,-4.694046493E0,-9.892085552E-2,4.695579223E0
5.462883958E0,-9.618874401E-2,-4.835383050E0,-6.445151925E-2,4.836769120E0
5.472827958E0,-1.667070419E-1,-4.817266622E0,-1.422300124E-1,4.822248264E0
5.482770958E0,-3.989254108E-1,-4.678448460E0,-2.032515550E-1,4.699822621E0
5.492714958E0,-7.097022915E-1,-4.463904762E0,-1.902789589E-1,4.523972718E0
5.502658958E0,-7.899969877E-1,-4.318072280E0,-1.010117833E-1,4.390905014E0
5.512601958E0,-7.197646187E-1,-4.414877028E0,1.525609461E-1,4.475765312E0
5.522545958E0,-6.309265557E-1,-4.725968197E0,4.273425865E-1,4.787010069E0
5.532488958E0,-6.603776653E-1,-4.856154699E0,6.029460939E-1,4.937801243E0
5.542432958E0,-8.311705222E-1,-4.611634666E0,7.382623585E-1,4.743737982E0
5.552376958E0,-8.930604494E-1,-4.422638038E0,7.596877992E-1,4.575413613E0
5.562319958E0,-8.826456812E-1,-4.439497315E0,5.118185170E-1,4.555234132E0
5.572263958E0,-1.066635046E0,-4.435096700E0,1.294480355E-1,4.563392363E0
5.582206958E0,-1.314411102E0,-4.280751257E0,3.360079086E-1,4.490591184E0
5.592150958E0,-1.531312982E0,-3.770453053E0,3.471632631E-1,4.084330790E0
5.602094958E0,-1.958203286E0,-3.023779986E0,-1.136371279E-1,3.604263990E0
5.612037958E0,-2.392730200E0,-2.336024049E0,-4.931974375E-1,3.380149387E0
5.621981958E0,-2.774161180E0,-1.731492117E0,-7.472917020E-1,3.354471656E0
5.631925958E0,-3.235012113E0,-1.028881913E0,-9.643438554E-1,3.529002754E0
5.641868958E0,-3.784772007E0,-1.639711297E-1,-1.078470980E0,3.938843146E0
5.651812958E0,-4.313903508E0,8.141674769E-1,-1.154082495E0,4.539222242E0
5.661755958E0,-4.651481394E0,1.716275908E0,-1.265021718E0,5.116850799E0
5.671699958E0,-4.930656413E0,2.465945672E0,-1.383862867E0,5.683954359E0
5.681643958E0,-5.299099996E0,3.255812706E0,-1.434580446E0,6.382695214E0
5.691586958E0,-5.755167614E0,4.084118750E0,-1.385343382E0,7.191742245E0
5.701530958E0,-6.135093960E0,4.808759508E0,-1.287470348E0,7.900704133E0
5.711474958E0,-6.444432133E0,5.259454120E0,-1.113358977E0,8.392385320E0
5.721417958E0,-6.770647709E0,5.510199684E0,-9.429600030E-1,8.780270185E0
5.731361958E0,-6.889701698E0,5.694852415E0,-6.699119890E-1,8.963711039E0
5.741304958E0,-6.893410002E0,5.765967422E0,-2.434956014E-1,8.990259833E0
5.751248958E0,-6.805676624E0,5.648053640E0,2.907756025E-1,8.848858383E0
5.761192958E0,-6.387449262E0,5.205298963E0,7.789081818E-1,8.276553831E0
5.771135958E0,-6.024282206E0,4.745355810E0,1.069897792E0,7.743065230E0
5.781079958E0,-5.819090545E0,4.405498679E0,1.142676916E0,7.387553311E0
5.791022958E0,-5.625248914E0,3.962465090E0,1.075211742E0,6.964239745E0
5.800966958E0,-5.368067320E0,3.270071141E0,9.303598380E-1,6.354138923E0
5.810910958E0,-5.018341259E0,2.566987898E0,8.928780162E-1,5.707048888E0
5.820853958E0,-4.449019505E0,1.781427923E0,9.892459043E-1,4.893451488E0
5.830797958E0,-3.795659814E0,8.891708815E-1,1.125694336E0,4.057689739E0
5.840741958E0,-3.736391852E0,4.135548520E-1,1.006142019E0,3.891525851E0
5.850684958E0,-3.991220819E0,9.753857374E-2,7.402786978E-1,4.060464253E0
5.860628958E0,-4.134216817E0,-2.745472401E-1,5.095334617E-1,4.174535809E0
5.870571958E0,-4.075877392E0,-7.180714113E-1,4.835765751E-1,4.166803256E0
5.880515958E0,-3.808951120E0,-1.413367333E0,6.820616260E-1,4.119578124E0
5.890459958E0,-3.512713634E0,-2.205704230E0,9.658454204E-1,4.258772781E0
5.900402958E0,-3.419208469E0,-2.609408278E0,1.273502665E0,4.485733737E0
5.910346958E0,-3.447732942E0,-2.875188788E0,1.531264450E0,4.743241910E0
5.920290958E0,-3.412294137E0,-3.416576638E0,1.765648481E0,5.141426043E0
5.930233958E0,-3.462796538E0,-3.848107585E0,1.826823367E0,5.489642563E0
5.940177958E0,-3.710236379E0,-4.036866231E0,1.706865545E0,5.742432668E0
5.950120958E0,-4.121867790E0,-4.016916116E0,1.650292710E0,5.987393021E0
5.960064958E0,-4.409885260E0,-4.259391963E0,1.714127787E0,6.366140273E0
5.970008958E0,-4.512501264E0,-4.576794616E0,1.777434275E0,6.668507270E0
5.979951958E0,-4.225217619E0,-4.849256154E0,1.960420696E0,6.723912439E0
5.989895958E0,-3.707380307E0,-4.929272377E0,2.108404223E0,6.518263823E0
5.999838958E0,-3.457342256E0,-4.854649626E0,2.241890309E0,6.367645611E0
6.009782958E0,-3.226636854E0,-4.759685581E0,2.596819807E0,6.309458402E0
6.019726958E0,-3.033424383E0,-4.742738011E0,2.584719579E0,6.194836773E0
6.029669958E0,-2.936351248E0,-4.861635295E0,2.274763355E0,6.118186391E0
6.039613958E0,-2.967635021E0,-4.769972003E0,2.010944002E0,5.966857323E0
6.049557958E0,-2.999815757E0,-4.578071063E0,1.934061302E0,5.805016999E0
6.059500958E0,-2.701789607E0,-4.435773808E0,1.923585284E0,5.538586165E0
6.069444958E0,-2.268011575E0,-4.123145991E0,1.941128101E0,5.090401524E0
6.079387958E0,-1.743385938E0,-3.801259108E0,2.158853999E0,4.706337847E0
6.089331958E0,-1.117247375E0,-3.852708759E0,2.379053124E0,4.663850367E0
6.099275958E0,-6.126958144E-1,-3.977068511E0,2.477140167E0,4.725324698E0
6.109218958E0,-1.846316814E-1,-3.690668380E0,2.344104316E0,4.376065241E0
6.119162958E0,2.011132282E-1,-3.204004621E0,2.153793819E0,3.865866003E0
6.129105958E0,5.563602304E-1,-2.915977502E0,2.174876394E0,3.680020221E0
6.139049958E0,1.143062832E0,-2.733811299E0,2.183256769E0,3.680615027E0
6.148993958E0,1.855701011E0,-2.528806457E0,2.362169874E0,3.926618755E0
6.158936958E0,2.661442650E0,-2.285062349E0,2.368876630E0,4.232772543E0
6.168880958E0,3.480469748E0,-2.121227167E0,2.220933888E0,4.641747698E0
6.178824958E0,4.317037908E0,-2.261535199E0,2.008650724E0,5.271246104E0
6.188767958E0,5.177801262E0,-2.335844539E0,1.736170474E0,5.939703994E0
6.198711958E0,5.756090305E0,-2.302741697E0,1.539045632E0,6.387789632E0
6.208654958E0,6.082678349E0,-2.205068053E0,1.181732808E0,6.577065717E0
6.218598958E0,6.514873540E0,-2.200695213E0,8.876447582E-1,6.933581317E0
6.228542958E0,7.223311663E0,-2.346054947E0,7.914966524E-1,7.635880575E0
6.238485958E0,8.103763177E0,-2.528436036E0,6.515645957E-1,8.514018019E0
6.248429958E0,8.771797625E0,-2.563613470E0,5.099695909E-1,9.152956712E0
6.258372958E0,9.221231577E0,-2.534611865E0,4.010944355E-1,9.571637574E0
6.268316958E0,9.576125407E0,-2.562446950E0,3.301115763E-1,9.918532444E0
6.278260958E0,9.832242808E0,-2.693661978E0,4.674977187E-1,1.020526176E1
6.288203958E0,9.802552986E0,-2.943297740E0,1.163256776E-1,1.023555462E1
6.298147958E0,8.956694185E0,-3.141592026E0,-1.012398612E-1,9.492218955E0
6.308091958E0,8.351606183E0,-3.178001761E0,3.100592081E-1,8.941205609E0
6.318034958E0,7.657103729E0,-3.154272882E0,1.880721831E-1,8.283480312E0
6.327978958E0,7.046067939E0,-3.114551285E0,4.805616776E-1,7.718707316E0
6.337921958E0,6.481364316E0,-3.165021234E0,5.526682985E-1,7.234008921E0
6.347865958E0,5.806415536E0,-3.152959890E0,5.349301851E-1,6.628858706E0
6.357809958E0,5.224592435E0,-3.070433458E0,5.638961951E-1,6.086206261E0
6.367752958E0,4.580980638E0,-2.943438950E0,8.838581014E-1,5.516377580E0
6.377696958E0,3.862877067E0,-2.816831529E0,1.390912417E0,4.979055779E0
6.387639958E0,3.114315934E0,-3.034918347E0,1.780222228E0,4.698817329E0
6.397580333E0,2.379507453E0,-3.310691164E0,2.032908629E0,4.555814877E0
6.407524333E0,1.773034830E0,-3.349778338E0,2.341950056E0,4.455266265E0
6.417467333E0,1.211626698E0,-3.435566055E0,2.645111669E0,4.501973913E0
6.427411333E0,6.444251454E-1,-3.470538252E0,2.832549429E0,4.525843103E0
6.437354333E0,1.779833972E-1,-3.928632515E0,3.421938242E0,5.213011880E0
6.447298333E0,-1.099481195E-1,-4.371510569E0,3.852873943E0,5.828106971E0
6.457242333E0,2.336290097E-1,-3.870935115E0,3.605899540E0,5.295397310E0
6.467185333E0,-4.731473351E-1,-4.097006013E0,3.687217938E0,5.532169809E0
6.477129333E0,-1.263706679E0,-4.342951598E0,3.734202947E0,5.865360586E0
6.487073333E0,-1.476136608E0,-4.495986680E0,3.691513887E0,6.001678956E0
6.497016333E0,-1.306365041E0,-4.873181791E0,3.516880652E0,6.150035765E0
6.506960333E0,-1.332200378E0,-5.351198103E0,3.342590356E0,6.448487363E0
6.516903333E0,-1.384342924E0,-5.594203123E0,3.294358428E0,6.638095462E0
6.526847333E0,-1.548024032E0,-5.640780873E0,3.251623176E0,6.692371817E0
6.536791333E0,-2.009640073E0,-5.706296586E0,3.363330722E0,6.921883233E0
6.546734333E0,-2.297255840E0,-5.711296540E0,3.235150107E0,6.954314400E0
6.556678333E0,-2.252948855E0,-5.648714960E0,2.977585520E0,6.771246176E0
6.566621333E0,-2.178401972E0,-5.628449680E0,2.773461269E0,6.642060551E0
6.576565333E0,-2.139505417E0,-5.386091947E0,2.665287487E0,6.378967571E0
6.586509333E0,-1.878447849E0,-4.926584412E0,2.303162405E0,5.753638618E0
6.596452333E0,-1.743690286E0,-4.750088546E0,1.848606876E0,5.387127657E0
6.606396333E0,-1.521028168E0,-4.682425736E0,1.546292086E0,5.160393074E0
6.616340333E0,-1.156321686E0,-4.570976636E0,1.431145792E0,4.927381204E0
6.626283333E0,-1.014889526E0,-4.564373960E0,1.181283742E0,4.822752501E0
6.636227333E0,-1.143764206E0,-4.325907549E0,1.228062637E0,4.640022686E0
6.646170333E0,-1.234519132E0,-3.977170837E0,1.302631301E0,4.363344321E0
6.656114333E0,-1.044162442E0,-3.800283208E0,9.405301926E-1,4.051792777E0
6.666058333E0,-1.030791614E0,-3.461019570E0,5.012475917E-1,3.645879450E0
6.676001333E0,-1.389169508E0,-2.835939353E0,7.661694378E-2,3.158831127E0
6.685945333E0,-2.212001389E0,-2.302511902E0,-1.328396764E-1,3.195646661E0
6.695889333E0,-2.940186437E0,-1.740703236E0,-5.129016772E-1,3.455113915E0
6.705832333E0,-3.589116862E0,-8.693406343E-1,-9.927192235E-1,3.824003719E0
6.715776333E0,-4.419567080E0,-2.393850088E-2,-1.327386073E0,4.614661419E0
6.725719333E0,-5.077222136E0,4.634894890E-1,-1.735507692E0,5.385628475E0
6.735663333E0,-5.377622840E0,8.367886001E-1,-1.997297477E0,5.797261404E0
6.745607333E0,-5.679734439E0,1.077299783E0,-1.801137426E0,6.055084983E0
6.755550333E0,-6.050307578E0,1.353284268E0,-1.264629662E0,6.327470923E0
6.765494333E0,-6.306029123E0,1.908446989E0,-5.334028924E-1,6.610044770E0
6.775438333E0,-6.610497735E0,2.652964772E0,1.545603284E-1,7.124660784E0
6.785381333E0,-7.125267890E0,3.046604592E0,6.948173270E-1,7.780360735E0
6.795325333E0,-7.563231359E0,3.206697848E0,1.260432530E0,8.311081148E0
6.805268333E0,-7.875287903E0,3.470567488E0,1.428663941E0,8.723879808E0
6.815212333E0,-8.270635695E0,3.498751068E0,1.221100065E0,9.062878086E0
6.825156333E0,-8.423069099E0,3.329122172E0,7.379107216E-1,9.087115038E0
6.835099333E0,-8.250098519E0,3.299247578E0,5.669723421E-2,8.885514883E0
6.845043333E0,-8.140490123E0,3.195767648E0,-6.813362789E-1,8.771814489E0
6.854986333E0,-7.800367529E0,2.942738746E0,-1.228798509E0,8.427062993E0
6.864930333E0,-7.279175962E0,2.819360157E0,-1.614948631E0,7.971402226E0
6.874874333E0,-7.002107987E0,2.777367793E0,-1.981345688E0,7.789031959E0
6.884817333E0,-6.817699669E0,2.478865095E0,-2.012068129E0,7.528228151E0
6.894761333E0,-6.147762537E0,1.690169844E0,-1.600429994E0,6.573662182E0
6.904705333E0,-5.189718472E0,6.945439696E-1,-7.556628683E-1,5.290235865E0
6.914648333E0,-4.565096676E0,1.007381701E-1,-1.414631501E-1,4.568398808E0
6.924592333E0,-4.528380840E0,-1.278593105E-1,1.908560425E-2,4.530225744E0
6.934535333E0,-4.706194668E0,-5.333210313E-1,-5.450540543E-2,4.736630703E0
6.944479333E0,-4.785733758E0,-9.637848616E-1,1.301824093E-2,4.881833501E0
6.954423333E0,-4.572932530E0,-1.180247616E0,4.947030956E-1,4.748623749E0
6.964366333E0,-4.326634358E0,-1.449194977E0,9.879028720E-1,4.668606113E0
6.974310333E0,-3.915128078E0,-1.573401532E0,1.659378991E0,4.534022374E0
6.984253333E0,-3.542464267E0,-1.689115591E0,2.223718624E0,4.510774776E0
6.994197333E0,-3.375889080E0,-1.854225174E0,2.546086733E0,4.617070037E0
7.004141333E0,-3.271417755E0,-2.262604655E0,2.974567188E0,4.966850502E0
7.014084333E0,-2.936228456E0,-2.831496053E0,3.729772219E0,5.527206189E0
7.024028333E0,-2.625136119E0,-2.964887415E0,3.993840956E0,5.624292187E0
7.033972333E0,-2.833159294E0,-2.711119425E0,3.978637903E0,5.586279592E0
7.043915333E0,-3.560248281E0,-2.626741179E0,3.759754402E0,5.806108009E0
7.053859333E0,-4.326952154E0,-2.882032369E0,3.178076605E0,6.093340334E0
7.063802333E0,-4.858467565E0,-3.121087595E0,2.684737665E0,6.368179582E0
7.073746333E0,-5.097677450E0,-3.280039474E0,2.437367991E0,6.533432257E0
7.083690333E0,-5.077727335E0,-3.421106476E0,2.389755283E0,6.572534878E0
7.093633333E0,-4.592476264E0,-3.571021484E0,2.618281428E0,6.379532138E0
7.103577333E0,-3.882923661E0,-3.709101727E0,3.328998211E0,6.317971262E0
7.113520333E0,-3.271695498E0,-3.631722014E0,3.878848736E0,6.240101260E0
7.123464333E0,-2.843080557E0,-3.471684306E0,4.063700565E0,6.053871593E0
7.133408333E0,-2.856397006E0,-3.158884581E0,3.910632154E0,5.781920053E0
7.143351333E0,-3.219745910E0,-2.887921977E0,3.567061749E0,5.606316669E0
7.153295333E0,-3.418529023E0,-2.712307871E0,3.155995472E0,5.385467676E0
7.163239333E0,-3.227149655E0,-2.739501225E0,2.886456080E0,5.123572050E0
7.173182333E0,-2.497706578E0,-3.111487928E0,3.135493672E0,5.074565582E0
7.183126333E0,-9.295090681E-1,-3.461428290E0,3.858901545E0,5.266554286E0
7.193069333E0,2.289892441E-1,-3.215843478E0,4.229859723E0,5.318439492E0
7.203013333E0,7.540265250E-1,-2.865660165E0,3.942481645E0,4.931908931E0
7.212957333E0,9.658571148E-1,-2.890075214E0,3.106340624E0,4.351409747E0
7.222900333E0,1.125159827E0,-3.044025970E0,2.265300514E0,3.957734852E0
7.232844333E0,1.674259570E0,-3.315195566E0,1.783277982E0,4.119920765E0
7.242787333E0,2.772223413E0,-3.701691551E0,1.624206527E0,4.901610942E0
7.252731333E0,4.050749860E0,-3.977916357E0,1.585886215E0,5.894694908E0
7.262675333E0,5.144355773E0,-4.108631740E0,1.667242327E0,6.791535030E0
7.272618333E0,6.109310077E0,-3.743252682E0,1.212893790E0,7.266823351E0
7.282562333E0,6.161123425E0,-4.303672050E0,1.544501084E0,7.672451927E0
7.292506333E0,6.506102132E0,-4.718458033E0,1.460562988E0,8.168626286E0
7.302449333E0,7.262103261E0,-4.517600621E0,1.221290392E0,8.639352370E0
7.312393333E0,7.664215697E0,-4.552392139E0,1.157502093E0,8.989120509E0
7.322336333E0,7.840889903E0,-4.733576886E0,1.005569211E0,9.213982529E0
7.332280333E0,7.707997309E0,-4.990155340E0,1.062089421E0,9.243533241E0
7.342224333E0,7.386953010E0,-4.836702767E0,1.180232559E0,8.908070348E0
7.352167333E0,6.989492619E0,-4.388272197E0,1.436193401E0,8.376908226E0
7.362111333E0,6.526652171E0,-4.080811273E0,1.622565360E0,7.866570253E0
7.372054333E0,6.027070159E0,-3.841640564E0,1.719968132E0,7.351330988E0
7.381998333E0,5.590167959E0,-3.628869157E0,1.902721688E0,6.931018612E0
7.391942333E0,5.254974568E0,-3.399737534E0,2.132193912E0,6.612051413E0
7.401888458E0,4.864515633E0,-3.045595363E0,2.201118551E0,6.146876144E0
7.411832458E0,4.169814958E0,-3.452734650E0,2.564996336E0,5.990654351E0
7.421776458E0,3.554227111E0,-3.832686723E0,3.037455162E0,6.045506739E0
7.431719458E0,3.114013633E0,-3.706102982E0,3.344806451E0,5.883877159E0
7.441663458E0,2.494998148E0,-3.649851306E0,3.539890323E0,5.663678470E0
7.451606458E0,1.790873516E0,-3.920513071E0,3.617220334E0,5.626893783E0
7.461550458E0,1.180266911E0,-4.168697555E0,3.744222443E0,5.726278983E0
7.471494458E0,7.188502604E-1,-3.885239451E0,3.531064243E0,5.299079729E0
7.481437458E0,3.274002224E-1,-3.841938187E0,3.336627073E0,5.099094054E0
7.491381458E0,-1.350022691E-1,-4.277096747E0,3.434773757E0,5.487208121E0
7.501324458E0,-7.229772252E-1,-4.486489048E0,3.892036839E0,5.983245842E0
7.511268458E0,-1.318320258E0,-4.392202696E0,4.206408588E0,6.222803711E0
7.521212458E0,-1.622297704E0,-4.046039928E0,4.152193789E0,6.020216125E0
7.531155458E0,-1.790423865E0,-4.060466763E0,3.897078601E0,5.905948659E0
7.541099458E0,-1.949872758E0,-4.250760888E0,3.896271100E0,6.087027220E0
7.551043458E0,-1.869095520E0,-4.401757046E0,4.046788371E0,6.264621240E0
7.560986458E0,-1.645959631E0,-4.617902881E0,4.157612404E0,6.428059662E0
7.570930458E0,-1.847202375E0,-4.461041965E0,4.263115470E0,6.441056244E0
7.580873458E0,-1.957741356E0,-4.289394611E0,4.300491457E0,6.381683486E0
7.590817458E0,-2.084052324E0,-3.905175240E0,4.088242207E0,6.025561557E0
7.600761458E0,-1.910247493E0,-3.526266895E0,3.820026916E0,5.538610777E0
7.610704458E0,-1.329120357E0,-3.725409027E0,3.792365201E0,5.479714149E0
7.620648458E0,-9.917114559E-1,-4.094047907E0,3.806590599E0,5.677574470E0
7.630591458E0,-1.312462225E0,-4.119596146E0,3.540266299E0,5.588122669E0
7.640535458E0,-1.900001563E0,-3.490978364E0,3.029610537E0,4.997546986E0
7.650479458E0,-2.347376857E0,-2.959733094E0,2.329486862E0,4.438097243E0
7.660422458E0,-2.683243116E0,-2.786547337E0,2.103734929E0,4.403446416E0
7.670366458E0,-2.872184488E0,-2.988855152E0,2.004930140E0,4.604611137E0
7.680310458E0,-2.365292579E0,-3.024017383E0,1.742479328E0,4.216102978E0
7.690253458E0,-2.040696681E0,-2.675905153E0,1.511759015E0,3.689217621E0
7.700197458E0,-2.233532591E0,-1.902422018E0,1.095458018E0,3.131757596E0
7.710140458E0,-2.393829038E0,-1.068269928E0,4.529057363E-1,2.660214598E0
7.720084458E0,-2.921561008E0,-6.536988294E-1,1.234146957E-1,2.996343117E0
7.730028458E0,-3.344345106E0,-6.392328179E-1,5.906389475E-2,3.405400318E0
7.739971458E0,-3.743080482E0,-6.066065240E-1,-1.175781512E-1,3.793737944E0
7.749915458E0,-4.243663245E0,-2.478587937E-1,-3.547997633E-1,4.265676335E0
7.759858458E0,-5.034755563E0,4.321630311E-1,-3.607919168E-1,5.066132575E0
7.769802458E0,-5.894934779E0,7.739573443E-1,-3.807753611E-1,5.957705590E0
7.779746458E0,-6.470753374E0,1.265404710E0,-4.181343913E-2,6.593454836E0
7.789689458E0,-6.111641362E0,2.622695491E0,-5.300009457E-1,6.671700891E0
7.799633458E0,-6.028578740E0,3.535160510E0,-8.543284929E-1,7.040667485E0
7.809577458E0,-6.385616745E0,3.682958826E0,-5.026319565E-1,7.388702579E0
7.819520458E0,-6.361306361E0,3.942420250E0,-1.562710775E-1,7.485540508E0
7.829464458E0,-6.206870871E0,4.661500306E0,1.221936509E-2,7.762408158E0
7.839407458E0,-6.067869691E0,5.156184105E0,3.400657301E-1,7.970001368E0
7.849351458E0,-5.522033279E0,5.087849450E0,7.490657473E-1,7.545870596E0
7.859295458E0,-5.362641689E0,4.869056581E0,1.458725939E0,7.388742737E0
7.869238458E0,-5.452113444E0,4.684251822E0,1.909984222E0,7.437458965E0
7.879182458E0,-5.417747018E0,4.844662582E0,1.860450704E0,7.502267331E0
7.889126458E0,-5.359256735E0,4.781512653E0,1.585381308E0,7.355129495E0
7.899069458E0,-5.181759242E0,4.352658561E0,1.350413285E0,6.900716008E0
7.909013458E0,-4.838430912E0,3.744774420E0,1.326547290E0,6.260469380E0
7.918956458E0,-4.296571776E0,3.092317539E0,1.344350308E0,5.461706193E0
7.928900458E0,-4.003785316E0,2.829082323E0,1.191357252E0,5.045129904E0
7.938844458E0,-3.855593775E0,2.722637270E0,8.011784720E-1,4.787509165E0
7.948787458E0,-3.767933195E0,2.321327072E0,6.650131917E-1,4.475279040E0
7.958731458E0,-3.757853765E0,1.853353938E0,6.398304033E-1,4.238604568E0
7.968674458E0,-3.824659081E0,1.510749786E0,5.695048078E-1,4.151471754E0
7.978618458E0,-3.776296175E0,8.147978067E-1,7.634054589E-1,3.937905047E0
7.988562458E0,-3.396539399E0,-4.485071683E-1,1.319997093E0,3.671516157E0
7.998505458E0,-3.192814220E0,-1.107350963E0,1.669074844E0,3.769097986E0
8.008449458E0,-3.213784089E0,-1.203014334E0,1.565629413E0,3.771849297E0
8.018393458E0,-3.406900080E0,-1.054958741E0,1.435489104E0,3.844546146E0
8.028336458E0,-3.331341190E0,-1.067212751E0,1.452430826E0,3.787655276E0
8.038280458E0,-2.978070255E0,-1.484972336E0,1.644878920E0,3.712098051E0
8.048223458E0,-2.594891396E0,-2.138786355E0,1.982984955E0,3.903856780E0
8.058167458E0,-2.150485172E0,-2.752063383E0,2.305342100E0,4.184858604E0
8.068111458E0,-1.830750065E0,-3.385860629E0,2.618505961E0,4.655348694E0
8.078054458E0,-1.764114172E0,-3.592490705E0,2.857899156E0,4.917893437E0
8.087998458E0,-1.741826925E0,-3.547585843E0,2.809212607E0,4.848814476E0
8.097941458E0,-1.831059675E0,-3.316171759E0,2.474740177E0,4.524832992E0
8.107885458E0,-1.887845787E0,-2.947496041E0,2.084436193E0,4.073888667E0
8.117829458E0,-1.953643920E0,-2.845296067E0,1.908659535E0,3.944035433E0
8.127772458E0,-1.819375476E0,-2.994762594E0,1.881546289E0,3.977303930E0
8.137716458E0,-1.347354607E0,-3.763713552E0,2.175717369E0,4.551334992E0
8.147660458E0,-9.840919492E-1,-4.690052844E0,2.409805970E0,5.363972172E0
8.157603458E0,-8.133743021E-1,-4.851738297E0,2.432494483E0,5.487984299E0
8.167547458E0,-6.943276227E-1,-4.767612067E0,2.257438201E0,5.320549117E0
8.177490458E0,-9.712052706E-1,-4.294702129E0,1.944449904E0,4.813376308E0
8.187434458E0,-1.001256158E0,-3.542346153E0,1.495360791E0,3.973264912E0
8.197378458E0,-7.685890156E-1,-3.145697356E0,9.614016826E-1,3.377933410E0
8.207321458E0,-7.699239349E-1,-3.180312288E0,7.142397308E-1,3.349224911E0
8.217265458E0,-6.564224625E-1,-3.991008857E0,8.732325411E-1,4.137822763E0
8.227209458E0,-1.114321429E-1,-5.485769432E0,1.305781635E0,5.640137327E0
8.237152458E0,-1.288246858E-1,-5.826153397E0,1.712023959E0,6.073852586E0
8.247096458E0,-3.372586280E-1,-4.837418466E0,1.684187704E0,5.133307805E0
8.257039458E0,-4.318472815E-1,-3.567747627E0,1.165113852E0,3.777936672E0
8.266983458E0,-2.402574134E-1,-2.681259449E0,5.017975223E-1,2.738371160E0
8.276927458E0,3.485303056E-1,-2.442028221E0,2.323778518E-1,2.477695436E0
8.286870458E0,1.147434795E0,-2.973636019E0,3.872891593E-1,3.210780384E0
8.296814458E0,1.706608706E0,-3.455074121E0,6.643373998E-1,3.910421286E0
8.306757458E0,1.776530296E0,-3.207968448E0,8.053485601E-1,3.754425091E0
8.316701458E0,1.637862407E0,-2.871795064E0,9.797068298E-1,3.448133644E0
8.326645458E0,1.368854819E0,-2.597006918E0,9.561413813E-1,3.087460897E0
8.336588458E0,1.586550751E0,-2.118500025E0,7.093806946E-1,2.740147188E0
8.346532458E0,2.341542651E0,-1.384204345E0,2.172369254E-1,2.728742483E0
8.356475458E0,3.125968266E0,-1.254445274E0,-1.303813608E-1,3.370802552E0
8.366419458E0,4.063449427E0,-1.293027542E0,-1.506290261E-1,4.266875974E0
8.376363458E0,4.882885830E0,-1.274066191E0,-9.590142645E-2,5.047278056E0
8.386306458E0,5.198505083E0,-1.059694986E0,5.235253371E-2,5.305671432E0
8.396250125E0,5.526941432E0,-6.715895551E-1,7.308091320E-2,5.568074617E0
8.406194125E0,5.956683716E0,-5.928562117E-1,-1.941853009E-2,5.986145375E0
8.416137125E0,6.238568042E0,-6.544876188E-1,-1.806239267E-1,6.275405187E0
8.426081125E0,6.559266770E0,-5.756601351E-1,-2.485709115E-1,6.589169345E0
8.436024125E0,6.909072354E0,-4.243394566E-1,-1.816648042E-1,6.924474483E0
8.445968125E0,7.002841228E0,-2.736333203E-1,-1.582724333E-1,7.009972227E0
8.455912125E0,6.836738788E0,-1.352689022E-1,-9.920868471E-2,6.838796480E0
8.465855125E0,6.722361403E0,9.601712823E-3,-5.007555485E-3,6.722370125E0
8.475799125E0,6.505939579E0,-1.150381207E-2,1.156988561E-1,6.506978436E0
8.485742125E0,6.244346845E0,-1.345216280E-1,2.063330376E-1,6.249202902E0
8.495686125E0,5.986211570E0,-1.721209788E-1,3.677723229E-1,5.999967589E0
8.505630125E0,5.797155300E0,-4.196844882E-1,5.220126624E-1,5.835721195E0
8.515573125E0,5.288570330E0,-7.958013725E-1,7.928508675E-1,5.406559762E0
8.525517125E0,4.660713270E0,-1.021101608E0,9.456563003E-1,4.864068515E0
8.535461125E0,4.058274642E0,-1.188279351E0,1.057090051E0,4.358788852E0
8.545404125E0,3.397945654E0,-1.360989144E0,1.106116616E0,3.823848858E0
8.555348125E0,2.855721653E0,-1.641654911E0,1.055610706E0,3.458972530E0
8.565291125E0,2.566842887E0,-2.125645323E0,1.025814464E0,3.487025345E0
8.575235125E0,2.387036912E0,-2.720308324E0,1.075258520E0,3.775473942E0
8.585179125E0,2.018851776E0,-3.198978354E0,1.242244474E0,3.981506792E0
8.595122125E0,1.759466366E0,-3.486438586E0,1.471954679E0,4.173443001E0
8.605066125E0,1.273055207E0,-3.647885472E0,1.603994749E0,4.183364332E0
8.615009125E0,6.963753176E-1,-3.706470480E0,1.632216920E0,4.109378794E0
8.624953125E0,3.918242598E-1,-3.849446012E0,1.594720188E0,4.185079848E0
8.634897125E0,2.740914497E-1,-4.335208715E0,1.698493063E0,4.664122577E0
8.644840125E0,2.362582102E-1,-4.785759485E0,1.770312659E0,5.108161969E0
8.654784125E0,1.298514569E-1,-5.052479058E0,1.759321063E0,5.351599446E0
8.664728125E0,-1.899023616E-1,-5.289129909E0,1.731129297E0,5.568461793E0
8.674671125E0,-8.547512466E-1,-5.155464898E0,1.864064576E0,5.548347028E0
8.684615125E0,-1.495110823E0,-4.919068401E0,1.628557440E0,5.393031582E0
8.694558125E0,-1.889508442E0,-5.026371825E0,1.265616672E0,5.516923185E0
8.704502125E0,-1.758880475E0,-5.122805275E0,1.145551700E0,5.536161405E0
8.714446125E0,-1.280948364E0,-5.172359843E0,1.044814407E0,5.430080312E0
8.724389125E0,-1.136266906E0,-5.313439708E0,1.297422894E0,5.586327074E0
8.734333125E0,-1.303669474E0,-5.127304707E0,1.516968884E0,5.503635367E0
8.744277125E0,-1.555646754E0,-4.563382857E0,1.474167412E0,5.041593943E0
8.754220125E0,-2.004931602E0,-4.243724349E0,1.329015985E0,4.878035523E0
8.764164125E0,-2.236739497E0,-4.343745650E0,1.110291528E0,5.010376944E0
8.774107125E0,-1.792527693E0,-4.536303817E0,9.917803068E-1,4.977432674E0
8.784051125E0,-1.567165184E0,-4.422438648E0,1.170300478E0,4.835656472E0
8.793995125E0,-1.536992967E0,-4.136375901E0,1.512984738E0,4.664876825E0
8.803938125E0,-1.357421904E0,-3.579245008E0,1.943413192E0,4.293069285E0
8.813882125E0,-1.141564776E0,-2.806476987E0,2.007271950E0,3.634367056E0
8.823825125E0,-1.202378157E0,-2.253434467E0,1.803032216E0,3.126436518E0
8.833769125E0,-1.429975472E0,-1.972134862E0,1.607142305E0,2.918398902E0
8.843713125E0,-1.491659504E0,-1.799718014E0,1.344313470E0,2.696518443E0
8.853656125E0,-1.732070991E0,-1.563180014E0,9.847108769E-1,2.532440955E0
8.863600125E0,-1.965693862E0,-1.231968577E0,6.473522615E-1,2.408477503E0
8.873544125E0,-2.631950756E0,-6.949497664E-1,6.423423672E-1,2.796913241E0
8.883487125E0,-3.206267201E0,2.621809638E-1,5.061268008E-1,3.256539968E0
8.893431125E0,-3.612943973E0,1.153559754E0,4.277904467E-1,3.816682974E0
8.903374125E0,-4.033568694E0,1.966789922E0,3.235404023E-1,4.499179636E0
8.913318125E0,-4.475690702E0,2.854199622E0,2.061148634E-1,5.312320217E0
8.923262125E0,-4.888371396E0,3.555283703E0,1.212162888E-1,6.045734901E0
8.933205125E0,-5.268204478E0,4.000925151E0,1.313155266E-1,6.616541714E0
8.943149125E0,-5.623511707E0,4.463239934E0,3.315651210E-1,7.187094688E0
8.953092125E0,-5.712304600E0,5.004352380E0,4.953854656E-1,7.610477866E0
8.963036125E0,-5.788640585E0,5.361738878E0,8.724314725E-1,7.938371388E0
8.972980125E0,-5.715748025E0,5.514478092E0,1.363692166E0,8.058467623E0
8.982923125E0,-5.573163671E0,5.483526440E0,1.775915315E0,8.017673649E0
8.992867125E0,-5.365591024E0,5.425831379E0,2.047002465E0,7.900596957E0
9.002811125E0,-4.992519954E0,5.517802818E0,2.055242361E0,7.719807290E0
9.012754125E0,-4.743798696E0,5.486962849E0,1.929187063E0,7.505474675E0
9.022698125E0,-4.606012860E0,5.263164178E0,1.763861864E0,7.213006330E0
9.032641125E0,-4.439603734E0,4.923608764E0,1.567425678E0,6.812402501E0
9.042585125E0,-4.272202335E0,4.445903524E0,1.335912775E0,6.308917014E0
9.052529125E0,-4.066630313E0,3.840779269E0,1.130575592E0,5.706773928E0
9.062472125E0,-3.935081994E0,3.388242785E0,9.693374506E-1,5.282487535E0
9.072416125E0,-3.811933785E0,3.027772465E0,7.629540539E-1,4.927508921E0
9.082359125E0,-3.655499132E0,2.664250483E0,6.106750166E-1,4.564408890E0
9.092303125E0,-3.474705270E0,2.161827893E0,5.913230717E-1,4.134820375E0
9.102247125E0,-3.421652606E0,1.545646554E0,6.408361244E-1,3.808858196E0
9.112190125E0,-3.421786799E0,1.136654284E0,7.488903308E-1,3.682586671E0
9.122134125E0,-3.358067644E0,9.718312150E-1,8.216203380E-1,3.591118794E0
9.132078125E0,-3.287071628E0,7.367070723E-1,9.522202384E-1,3.500614315E0
9.142021125E0,-2.937604306E0,-1.860560632E-1,1.412658066E0,3.264925532E0
9.151965125E0,-2.641698357E0,-1.533485515E0,1.979496506E0,3.639856378E0
9.161908125E0,-2.847469185E0,-2.080557443E0,2.206311171E0,4.159880889E0
9.171852125E0,-3.149134934E0,-1.666765194E0,1.934125767E0,4.054133635E0
9.181796125E0,-3.378267435E0,-1.268831763E0,1.529491282E0,3.919434715E0
9.191739125E0,-3.456907808E0,-1.327382857E0,1.362581341E0,3.945729939E0
9.201683125E0,-3.474999970E0,-1.567213424E0,1.533542379E0,4.108957889E0
9.211627125E0,-3.247245658E0,-1.861651722E0,1.742705615E0,4.128846613E0
9.221570125E0,-2.814500829E0,-2.212612131E0,2.091191189E0,4.146100330E0
9.231514125E0,-2.398805165E0,-2.815213312E0,2.599484676E0,4.520731444E0
9.241457125E0,-1.881111987E0,-3.929833533E0,3.257610432E0,5.440055113E0
9.251401125E0,-1.859014482E0,-4.667341089E0,3.615327298E0,6.189555651E0
9.261345125E0,-2.201187256E0,-4.315552715E0,3.118834662E0,5.761627394E0
9.271288125E0,-2.446877317E0,-3.635942534E0,2.257942085E0,4.930069896E0
9.281232125E0,-2.813316768E0,-3.415481454E0,1.765856788E0,4.764295855E0
9.291175125E0,-2.869717256E0,-3.373287946E0,1.558741393E0,4.695106327E0
9.301119125E0,-2.404154052E0,-3.534730740E0,1.645341873E0,4.580548874E0
9.311063125E0,-1.886321710E0,-3.921166205E0,2.134603257E0,4.846677735E0
9.321006125E0,-1.597416924E0,-4.274715176E0,2.645109330E0,5.274612217E0
9.330950125E0,-1.429485475E0,-4.188817239E0,2.864415877E0,5.272048644E0
9.340894125E0,-1.137195151E0,-4.072703816E0,2.747887301E0,5.042917192E0
9.350837125E0,-1.020059342E0,-4.332171087E0,2.519096570E0,5.114105485E0
9.360781125E0,-1.056997665E0,-4.483262554E0,2.262470461E0,5.131828113E0
9.370724125E0,-9.002133483E-1,-4.283640951E0,1.888874312E0,4.767369299E0
9.380668125E0,-7.590644860E-1,-4.155760006E0,1.656813525E0,4.537791443E0
9.390612125E0,-6.559716421E-1,-3.908146210E0,1.569148560E0,4.262174656E0
9.400551708E0,-4.399029905E-1,-3.614309590E0,1.319223068E0,3.872608676E0
9.410495708E0,1.141721481E-1,-3.588007060E0,1.537538366E0,3.905234202E0
9.420438708E0,6.320536065E-1,-3.627520790E0,1.956068029E0,4.169484497E0
9.430382708E0,6.317214847E-1,-3.511630145E0,2.009578092E0,4.094999684E0
9.440326708E0,4.069790733E-1,-3.181039681E0,1.605451291E0,3.586379688E0
9.450269708E0,2.963444906E-1,-2.713693369E0,1.187002611E0,2.976730918E0
9.460213708E0,4.939376950E-1,-2.197871300E0,1.013584428E0,2.470215798E0
9.470157708E0,9.388002938E-1,-1.908418338E0,1.074492534E0,2.382842997E0
9.480100708E0,1.517905024E0,-1.975474207E0,1.150675907E0,2.744191875E0
9.490044708E0,2.106780451E0,-2.037086903E0,1.289536754E0,3.201742019E0
9.499987708E0,2.707351479E0,-2.010524756E0,1.319542472E0,3.621208936E0
9.509931708E0,3.253202509E0,-1.820929374E0,1.271996423E0,3.939173168E0
9.519875708E0,3.749541070E0,-1.338758031E0,1.078567094E0,4.124880396E0
9.529818708E0,4.259877867E0,-9.175041497E-1,7.633937645E-1,4.423928496E0
9.539762708E0,4.752257863E0,-7.740824747E-1,5.247887743E-1,4.843403941E0
9.549705708E0,5.273345350E0,-6.873138875E-1,3.909437422E-1,5.332298620E0
9.559649708E0,5.873646821E0,-4.811714691E-1,3.509907409E-1,5.903765533E0
9.569593708E0,6.523654888E0,-2.267404050E-1,2.420677114E-1,6.532080916E0
9.579536708E0,7.134158581E0,-1.595833790E-1,2.081024782E-1,7.138976969E0
9.589480708E0,7.635925114E0,-2.429921561E-1,2.557631329E-1,7.644070402E0
9.599424708E0,8.042059264E0,-2.824275327E-1,3.105678427E-1,8.053007817E0
9.609367708E0,8.344174957E0,-3.711695552E-1,5.180119244E-1,8.368474108E0
9.619311708E0,8.476629009E0,-4.504028356E-1,7.711308002E-1,8.523540625E0
9.629254708E0,8.370043623E0,-4.178741902E-1,9.483821261E-1,8.433959791E0
9.639198708E0,8.148406084E0,-3.554329437E-1,9.786216597E-1,8.214654870E0
9.649142708E0,7.730952308E0,-5.285087729E-1,1.004129626E0,7.813784065E0
9.659085708E0,7.168201656E0,-7.459117591E-1,1.107065034E0,7.291439660E0
9.669029708E0,6.603894475E0,-8.339871991E-1,1.225750648E0,6.768265770E0
9.678972708E0,6.003080787E0,-9.021756738E-1,1.344119489E0,6.217520171E0
9.688916708E0,5.304057266E0,-1.176822901E0,1.472426111E0,5.629029603E0
9.698860708E0,4.594076062E0,-1.527861078E0,1.662346892E0,5.118915073E0
9.708803708E0,4.000866094E0,-1.777781015E0,1.790417287E0,4.730013625E0
9.718747708E0,3.479675111E0,-2.013800367E0,1.905677602E0,4.449172723E0
9.728691708E0,2.999094796E0,-2.361928968E0,2.024576931E0,4.321132930E0
9.738634708E0,2.551931317E0,-2.690590435E0,2.157616729E0,4.290331023E0
9.748578708E0,2.198918536E0,-2.851701692E0,2.205455139E0,4.222733432E0
9.758521708E0,1.876252220E0,-3.086657435E0,2.267687640E0,4.264995163E0
9.768465708E0,1.620554649E0,-3.519423314E0,2.459334518E0,4.589211708E0
9.778409708E0,1.371613535E0,-4.001618046E0,2.720215938E0,5.029298701E0
9.788352708E0,1.104664167E0,-4.412761506E0,2.987786865E0,5.442390778E0
9.798296708E0,8.577081835E-1,-4.605544206E0,3.107989247E0,5.621947876E0
9.808240708E0,5.712209290E-1,-4.544091139E0,3.135409765E0,5.550301976E0
9.818183708E0,2.457865405E-1,-4.431541593E0,3.080218188E0,5.402473138E0
9.828127708E0,-8.873763710E-2,-4.422824564E0,3.095043511E0,5.398939324E0
9.838070708E0,-4.137469330E-1,-4.454287847E0,3.099920089E0,5.442551911E0
9.848014708E0,-7.252564698E-1,-4.554129054E0,3.010466753E0,5.507176995E0
9.857958708E0,-9.643862477E-1,-4.710563123E0,3.028843967E0,5.682723075E0
9.867901708E0,-1.062649876E0,-4.792863852E0,3.073034884E0,5.791745166E0
9.877845708E0,-1.146052660E0,-4.771285288E0,3.189808751E0,5.852647253E0
9.887788708E0,-1.143503128E0,-4.747960160E0,3.243608982E0,5.862740341E0
9.897732708E0,-1.215151546E0,-4.785723817E0,3.148679143E0,5.856101612E0
9.907676708E0,-1.367703210E0,-4.759170442E0,3.030639939E0,5.805608823E0
9.917619708E0,-1.408262421E0,-4.699245837E0,2.902146498E0,5.699874453E0
9.927563708E0,-1.491777033E0,-4.570651531E0,2.755155391E0,5.541401931E0
9.937506708E0,-1.581140614E0,-4.463753904E0,2.617735005E0,5.410881732E0
9.947450708E0,-1.741791403E0,-4.372247318E0,2.479643652E0,5.319681996E0
9.957394708E0,-1.984067421E0,-4.022872674E0,2.187927233E0,4.990696711E0
9.967337708E0,-2.061999988E0,-3.624487254E0,1.866239594E0,4.568544848E0
9.977281708E0,-2.316990923E0,-3.106443828E0,1.471747396E0,4.145416818E0
9.987225708E0,-2.780933718E0,-2.604359207E0,1.017249463E0,3.943485221E0
9.997168708E0,-3.166238040E0,-2.236413807E0,6.091487472E-1,3.923986778E0
1.000711271E1,-3.608013309E0,-1.751304238E0,3.651494081E-1,4.027177754E0
1.001705571E1,-4.233229766E0,-9.532464248E-1,-1.799743742E-2,4.339266863E0
1.002699971E1,-4.867582790E0,-1.096902573E-1,-5.544588621E-1,4.900287624E0
1.003694371E1,-5.351582265E0,7.158687651E-1,-9.429559100E-1,5.480973150E0
1.004688671E1,-5.604319975E0,1.526999198E0,-1.193390987E0,5.929950336E0
1.005683071E1,-5.938805269E0,2.352479868E0,-1.516711607E0,6.565362416E0
1.006677471E1,-6.179133434E0,3.070666469E0,-1.822842582E0,7.136766609E0
1.007671771E1,-6.558639949E0,3.631669389E0,-1.706065500E0,7.688656581E0
1.008666171E1,-6.903946685E0,4.491560923E0,-1.332524314E0,8.343513672E0
1.009660471E1,-6.937762302E0,5.166933627E0,-6.700569999E-1,8.676331324E0
1.010654871E1,-6.924145306E0,5.621880333E0,8.243289510E-2,8.919423854E0
1.011649271E1,-6.628632874E0,5.928804191E0,4.724678886E-1,8.905768851E0
1.012643571E1,-6.317722970E0,6.024965161E0,8.072315097E-1,8.767294419E0
1.013637971E1,-6.035717021E0,5.946461613E0,9.809031701E-1,8.529505068E0
1.014632371E1,-5.840859729E0,5.702557291E0,1.068934171E0,8.232704434E0
1.015626671E1,-5.687512990E0,5.370732481E0,9.994750965E-1,7.886160147E0
1.016621071E1,-5.590163866E0,5.114413936E0,7.173668218E-1,7.610635789E0
1.017615371E1,-5.432698933E0,4.797351590E0,4.595467480E-1,7.262229905E0
1.018609771E1,-4.966319751E0,4.072721357E0,4.330705190E-1,6.437308536E0
1.019604171E1,-4.632983435E0,3.449077801E0,5.005063840E-1,5.797514970E0
1.020598471E1,-4.329627840E0,3.136970387E0,3.419779158E-1,5.357537619E0
1.021592871E1,-4.116878068E0,2.770843470E0,1.178094817E-1,4.963883322E0
1.022587171E1,-3.989045947E0,2.280533388E0,-5.778233126E-2,4.595286596E0
1.023581571E1,-3.747029691E0,1.632512789E0,-4.834463283E-2,4.087501281E0
1.024575971E1,-3.431806880E0,7.300120103E-1,2.723353846E-1,3.519145146E0
1.025570271E1,-3.059345675E0,-2.850733978E-1,7.139450312E-1,3.154454043E0
1.026564671E1,-2.856332102E0,-9.136648679E-1,9.929250455E-1,3.159005653E0
1.027559071E1,-2.758245059E0,-1.137365305E0,1.124720994E0,3.188496975E0
1.028553371E1,-2.708387606E0,-1.307530975E0,1.137293677E0,3.215344084E0
1.029547771E1,-2.785958815E0,-1.303512769E0,1.092729708E0,3.264164559E0
1.030542071E1,-2.828668047E0,-1.040646511E0,1.017039255E0,3.180986786E0
1.031536471E1,-2.864227012E0,-9.020090282E-1,9.463016868E-1,3.148476385E0
1.032530871E1,-2.900622422E0,-1.128742417E0,1.053334969E0,3.285906942E0
1.033525171E1,-2.808159523E0,-1.649949186E0,1.330513749E0,3.518289224E0
1.034519571E1,-2.532572941E0,-2.329513759E0,1.734945775E0,3.853647220E0
1.035513971E1,-2.090132405E0,-3.100246364E0,2.283779469E0,4.381304560E0
1.036508271E1,-1.858342198E0,-3.616011715E0,2.685988677E0,4.872731433E0
1.037502671E1,-1.929871918E0,-3.611514037E0,2.757434928E0,4.936687820E0
1.038496971E1,-2.150557677E0,-3.305592391E0,2.626573656E0,4.738219978E0
1.039491371E1,-2.379127384E0,-3.119046332E0,2.502365347E0,4.653012944E0
1.040485758E1,-2.613785211E0,-3.009023368E0,2.398444245E0,4.651734038E0
1.041480058E1,-2.853875102E0,-2.885139579E0,2.228133565E0,4.629601783E0
1.042474458E1,-3.063022112E0,-2.820818453E0,2.081610819E0,4.655343683E0
1.043468758E1,-3.019550695E0,-3.081727062E0,2.222351253E0,4.853202363E0
1.044463158E1,-2.502294888E0,-3.794252390E0,2.708855090E0,5.291098828E0
1.045457558E1,-2.093521012E0,-4.350087540E0,3.060495822E0,5.716006168E0
1.046451858E1,-2.063392941E0,-4.241794183E0,2.972158720E0,5.575314859E0
1.047446258E1,-2.031448433E0,-3.885447904E0,2.509875511E0,5.052025656E0
1.048440658E1,-2.219660364E0,-3.944193710E0,2.186584712E0,5.026401184E0
1.049434958E1,-2.302596686E0,-3.841387964E0,1.945027463E0,4.882759960E0
1.050429358E1,-2.283951085E0,-3.539003885E0,1.583887636E0,4.499964567E0
1.051423658E1,-2.259756476E0,-3.475266311E0,1.478285752E0,4.401057149E0
1.052418058E1,-1.961424517E0,-3.611217583E0,1.676599918E0,4.438362970E0
1.053412458E1,-1.118120365E0,-4.176791271E0,2.122065950E0,4.816528041E0
1.054406758E1,-5.672845834E-1,-4.477498954E0,2.399015518E0,5.111270306E0
1.055401158E1,-3.858519137E-1,-4.271181119E0,2.412847984E0,4.920742347E0
1.056395458E1,-2.223883224E-1,-3.730175677E0,2.118463773E0,4.295527430E0
1.057389858E1,-1.736453480E-1,-3.207381388E0,1.667127867E0,3.618945067E0
1.058384258E1,-1.074075043E-1,-2.742066983E0,1.217961133E0,3.002315279E0
1.059378558E1,2.210130572E-1,-2.188881206E0,7.337973516E-1,2.319160680E0
1.060372958E1,9.553748113E-1,-1.973772082E0,6.891157070E-1,2.298564274E0
1.061367358E1,2.093420733E0,-2.170455460E0,1.106573868E0,3.212132157E0
1.062361658E1,3.601647445E0,-2.447032853E0,1.852900925E0,4.732132283E0
1.063356058E1,5.108916968E0,-2.410708196E0,2.519092770E0,6.185335478E0
1.064350358E1,6.094807813E0,-1.882633871E0,2.501507853E0,6.851900037E0
1.065344758E1,6.579956558E0,-1.083551918E0,1.921661696E0,6.939934924E0
1.066339158E1,6.903970658E0,-4.653696612E-1,1.119282206E0,7.009577193E0
1.067333458E1,7.444598955E0,-2.252683684E-1,6.554611802E-1,7.476792681E0
1.068327858E1,8.330742148E0,-3.613093954E-1,5.588827558E-1,8.357281804E0
1.069322158E1,9.129880527E0,-6.734524781E-1,7.539750695E-1,9.185680981E0
1.070316558E1,9.740198278E0,-8.495521948E-1,1.009011905E0,9.829105069E0
1.071310958E1,1.002644989E1,-9.040426898E-1,1.233237423E0,1.014237966E1
1.072305258E1,9.833478910E0,-8.515639293E-1,1.370762765E0,9.965011749E0
1.073299658E1,9.457743264E0,-7.790327275E-1,1.361498437E0,9.586943081E0
1.074294058E1,8.943311663E0,-8.251596576E-1,1.380480838E0,9.086772766E0
1.075288358E1,8.256726338E0,-8.980174264E-1,1.432561988E0,8.428060214E0
1.076282758E1,7.680658652E0,-1.016853021E0,1.419250216E0,7.876596891E0
1.077277058E1,7.123145936E0,-1.198963968E0,1.401375278E0,7.358027948E0
1.078271458E1,6.477006971E0,-1.439465210E0,1.476447826E0,6.797321353E0
1.079265858E1,5.739053857E0,-1.635876108E0,1.691570252E0,6.202760654E0
1.080260158E1,4.985891551E0,-1.776526203E0,1.906055332E0,5.625673900E0
1.081254558E1,4.244235980E0,-1.998643799E0,2.098822829E0,5.139374802E0
1.082248858E1,3.471237579E0,-2.337741376E0,2.240244464E0,4.746916929E0
1.083243258E1,2.748534588E0,-2.617745238E0,2.353031845E0,4.465847218E0
1.084237658E1,2.260217822E0,-2.817625873E0,2.411989321E0,4.343419464E0
1.085231958E1,1.874044896E0,-3.144283499E0,2.417656588E0,4.386755791E0
1.086226358E1,1.357106593E0,-3.480537575E0,2.627812389E0,4.567414813E0
1.087220758E1,9.743624747E-1,-3.717375537E0,2.748380806E0,4.724601589E0
1.088215058E1,4.677848536E-1,-3.867374160E0,2.879842879E0,4.844471134E0
1.089209458E1,-1.077758789E-1,-3.902348111E0,2.912032093E0,4.870304645E0
1.090203758E1,-6.001628923E-1,-3.952083358E0,2.850862032E0,4.909844467E0
1.091198158E1,-7.552292973E-1,-4.181224630E0,2.815995962E0,5.097336947E0
1.092192558E1,-8.049446636E-1,-4.329557966E0,2.869330170E0,5.256050201E0
1.093186858E1,-9.581308964E-1,-4.468270878E0,2.904204718E0,5.414597354E0
1.094181258E1,-1.160851817E0,-4.735098624E0,2.898341130E0,5.671782544E0
1.095175558E1,-1.454819999E0,-4.881696507E0,2.844031899E0,5.834036292E0
1.096169958E1,-1.588958049E0,-4.772449468E0,2.728271062E0,5.722283163E0
1.097164358E1,-1.550217322E0,-4.638196228E0,2.592888432E0,5.535260465E0
1.098158658E1,-1.391211940E0,-4.691616974E0,2.564632347E0,5.524860141E0
1.099153058E1,-1.215938728E0,-4.868854852E0,2.648149298E0,5.674235566E0
1.100147458E1,-1.101096781E0,-4.859301671E0,2.790719618E0,5.710809298E0
1.101141758E1,-1.089022573E0,-4.696667215E0,2.923004394E0,5.638138680E0
1.102136158E1,-1.145658119E0,-4.667214205E0,3.036236894E0,5.684554111E0
1.103130458E1,-1.252002746E0,-4.681878437E0,3.077958824E0,5.741195616E0
1.104124858E1,-1.374797929E0,-4.417304792E0,3.021558921E0,5.525619358E0
1.105119258E1,-1.330152976E0,-4.302511085E0,2.912144652E0,5.362974460E0
1.106113558E1,-1.309069085E0,-4.717272218E0,2.961118884E0,5.721411023E0
1.107107958E1,-1.427757038E0,-4.825260351E0,3.053007001E0,5.885786214E0
1.108102358E1,-1.569055297E0,-4.331854168E0,2.858957502E0,5.422225839E0
1.109096658E1,-1.799639954E0,-3.897561581E0,2.567126477E0,5.001982465E0
1.110091058E1,-2.143542042E0,-3.536220610E0,2.289579907E0,4.726711842E0
1.111085358E1,-2.488472071E0,-3.045132263E0,1.895416030E0,4.365538418E0
1.112079758E1,-2.727951220E0,-2.435058340E0,1.342333749E0,3.895264673E0
1.113074158E1,-2.675840834E0,-1.982872689E0,7.727115950E-1,3.418916711E0
1.114068458E1,-2.730663743E0,-1.638476949E0,4.199328487E-1,3.212082625E0
1.115062858E1,-3.136119324E0,-1.074510076E0,1.168647909E-1,3.317148429E0
1.116057258E1,-3.429951266E0,-4.382558298E-1,-2.605213778E-1,3.467636839E0
1.117051558E1,-3.736023770E0,5.716179550E-2,-5.088176894E-1,3.770946369E0
1.118045958E1,-4.432124853E0,8.866869843E-1,-9.527710462E-1,4.619276695E0
1.119040258E1,-5.182450383E0,1.971606274E0,-1.542019526E0,5.755245215E0
1.120034658E1,-5.858628248E0,2.700354701E0,-2.076124084E0,6.776852637E0
1.121029058E1,-6.345988995E0,3.325440180E0,-2.327040972E0,7.532944205E0
1.122023358E1,-6.610688939E0,4.203867972E0,-2.535199510E0,8.234133272E0
1.123017758E1,-6.887165760E0,5.158822954E0,-2.681467609E0,9.013144569E0
1.124012058E1,-7.072061151E0,5.834565786E0,-2.615351973E0,9.533953680E0
1.125006458E1,-7.134056840E0,5.999601694E0,-2.036695139E0,9.541389551E0
1.126000858E1,-7.060316434E0,5.970910576E0,-1.132384647E0,9.315693009E0
1.126995158E1,-6.755108149E0,6.028329064E0,-1.910612432E-1,9.055867811E0
1.127989558E1,-6.431912659E0,5.910912296E0,5.778405984E-1,8.754557921E0
1.128983958E1,-6.220818819E0,5.793927637E0,1.014141083E0,8.561347229E0
1.129978258E1,-6.118235267E0,5.802504333E0,9.887922335E-1,8.489968752E0
1.130972658E1,-6.047220833E0,5.749113407E0,7.021359944E-1,8.373421029E0
1.131966958E1,-5.783977430E0,5.186141730E0,6.144909827E-1,7.792821063E0
1.132961358E1,-5.268310897E0,4.346258783E0,6.152837189E-1,6.857378448E0
1.133955758E1,-4.887786674E0,3.750529835E0,5.890952826E-1,6.189019782E0
1.134950058E1,-4.608720413E0,3.264779996E0,4.819276603E-1,5.668451864E0
1.135944458E1,-4.534785587E0,2.733491457E0,3.720137469E-1,5.307979851E0
1.136938858E1,-4.423428581E0,2.179972388E0,3.141194415E-1,4.941423990E0
1.137933158E1,-4.253981242E0,1.626599500E0,2.607777782E-1,4.561818430E0
1.138927558E1,-4.186045659E0,9.911884224E-1,2.373984173E-1,4.308339675E0
1.139921850E1,-4.053065942E0,2.971250939E-1,2.992675138E-1,4.074946367E0
1.140916250E1,-3.943425094E0,-3.584612167E-1,4.840535617E-1,3.989160784E0
1.141910650E1,-3.858195201E0,-9.103337091E-1,7.572728992E-1,4.035819609E0
1.142904950E1,-3.750294484E0,-1.367240987E0,1.027175696E0,4.121789241E0
1.143899350E1,-3.575504544E0,-1.736729468E0,1.297725195E0,4.181453416E0
1.144893650E1,-3.395958478E0,-2.124307480E0,1.659126684E0,4.335656537E0
1.145888050E1,-3.120582395E0,-2.567924037E0,2.051947017E0,4.532411599E0
1.146882450E1,-2.875626744E0,-2.841330485E0,2.297247654E0,4.649702666E0
1.147876750E1,-2.736260113E0,-2.977896300E0,2.397463960E0,4.701363549E0
1.148871150E1,-2.712699342E0,-3.132890784E0,2.420913926E0,4.799433990E0
1.149865550E1,-2.884669171E0,-3.246464762E0,2.403709078E0,4.963735187E0
1.150859850E1,-3.107311555E0,-3.273397037E0,2.428744517E0,5.125359811E0
1.151854250E1,-3.225902444E0,-3.278388805E0,2.474538156E0,5.222797988E0
1.152848550E1,-3.326965427E0,-3.511772232E0,2.611848321E0,5.497544435E0
1.153842950E1,-3.437547092E0,-3.860641676E0,2.793124870E0,5.875613219E0
1.154837350E1,-3.567362881E0,-4.199711187E0,2.990139492E0,6.269336979E0
1.155831650E1,-3.772322700E0,-4.311010598E0,3.161261767E0,6.542843945E0
1.156826050E1,-3.901315201E0,-4.282170376E0,3.184578709E0,6.610505652E0
1.157820450E1,-4.009855603E0,-4.277742864E0,3.172102797E0,6.666352985E0
1.158814750E1,-3.893379652E0,-4.147724762E0,3.029047158E0,6.444932311E0
1.159809150E1,-3.546512294E0,-4.051807621E0,2.912725281E0,6.121998286E0
1.160803450E1,-3.189018207E0,-4.182879977E0,2.986356929E0,6.048524591E0
1.161797850E1,-2.844237721E0,-4.412733439E0,3.121192260E0,6.107679243E0
1.162792250E1,-2.587289430E0,-4.539868864E0,3.118399922E0,6.085137137E0
1.163786550E1,-2.294477828E0,-4.771306922E0,3.122241835E0,6.146412964E0
1.164780950E1,-2.126803071E0,-4.821949657E0,3.165944802E0,6.147983107E0
1.165775350E1,-2.044461411E0,-4.568679850E0,3.012410952E0,5.841855679E0
1.166769650E1,-1.995205051E0,-4.333093193E0,2.754139144E0,5.508341151E0
1.167764050E1,-2.042311975E0,-4.073602533E0,2.466779778E0,5.181725414E0
1.168758350E1,-1.885751606E0,-3.688123671E0,2.238588971E0,4.708460037E0
1.169752750E1,-1.257497520E0,-3.540835233E0,2.162693281E0,4.335441891E0
1.170747150E1,-3.840650046E-1,-3.671876013E0,2.311062870E0,4.355593068E0
1.171741450E1,3.475719470E-1,-3.535205534E0,2.411435151E0,4.293425661E0
1.172735850E1,9.369496500E-1,-3.237188739E0,2.416630986E0,4.146971293E0
1.173730150E1,1.470908613E0,-2.969465784E0,2.265523585E0,4.014211791E0
1.174724550E1,2.054644922E0,-2.861793401E0,2.065402629E0,4.083786876E0
1.175718950E1,2.814858971E0,-2.559356989E0,1.833335996E0,4.223133919E0
1.176713250E1,3.732550231E0,-2.216499652E0,1.579494331E0,4.619480953E0
1.177707650E1,4.652959862E0,-1.866642905E0,1.618911581E0,5.268326672E0
1.178701950E1,5.613942738E0,-1.546676248E0,1.550954071E0,6.026111434E0
1.179696350E1,6.277525701E0,-1.310940194E0,1.481906641E0,6.581940475E0
1.180690750E1,6.886356506E0,-9.106234387E-1,1.280639046E0,7.063368696E0
1.181685050E1,7.503994972E0,-7.023254442E-1,1.203166947E0,7.632221974E0
1.182679450E1,8.162215453E0,-6.682388082E-1,1.078866252E0,8.260281871E0
1.183673850E1,8.745941237E0,-7.271392733E-1,1.088455685E0,8.843356570E0
1.184668150E1,9.334116168E0,-7.316591710E-1,1.213129433E0,9.441013336E0
1.185662550E1,9.947755723E0,-7.045736986E-1,1.402232480E0,1.007077574E1
1.186656850E1,1.055470840E1,-8.697552019E-1,1.534758453E0,1.070111336E1
1.187651250E1,1.082067251E1,-1.131733267E0,1.657299137E0,1.100519942E1
1.188645650E1,1.087271390E1,-1.209288689E0,1.736366356E0,1.107669874E1
1.189639950E1,1.060741754E1,-1.124336247E0,1.676700783E0,1.079781295E1
1.190634350E1,9.979054699E0,-1.102934268E0,1.618966545E0,1.016951569E1
1.191628750E1,9.190956448E0,-1.218046356E0,1.699592632E0,9.425812033E0
1.192623050E1,8.374191638E0,-1.268366325E0,1.879440122E0,8.675720944E0
1.193617450E1,7.554863409E0,-1.369977192E0,2.018982754E0,7.939086219E0
1.194611750E1,6.667853658E0,-1.599341535E0,2.052756271E0,7.157651435E0
1.195606150E1,5.698768296E0,-1.914337182E0,2.072356138E0,6.358876229E0
1.196600550E1,4.734954198E0,-2.171347745E0,2.114923868E0,5.622049916E0
1.197594850E1,3.949021171E0,-2.377891282E0,2.235411740E0,5.123104607E0
1.198589250E1,3.248402529E0,-2.667024402E0,2.404740235E0,4.842304591E0
1.199583550E1,2.526336300E0,-3.005674667E0,2.493612943E0,4.651296681E0
1.200577950E1,1.853202496E0,-3.380154331E0,2.668138297E0,4.688151529E0
1.201572350E1,1.304322608E0,-3.713636827E0,2.888676852E0,4.882295557E0
1.202566650E1,8.280785877E-1,-3.916107194E0,3.154132842E0,5.096092983E0
1.203561050E1,4.499297959E-1,-4.027598979E0,3.281803579E0,5.214808250E0
1.204555450E1,2.808885455E-2,-4.166151677E0,3.328256199E0,5.332438289E0
1.205549750E1,-3.648533928E-1,-4.443938860E0,3.356749681E0,5.581171831E0
1.206544150E1,-7.100081009E-1,-4.745106134E0,3.404121484E0,5.882872326E0
1.207538450E1,-1.200166740E0,-4.819500259E0,3.456579779E0,6.051109544E0
1.208532850E1,-1.582630777E0,-4.832672281E0,3.368129532E0,6.099486708E0
1.209527250E1,-1.713269854E0,-5.048518154E0,3.257088861E0,6.247516066E0
1.210521550E1,-1.770227582E0,-5.314522612E0,3.169983766E0,6.436354043E0
1.211515950E1,-1.764873579E0,-5.410395314E0,3.101076084E0,6.481036112E0
1.212510250E1,-1.902543932E0,-5.217329609E0,2.956064843E0,6.291146240E0
1.213504650E1,-2.040850171E0,-5.172850424E0,2.830852567E0,6.239966121E0
1.214499050E1,-2.109040400E0,-5.201887697E0,2.736751572E0,6.244797530E0
1.215493350E1,-2.130632705E0,-5.118492368E0,2.641190819E0,6.141209066E0
1.216487750E1,-2.053809793E0,-4.937849073E0,2.507552997E0,5.906632727E0
1.217482150E1,-1.866793617E0,-4.883039612E0,2.405073526E0,5.754422033E0
1.218476450E1,-1.528574438E0,-5.001860881E0,2.407150457E0,5.757562454E0
1.219470850E1,-1.455057396E0,-5.139428324E0,2.594368362E0,5.938153141E0
1.220465150E1,-1.625266335E0,-5.149365667E0,2.636361018E0,6.008981349E0
1.221459550E1,-1.780302919E0,-5.101182856E0,2.497788147E0,5.952351690E0
1.222453950E1,-1.985081474E0,-5.063390547E0,2.258875009E0,5.889056681E0
1.223448250E1,-2.321941907E0,-5.027452390E0,1.968591449E0,5.877248000E0
1.224442650E1,-2.579487491E0,-5.171470481E0,1.733566417E0,6.033499414E0
1.225437050E1,-2.422042585E0,-5.336136260E0,1.666994112E0,6.092578259E0
1.226431350E1,-2.345583808E0,-5.229981814E0,1.774546043E0,6.000290562E0
1.227425750E1,-2.281490285E0,-4.969943855E0,1.822331536E0,5.764237336E0
1.228420050E1,-2.127712606E0,-4.405101653E0,2.045154014E0,5.302333114E0
1.229414450E1,-1.968163579E0,-3.382561045E0,1.986287609E0,4.388704315E0
1.230408850E1,-2.019706639E0,-2.582245038E0,1.528950999E0,3.617305005E0
1.231403150E1,-2.319470874E0,-2.032496839E0,1.172099813E0,3.299213013E0
1.232397550E1,-2.513325953E0,-1.337390367E0,7.308882156E-1,2.939322698E0
1.233391850E1,-2.739737452E0,-6.887727678E-1,2.171983337E-1,2.833327434E0
1.234386250E1,-3.300033151E0,-8.352513671E-2,-8.009764507E-2,3.302061611E0
1.235380650E1,-3.864756362E0,5.804893506E-1,-3.981999175E-1,3.928342245E0
1.236374950E1,-4.428924964E0,1.345699260E0,-8.796923988E-1,4.711702617E0
1.237369350E1,-5.119837813E0,2.347399807E0,-1.374349447E0,5.797573759E0
1.238363750E1,-5.759816151E0,3.352502849E0,-1.689921191E0,6.875361159E0
1.239358050E1,-6.360676031E0,4.362080179E0,-1.645151400E0,7.886220019E0
1.240352471E1,-6.630148473E0,5.304021013E0,-1.338383224E0,8.595509137E0
1.241346771E1,-6.705892135E0,6.088365936E0,-9.258446181E-1,9.104634938E0
1.242341171E1,-6.500373030E0,6.780603763E0,-4.946276665E-1,9.406173157E0
1.243335571E1,-6.121557655E0,7.445587134E0,-1.351116121E-1,9.639942482E0
1.244329871E1,-5.903372312E0,7.738847219E0,3.426363122E-1,9.739453813E0
1.245324271E1,-5.646630428E0,7.724631468E0,7.408328676E-1,9.597041203E0
1.246318671E1,-5.257191832E0,7.492635001E0,8.851760638E-1,9.195715409E0
1.247312971E1,-4.913997695E0,6.883931665E0,9.214182758E-1,8.507931603E0
1.248307371E1,-4.694506961E0,6.215420085E0,9.371999109E-1,7.845265203E0
1.249301671E1,-4.403205401E0,5.707991694E0,8.664158571E-1,7.260858311E0
1.250296071E1,-4.077852874E0,5.282451219E0,7.053613186E-1,6.710492495E0
1.251290471E1,-3.849080269E0,4.792178559E0,5.413562751E-1,6.170369590E0
1.252284771E1,-3.656998065E0,4.285350092E0,3.697592799E-1,5.645757893E0
1.253279171E1,-3.454379472E0,3.902960315E0,1.205965570E-1,5.213480630E0
1.254273571E1,-3.315992834E0,3.541912875E0,-1.262181433E-1,4.853543685E0
1.255267871E1,-3.299968832E0,3.159949359E0,-3.407780671E-1,4.581615865E0
1.256262271E1,-3.267020064E0,2.583746603E0,-3.453937130E-1,4.179529091E0
1.257256571E1,-3.220524759E0,1.813300511E0,-9.982103437E-2,3.697269629E0
1.258250971E1,-3.133369963E0,1.019122910E0,3.005819678E-1,3.308620310E0
1.259245371E1,-2.782667710E0,-1.568439585E-1,9.391822632E-1,2.941071732E0
1.260239671E1,-2.704195152E0,-9.651683128E-1,1.405160766E0,3.196669840E0
1.261234071E1,-2.929262668E0,-1.002972901E0,1.380053114E0,3.389849704E0
1.262228371E1,-3.183509545E0,-9.404357600E-1,1.058434034E0,3.484169205E0
1.263222771E1,-3.449935003E0,-1.134254002E0,8.517218041E-1,3.730149286E0
1.264217171E1,-3.632062030E0,-1.396801001E0,7.556184295E-1,3.964074524E0
1.265211471E1,-3.709656628E0,-1.484236756E0,8.627619320E-1,4.087648370E0
1.266205871E1,-3.659800928E0,-1.624892698E0,1.206433786E0,4.182092968E0
1.267200271E1,-3.478217985E0,-2.052549280E0,1.687072282E0,4.376890652E0
1.268194571E1,-3.117201827E0,-2.801383477E0,2.252859685E0,4.758158613E0
1.269188971E1,-2.498268496E0,-3.794867517E0,3.001153308E0,5.445115804E0
1.270183271E1,-2.192347435E0,-4.461074125E0,3.396563373E0,6.020316634E0
1.271177671E1,-2.548537593E0,-4.301604182E0,3.219070849E0,5.946533405E0
1.272172071E1,-3.010235788E0,-3.847914042E0,2.613630845E0,5.540670371E0
1.273166371E1,-3.525990614E0,-3.737950135E0,2.008867948E0,5.517284790E0
1.274160771E1,-3.911782009E0,-3.835326156E0,1.571844711E0,5.699338646E0
1.275155171E1,-4.021772521E0,-3.838964878E0,1.447779659E0,5.745291245E0
1.276149471E1,-3.923545437E0,-3.768712921E0,1.511484489E0,5.646414016E0
1.277143871E1,-3.838755548E0,-3.839882306E0,1.793867582E0,5.718277817E0
1.278138171E1,-3.630849609E0,-4.262178746E0,2.256211602E0,6.036532725E0
1.279132571E1,-3.297184972E0,-4.786032550E0,2.735040384E0,6.423237674E0
1.280126971E1,-3.193821695E0,-4.912575068E0,2.834232550E0,6.508975723E0
1.281121271E1,-3.313039405E0,-4.773431216E0,2.627190245E0,6.376833404E0
1.282115671E1,-3.566401014E0,-4.598877211E0,2.402918243E0,6.296261102E0
1.283109971E1,-3.782020015E0,-4.308389876E0,2.166244880E0,6.128500273E0
1.284104371E1,-3.888445771E0,-3.964443203E0,1.777506781E0,5.830638968E0
1.285098771E1,-3.772529399E0,-3.872510939E0,1.624782332E0,5.645195893E0
1.286093071E1,-3.383003680E0,-4.014269666E0,1.947528901E0,5.599280639E0
1.287087471E1,-2.549504723E0,-4.506297076E0,2.453067180E0,5.729243079E0
1.288081871E1,-1.853031757E0,-4.843551026E0,2.841522274E0,5.913371464E0
1.289076171E1,-1.633129671E0,-4.591808512E0,2.865345000E0,5.653496254E0
1.290070571E1,-1.831635041E0,-3.949493626E0,2.763279512E0,5.156462013E0
1.291064871E1,-1.861428943E0,-3.358356496E0,2.584737121E0,4.628643651E0
1.292059271E1,-1.315169778E0,-2.868513606E0,2.452048595E0,3.996321329E0
1.293053671E1,-1.711520952E-1,-2.616740686E0,2.448680599E0,3.587849151E0
1.294047971E1,1.275070742E0,-2.483139410E0,2.747426541E0,3.916648992E0
1.295042371E1,2.797979813E0,-2.336557315E0,3.198869011E0,4.849840624E0
1.296036771E1,4.433772891E0,-2.153854630E0,3.789681036E0,6.217645388E0
1.297031071E1,6.160154541E0,-1.763024397E0,4.196683499E0,7.659498116E0
1.298025471E1,7.280234308E0,-1.053138503E0,4.170579189E0,8.456041808E0
1.299019771E1,7.901005127E0,-4.743542004E-1,3.598865340E0,8.694982786E0
1.300014171E1,8.121475562E0,-1.070531631E-1,3.010869334E0,8.662283754E0
1.301008571E1,8.507251462E0,1.115660441E-1,2.623108889E0,8.903172169E0
1.302002871E1,9.024361673E0,2.550011677E-1,2.504692247E0,9.368970725E0
1.302997271E1,9.516565669E0,3.203315234E-1,2.468368759E0,9.836690436E0
1.303991571E1,9.918684536E0,1.606610209E-1,2.560563562E0,1.024512570E1
1.304985971E1,1.014338251E1,9.780169845E-2,2.603977969E0,1.047274917E1
1.305980371E1,1.015544531E1,1.160707390E-1,2.501043000E0,1.045952953E1
1.306974671E1,9.948288989E0,1.210683542E-1,2.512690653E0,1.026141928E1
1.307969071E1,9.570627270E0,6.270203233E-2,2.416705100E0,9.871236064E0
1.308963471E1,9.089383880E0,-2.513232690E-1,2.395897783E0,9.403211627E0
1.309957771E1,8.384962794E0,-5.339694875E-1,2.354387230E0,8.725586725E0
1.310952171E1,7.633095061E0,-6.593092328E-1,2.277703335E0,7.992919452E0
1.311946471E1,6.842920464E0,-7.568290955E-1,2.194154810E0,7.225833245E0
1.312940871E1,6.040649732E0,-9.794513065E-1,2.224003676E0,6.511141713E0
1.313935271E1,5.363355634E0,-1.194590251E0,2.328945994E0,5.967966066E0
1.314929571E1,4.897922530E0,-1.371200137E0,2.459334226E0,5.649615895E0
1.315923971E1,4.410234339E0,-1.568807375E0,2.573131567E0,5.341566209E0
1.316918271E1,3.928474640E0,-1.777973973E0,2.658251824E0,5.065610251E0
1.317912671E1,3.430224624E0,-1.892042626E0,2.733907778E0,4.777082583E0
1.318907071E1,2.940392843E0,-2.007667807E0,2.894526114E0,4.588564212E0
1.319901371E1,2.432351080E0,-2.239283035E0,3.187567513E0,4.592527293E0
1.320895771E1,1.857556917E0,-2.529350540E0,3.448389584E0,4.662566094E0
1.321890171E1,1.343140519E0,-2.772198855E0,3.598377682E0,4.736816957E0
1.322884471E1,8.516598237E-1,-2.956653365E0,3.617277345E0,4.748875548E0
1.323878871E1,4.454929286E-1,-3.241460130E0,3.575302230E0,4.846474364E0
1.324873171E1,2.447398889E-1,-3.577145857E0,3.578643037E0,5.065822350E0
1.325867571E1,-1.816262126E-1,-3.712090239E0,3.487656561E0,5.096699943E0
1.326861971E1,-6.727806330E-1,-3.957649323E0,3.409793283E0,5.267097130E0
1.327856271E1,-1.058327907E0,-4.166872054E0,3.403330063E0,5.483204920E0
1.328850671E1,-1.288417597E0,-4.239264677E0,3.387819446E0,5.577517863E0
1.329845071E1,-1.410346661E0,-4.335378284E0,3.323630175E0,5.641905716E0
1.330839371E1,-1.569173995E0,-4.436639780E0,3.293304760E0,5.743860706E0
1.331833771E1,-1.694791483E0,-4.484725528E0,3.331027780E0,5.837878664E0
1.332828071E1,-1.872379316E0,-4.480590962E0,3.276223289E0,5.857912487E0
1.333822471E1,-2.026159042E0,-4.549402750E0,3.302520264E0,5.975702966E0
1.334816871E1,-2.152675831E0,-4.491338144E0,3.274256578E0,5.960443582E0
1.335811171E1,-2.244928230E0,-4.344715703E0,3.193500683E0,5.840779392E0
1.336805571E1,-2.206314972E0,-4.256953674E0,3.064947308E0,5.690639888E0
1.337799871E1,-1.931148219E0,-4.331497487E0,2.992558193E0,5.607727567E0
1.338794271E1,-1.558927627E0,-4.459383695E0,2.931764692E0,5.559820365E0
1.339788671E1,-1.347305198E0,-4.428299897E0,3.024426980E0,5.529216023E0
1.340783021E1,-1.196543806E0,-4.424951781E0,3.117499158E0,5.543529232E0
1.341777421E1,-9.185478777E-1,-4.396527881E0,3.229903108E0,5.532220323E0
1.342771821E1,-6.148110446E-1,-4.343175547E0,3.359249074E0,5.525008668E0
1.343766121E1,-5.830089889E-1,-4.427256169E0,3.542573610E0,5.700028460E0
1.344760521E1,-8.680685726E-1,-4.515831546E0,3.473117459E0,5.762709647E0
1.345754821E1,-9.656064154E-1,-4.530578808E0,3.053924137E0,5.548422543E0
1.346749221E1,-1.366155159E0,-4.270162534E0,2.644873395E0,5.205384065E0
1.347743621E1,-1.949658457E0,-3.784053676E0,2.066398703E0,4.731831984E0
1.348737921E1,-2.327009981E0,-3.300453274E0,1.652172883E0,4.363214698E0
1.349732321E1,-2.717743151E0,-2.689177163E0,1.493584700E0,4.104704241E0
1.350726721E1,-3.029005350E0,-2.020659735E0,1.271843956E0,3.856880375E0
1.351721021E1,-3.160164244E0,-1.430094463E0,9.446270442E-1,3.595014392E0
1.352715421E1,-3.236683247E0,-9.398253107E-1,4.979199412E-1,3.406950884E0
1.353709721E1,-3.556666569E0,-4.271309173E-1,1.520170820E-1,3.585446569E0
1.354704121E1,-4.170356410E0,2.420226878E-1,-3.288938937E-1,4.190300558E0
1.355698521E1,-4.955718749E0,1.038161445E0,-8.411094001E-1,5.132678884E0
1.356692821E1,-5.682146416E0,1.766163767E0,-1.429755178E0,6.119666838E0
1.357687221E1,-6.305358447E0,2.482095097E0,-1.892301657E0,7.035563004E0
1.358681521E1,-6.889494122E0,3.199752526E0,-2.098099090E0,7.880708424E0
1.359675921E1,-7.352741536E0,3.843959570E0,-2.207333264E0,8.585519985E0
1.360670321E1,-7.767292753E0,4.397268139E0,-2.194151301E0,9.191360277E0
1.361664621E1,-8.068240757E0,4.918075544E0,-2.256204293E0,9.714650471E0
1.362659021E1,-8.179077069E0,5.323875818E0,-2.371174732E0,1.004307846E1
1.363653421E1,-8.084229383E0,5.523836560E0,-2.270819993E0,1.005107748E1
1.364647721E1,-7.819582649E0,5.613302468E0,-2.075597835E0,9.846986533E0
1.365642121E1,-7.423879931E0,5.571061013E0,-1.862822481E0,9.466827432E0
1.366636421E1,-6.973865935E0,5.361911371E0,-1.596902661E0,8.940637435E0
1.367630821E1,-6.575663533E0,5.058694648E0,-1.262045631E0,8.391811581E0
1.368625221E1,-6.218057764E0,4.767362975E0,-1.024462880E0,7.901994450E0
1.369619521E1,-5.868786031E0,4.486245219E0,-9.158213210E-1,7.443639858E0
1.370613921E1,-5.542103262E0,4.041384959E0,-8.649949837E-1,6.913459140E0
1.371608321E1,-5.237943968E0,3.454383565E0,-8.296940272E-1,6.329076947E0
1.372602621E1,-4.978964939E0,2.860538589E0,-7.961150756E-1,5.797117568E0
1.373597021E1,-4.694703135E0,2.263289364E0,-6.890712681E-1,5.257141379E0
1.374591321E1,-4.425342375E0,1.693003989E0,-5.248440304E-1,4.767114316E0
1.375585721E1,-4.244480394E0,1.165251846E0,-3.461680305E-1,4.415116984E0
1.376580121E1,-4.163078381E0,6.869694865E-1,-1.630741668E-1,4.222527900E0
1.377574421E1,-4.074272916E0,2.741923141E-1,6.407846689E-2,4.083991585E0
1.378568821E1,-4.028319356E0,-1.326049107E-1,2.185352996E-1,4.036421506E0
1.379563221E1,-3.854023213E0,-5.186702478E-1,4.800812557E-1,3.918289392E0
1.380557521E1,-3.712234665E0,-8.968821895E-1,8.960694265E-1,3.922757230E0
1.381551921E1,-3.549615996E0,-1.285999188E0,1.219533303E0,3.967471375E0
1.382546221E1,-3.393890026E0,-1.578542404E0,1.616878504E0,4.077325315E0
1.383540621E1,-3.308715974E0,-1.747781875E0,1.922163680E0,4.206786908E0
1.384535021E1,-3.380125388E0,-1.878047900E0,2.135886721E0,4.417501968E0
1.385529321E1,-3.501370035E0,-2.090664940E0,2.368303018E0,4.715859540E0
1.386523721E1,-3.446694768E0,-2.336091292E0,2.679617550E0,4.951502556E0
1.387518121E1,-3.314471973E0,-2.485022213E0,2.959411497E0,5.091087926E0
1.388512421E1,-3.257654579E0,-2.680628534E0,3.125344368E0,5.250320000E0
1.389506821E1,-3.284621937E0,-2.940569429E0,3.212237501E0,5.454737354E0
1.390501121E1,-3.431308113E0,-3.231573658E0,3.249222017E0,5.724891910E0
1.391495521E1,-3.597074045E0,-3.391319590E0,3.225204286E0,5.902705560E0
1.392489921E1,-3.752032569E0,-3.441951799E0,3.139910367E0,5.981957681E0
1.393484221E1,-4.005245073E0,-3.544258193E0,3.145585966E0,6.204713153E0
1.394478621E1,-4.241438380E0,-3.654386407E0,3.152711091E0,6.425256941E0
1.395472921E1,-4.472630270E0,-3.820346759E0,3.121424394E0,6.659036052E0
1.396467321E1,-4.696619560E0,-4.036653977E0,3.115447078E0,6.932446979E0
1.397461721E1,-4.894147568E0,-4.195987095E0,3.107351900E0,7.156439335E0
1.398456021E1,-5.008771121E0,-4.318768684E0,3.109303116E0,7.308030990E0
1.399450421E1,-4.977493195E0,-4.500145805E0,3.252531541E0,7.456923776E0
1.400444821E1,-4.672550958E0,-4.815028893E0,3.455148673E0,7.546872733E0
1.401439121E1,-4.286081579E0,-4.995680375E0,3.635017505E0,7.519353028E0
1.402433521E1,-3.883260460E0,-4.983590671E0,3.778204999E0,7.361434697E0
1.403427821E1,-3.613597400E0,-4.954898384E0,3.812129374E0,7.220902612E0
1.404422221E1,-3.493517225E0,-4.905558994E0,3.804033320E0,7.123190376E0
1.405416621E1,-3.272651517E0,-4.818013896E0,3.868292173E0,6.991937514E0
1.406410921E1,-2.753656749E0,-4.480526057E0,3.814663850E0,6.496876136E0
1.407405321E1,-2.111650597E0,-4.217089112E0,3.799130137E0,6.056095988E0
1.408399721E1,-1.203921238E0,-3.909908561E0,3.848385912E0,5.616661413E0
1.409394021E1,1.772174120E-2,-3.507445877E0,3.840406802E0,5.201078258E0
1.410388421E1,1.358932679E0,-3.263988575E0,3.994724178E0,5.334617203E0
1.411382721E1,2.580735286E0,-3.202544279E0,4.236607118E0,5.904686642E0
1.412377121E1,3.487534938E0,-2.843273223E0,4.300520693E0,6.224273516E0
1.413371521E1,4.317413299E0,-2.225367832E0,4.149229835E0,6.388147447E0
1.414365821E1,5.253407514E0,-1.811270358E0,3.941960074E0,6.813078602E0
1.415360221E1,6.279958727E0,-1.584065099E0,3.727525134E0,7.472722896E0
1.416354521E1,7.171342780E0,-1.307706392E0,3.446410886E0,8.063250044E0
1.417348921E1,7.929953522E0,-1.074607432E0,3.106963645E0,8.584414196E0
1.418343321E1,8.708617290E0,-1.038910765E0,2.824736672E0,9.214037549E0
1.419337621E1,9.599283890E0,-1.179341882E0,2.526577790E0,9.996033903E0
1.420332021E1,1.021719074E1,-1.428570971E0,2.173262708E0,1.054300111E1
1.421326421E1,1.048097267E1,-1.607485537E0,1.904712957E0,1.077324136E1
1.422320721E1,1.044573735E1,-1.683463380E0,1.739932573E0,1.072263229E1
1.423315121E1,1.022861386E1,-1.834621214E0,1.598739856E0,1.051410223E1
1.424309421E1,9.965741758E0,-2.061582059E0,1.550171714E0,1.029413239E1
1.425303821E1,9.604159883E0,-2.195134511E0,1.537724161E0,9.971113186E0
1.426298221E1,9.137183114E0,-2.260348215E0,1.567346156E0,9.542214800E0
1.427292521E1,8.637809263E0,-2.272277996E0,1.626300123E0,9.078537781E0
1.428286921E1,8.045195711E0,-2.271371970E0,1.654799452E0,8.521893327E0
1.429281221E1,7.250600619E0,-2.357434798E0,1.761596507E0,7.825083413E0
1.430275621E1,6.410645167E0,-2.364764576E0,1.940452309E0,7.103086520E0
1.431270021E1,5.769754078E0,-2.250260306E0,2.052964432E0,6.524446071E0
1.432264321E1,5.092634811E0,-2.255880065E0,2.264188081E0,6.012526246E0
1.433258721E1,4.407523570E0,-2.391728718E0,2.549895609E0,5.625708658E0
1.434253121E1,3.992723846E0,-2.598357040E0,2.797569923E0,5.524463820E0
1.435247421E1,3.438887858E0,-2.705651693E0,3.086584929E0,5.354764917E0
1.436241821E1,2.820588073E0,-2.753866664E0,3.228706183E0,5.095492351E0
1.437236121E1,2.236857026E0,-2.861639619E0,3.511632776E0,5.052135728E0
1.438230521E1,1.790029762E0,-2.870641408E0,3.729545932E0,5.035305502E0
1.439224921E1,1.461667088E0,-2.956603079E0,3.939657440E0,5.137983378E0
1.440219171E1,1.061716953E0,-3.200998567E0,4.166246110E0,5.360153110E0
1.441213571E1,6.665708899E-1,-3.529447196E0,4.338579927E0,5.632458614E0
1.442207871E1,2.780567390E-1,-3.766292759E0,4.426115962E0,5.818314120E0
1.443202271E1,-2.691958684E-1,-3.933285145E0,4.527189470E0,6.003219381E0
1.444196671E1,-9.257691890E-1,-4.021969280E0,4.495602226E0,6.102763706E0
1.445190971E1,-1.553648468E0,-4.103574775E0,4.368466508E0,6.191659643E0
1.446185371E1,-1.797644007E0,-4.284792852E0,4.272884121E0,6.312567819E0
1.447179771E1,-1.820289688E0,-4.445916388E0,4.244003261E0,6.410241084E0
1.448174071E1,-1.809341654E0,-4.492045657E0,4.081253907E0,6.333152837E0
1.449168471E1,-1.871862715E0,-4.482853249E0,4.033076651E0,6.313917211E0
1.450162771E1,-1.958562305E0,-4.496770792E0,4.054484476E0,6.363627757E0
1.451157171E1,-2.042725665E0,-4.484167119E0,3.987569525E0,6.338863748E0
1.452151571E1,-2.256356320E0,-4.304445929E0,3.789448025E0,6.162735994E0
1.453145871E1,-2.309745785E0,-3.964879990E0,3.451785647E0,5.741952897E0
1.454140271E1,-2.243771943E0,-3.698938097E0,3.137356887E0,5.344124233E0
1.455134671E1,-2.033833074E0,-3.763622920E0,2.974216940E0,5.210307175E0
1.456128971E1,-1.907431035E0,-3.891233724E0,2.841122324E0,5.181888566E0
1.457123371E1,-2.038705997E0,-3.780415539E0,2.729022430E0,5.088754976E0
1.458117671E1,-2.152455099E0,-3.566417386E0,2.541413346E0,4.879669837E0
1.459112071E1,-2.234418444E0,-3.450160121E0,2.401152091E0,4.760437166E0
1.460106471E1,-2.257020564E0,-3.534119706E0,2.290034528E0,4.777907707E0
1.461100771E1,-2.274633255E0,-3.484431821E0,2.182740460E0,4.698891090E0
1.462095171E1,-2.308442002E0,-3.223709153E0,1.879652083E0,4.387971870E0
1.463089471E1,-2.441406955E0,-3.012075614E0,1.634568086E0,4.207716750E0
1.464083871E1,-2.573168697E0,-2.794306592E0,1.410041144E0,4.051859142E0
1.465078271E1,-2.751918372E0,-2.521186073E0,1.064031866E0,3.880927434E0
1.466072571E1,-2.957909347E0,-2.113834532E0,6.699625674E-1,3.696805916E0
1.467066971E1,-3.096541568E0,-1.642479368E0,3.094220808E-1,3.518813746E0
1.468061371E1,-3.279232559E0,-1.142279305E0,-3.430415243E-2,3.472656758E0
1.469055671E1,-3.572766000E0,-5.438074279E-1,-3.204405740E-1,3.628093931E0
1.470050071E1,-3.912388950E0,-7.359890342E-3,-5.617009310E-1,3.952511784E0
1.471044371E1,-4.151097144E0,5.624805111E-1,-8.740581679E-1,4.279248708E0
1.472038771E1,-4.376067889E0,1.097892507E0,-1.235259098E0,4.677734832E0
1.473033171E1,-4.648977908E0,1.640701815E0,-1.500788762E0,5.153374132E0
1.474027471E1,-4.962649453E0,2.361114451E0,-1.703705710E0,5.753726114E0
1.475021871E1,-5.339569745E0,3.279397450E0,-1.773376307E0,6.512320341E0
1.476016271E1,-5.802458725E0,4.275475899E0,-1.631475932E0,7.389853526E0
1.477010571E1,-6.219443554E0,5.152678699E0,-1.352332488E0,8.189040179E0
1.478004971E1,-6.365670723E0,5.758041521E0,-1.020198652E0,8.643934937E0
1.478999271E1,-6.314799947E0,6.168756380E0,-7.262814867E-1,8.857637294E0
1.479993671E1,-6.257339358E0,6.400274545E0,-4.973325884E-1,8.964661165E0
1.480988071E1,-6.202258587E0,6.487135518E0,-2.618147819E-1,8.978835436E0
1.481982371E1,-6.099025995E0,6.424360396E0,-9.797360659E-2,8.858900801E0
1.482976771E1,-5.965780229E0,6.150873256E0,2.015213639E-2,8.568791143E0
1.483971171E1,-5.863279123E0,5.774812505E0,5.484542102E-3,8.229613091E0
1.484965471E1,-5.795695835E0,5.344620570E0,-1.200084002E-1,7.884761332E0
1.485959871E1,-5.732855224E0,4.956022219E0,-3.078943495E-1,7.584364455E0
1.486954171E1,-5.677071617E0,4.495902480E0,-5.078843276E-1,7.259492252E0
1.487948571E1,-5.509640105E0,3.846787283E0,-5.171596196E-1,6.739537118E0
1.488942971E1,-5.072173650E0,2.921789927E0,-2.262194180E-1,5.857898696E0
1.489937271E1,-4.541011410E0,1.990661180E0,6.623228878E-2,4.958619090E0
1.490931671E1,-4.129299016E0,1.289631479E0,2.738675013E-1,4.334658363E0
1.491926071E1,-3.840159464E0,7.594375384E-1,4.064583787E-1,3.935578547E0
1.492920371E1,-3.740633714E0,4.065411168E-1,4.746024147E-1,3.792474617E0
1.493914771E1,-3.667238002E0,1.254093271E-1,4.674968782E-1,3.699042497E0
1.494909071E1,-3.642594034E0,-1.127758330E-1,5.518017411E-1,3.685877758E0
1.495903471E1,-3.602761632E0,-4.651460052E-1,7.944234762E-1,3.718515946E0
1.496897871E1,-3.452984911E0,-9.394499195E-1,1.143149079E0,3.756655529E0
1.497892171E1,-3.126109476E0,-1.501369683E0,1.584141698E0,3.812633774E0
1.498886571E1,-2.685532009E0,-2.028025473E0,2.113667886E0,3.973985584E0
1.499880871E1,-2.356458021E0,-2.431295657E0,2.507916694E0,4.213518615E0
1.500875271E1,-2.197071401E0,-2.856976465E0,2.815339904E0,4.573355009E0
1.501869671E1,-2.225379526E0,-3.089750027E0,2.927628079E0,4.803111016E0
1.502863971E1,-2.403250949E0,-3.108986197E0,2.892536599E0,4.879362487E0
1.503858371E1,-2.734211249E0,-3.034385666E0,2.770054096E0,4.935241353E0
1.504852771E1,-3.081670637E0,-2.967029834E0,2.640411385E0,5.027099783E0
1.505847071E1,-3.346609147E0,-2.912612137E0,2.636059887E0,5.160611783E0
1.506841471E1,-3.395076426E0,-3.105960263E0,2.751059124E0,5.361143478E0
1.507835771E1,-3.134740551E0,-3.614887880E0,3.102909186E0,5.702811423E0
1.508830171E1,-2.833019838E0,-3.869817712E0,3.396134479E0,5.876667417E0
1.509824571E1,-2.662216821E0,-3.729197438E0,3.481017924E0,5.754285162E0
1.510818871E1,-2.632653299E0,-3.605187349E0,3.457415638E0,5.646411437E0
1.511813271E1,-2.701094958E0,-3.539768701E0,3.428876548E0,5.619881743E0
1.512807671E1,-2.763137425E0,-3.444870145E0,3.225567398E0,5.468669288E0
1.513801971E1,-2.754406362E0,-3.455529034E0,2.961726995E0,5.319705077E0
1.514796371E1,-2.553776114E0,-3.604572222E0,2.932297081E0,5.302176866E0
1.515790671E1,-2.302531782E0,-3.800666785E0,3.029202109E0,5.377990892E0
1.516785071E1,-1.886774869E0,-4.174140143E0,3.300126414E0,5.645724019E0
1.517779471E1,-1.507772384E0,-4.320026420E0,3.597931247E0,5.820748671E0
1.518773771E1,-1.319373926E0,-4.048849515E0,3.532563177E0,5.532895494E0
1.519768171E1,-1.366318297E0,-3.648510540E0,3.110756442E0,4.985505038E0
1.520762471E1,-1.427252716E0,-3.259034522E0,2.520910377E0,4.360429503E0
1.521756871E1,-1.213983711E0,-2.960909554E0,2.018442471E0,3.783497303E0
1.522751271E1,-6.492140150E-1,-2.686724256E0,1.861682274E0,3.332540616E0
1.523745571E1,6.181606221E-1,-2.707295346E0,1.902939058E0,3.366414666E0
1.524739971E1,2.009314383E0,-2.704318528E0,2.370123403E0,4.119243612E0
1.525734371E1,3.076135370E0,-2.180975186E0,2.820917856E0,4.709229143E0
1.526728671E1,3.917119932E0,-1.637810367E0,2.842211076E0,5.109248003E0
1.527723071E1,4.569839353E0,-1.498896310E0,2.552686193E0,5.444844227E0
1.528717371E1,5.225648443E0,-1.312586770E0,1.956683010E0,5.732267795E0
1.529711771E1,6.106701050E0,-1.114035792E0,1.448163382E0,6.374170584E0
1.530706171E1,7.069726943E0,-1.142181657E0,1.327797425E0,7.283451379E0
1.531700471E1,8.072267150E0,-1.276194285E0,1.414766718E0,8.294078228E0
1.532694871E1,8.988873167E0,-1.478916082E0,1.478419361E0,9.228908787E0
1.533689171E1,9.496618477E0,-1.585553216E0,1.376661290E0,9.725992896E0
1.534683571E1,9.568552094E0,-1.604331256E0,1.069103740E0,9.760842728E0
1.535677971E1,9.425070192E0,-1.664401457E0,7.392496609E-1,9.599409899E0
1.536672271E1,9.184806932E0,-1.629414350E0,5.825746869E-1,9.346393035E0
1.537666671E1,8.913166927E0,-1.673419618E0,3.462533998E-1,9.075503804E0
1.538661071E1,8.462737194E0,-1.903585906E0,3.740289898E-1,8.682249582E0
1.539655371E1,8.058007545E0,-1.902250110E0,5.337032931E-1,8.296678870E0
1.540650150E1,7.561546776E0,-1.754525761E0,6.946318240E-1,7.793450049E0
1.541644450E1,6.799044712E0,-1.778001747E0,9.105845547E-1,7.086428116E0
1.542638850E1,5.971325144E0,-1.834230620E0,1.096578784E0,6.342208682E0
1.543633250E1,5.300136707E0,-1.695956541E0,1.325919445E0,5.720645076E0
1.544627550E1,4.742478980E0,-1.587972794E0,1.579503979E0,5.244768564E0
1.545621950E1,4.205759547E0,-1.638999690E0,1.790601035E0,4.856025681E0
1.546616250E1,3.757821313E0,-1.815433576E0,1.943938126E0,4.603902206E0
1.547610650E1,3.377503788E0,-1.950189677E0,2.240675404E0,4.497932623E0
1.548605050E1,2.970920572E0,-2.028644108E0,2.492888180E0,4.376786200E0
1.549599350E1,2.571946921E0,-2.322870153E0,2.781388631E0,4.443732601E0
1.550593750E1,2.175087624E0,-2.622757471E0,3.009622707E0,4.546173310E0
1.551588150E1,1.734591726E0,-2.793158199E0,3.148441454E0,4.552276878E0
1.552582450E1,1.291811906E0,-2.949586421E0,3.196607601E0,4.537305170E0
1.553576850E1,9.427576894E-1,-3.217832116E0,3.207181121E0,4.639961889E0
1.554571150E1,7.036685497E-1,-3.600400234E0,3.277276373E0,4.919204376E0
1.555565550E1,3.350407791E-1,-3.932009867E0,3.412575388E0,5.217147180E0
1.556559950E1,-1.569275737E-1,-4.132906163E0,3.543724342E0,5.446422847E0
1.557554250E1,-5.905342823E-1,-4.260905807E0,3.669684477E0,5.654257970E0
1.558548650E1,-9.462081313E-1,-4.420427206E0,3.655253841E0,5.813464298E0
1.559543050E1,-1.091706153E0,-4.628137847E0,3.656469769E0,5.998437583E0
1.560537350E1,-1.504969813E0,-4.601514305E0,3.545192578E0,6.000604840E0
1.561531750E1,-1.853684891E0,-4.621235794E0,3.389886437E0,6.023561902E0
1.562526050E1,-2.132392133E0,-4.610353541E0,3.417655741E0,6.122322006E0
1.563520450E1,-2.103116586E0,-4.424522011E0,3.262753643E0,5.886005074E0
1.564514850E1,-1.879493624E0,-4.414188226E0,3.077974319E0,5.700129814E0
1.565509150E1,-1.761147879E0,-4.601813682E0,3.085061437E0,5.813427138E0
1.566503550E1,-1.567717746E0,-4.610745889E0,3.259285367E0,5.860004922E0
1.567497850E1,-1.440842084E0,-4.396888070E0,3.443088790E0,5.767452733E0
1.568492250E1,-1.390826024E0,-4.209529831E0,3.467249193E0,5.628175139E0
1.569486650E1,-1.159734998E0,-4.192644827E0,3.369725822E0,5.502572855E0
1.570480950E1,-1.010399157E0,-4.223913982E0,3.301088281E0,5.455230483E0
1.571475350E1,-1.125830211E0,-4.108666531E0,3.072419465E0,5.252465677E0
1.572469750E1,-1.223715232E0,-4.051751488E0,2.804841521E0,5.077529423E0
1.573464050E1,-1.301039543E0,-4.002658265E0,2.624260206E0,4.959911159E0
1.574458450E1,-1.526699967E0,-3.715158273E0,2.404061958E0,4.681103255E0
1.575452750E1,-1.675497572E0,-3.488338346E0,2.256141435E0,4.479505632E0
1.576447150E1,-1.922241156E0,-3.356625720E0,2.173769369E0,4.437028348E0
1.577441550E1,-2.301461011E0,-3.052856435E0,1.918698620E0,4.277623124E0
1.578435850E1,-2.770098242E0,-2.435517347E0,1.319838487E0,3.917545488E0
1.579430250E1,-3.366141187E0,-1.646246145E0,6.412232101E-1,3.801604933E0
1.580424650E1,-3.820212858E0,-9.552537739E-1,8.707790494E-2,3.938796594E0
1.581418950E1,-4.189575331E0,-3.135972852E-1,-2.304851080E-1,4.207613111E0
1.582413350E1,-4.498307440E0,4.743115157E-1,-6.065046363E-1,4.563725355E0
1.583407650E1,-4.845062531E0,1.319637051E0,-9.000831015E-1,5.101590190E0
1.584402050E1,-5.340925130E0,2.129816142E0,-1.089558324E0,5.852241911E0
1.585396450E1,-5.830137105E0,2.964555293E0,-1.248396914E0,6.658647130E0
1.586390750E1,-6.311554742E0,3.697588559E0,-1.208844886E0,7.414121011E0
1.587385150E1,-6.867493973E0,4.367357876E0,-9.978905010E-1,8.199516677E0
1.588379450E1,-7.353981730E0,5.136914021E0,-7.353541727E-1,9.000537690E0
1.589373850E1,-7.692616793E0,5.749810395E0,-5.441547525E-1,9.619395880E0
1.590368250E1,-8.058339082E0,5.993983104E0,-3.877475079E-1,1.005062239E1
1.591362550E1,-8.187507584E0,5.832221053E0,-2.862001562E-1,1.005644039E1
1.592356950E1,-8.078013793E0,5.490884576E0,-8.691995703E-2,9.767890015E0
1.593351350E1,-7.771906207E0,5.282046592E0,8.507230997E-2,9.397328321E0
1.594345650E1,-7.340679315E0,5.081354948E0,1.878008723E-1,8.929782196E0
1.595340050E1,-6.839397517E0,4.703561667E0,2.292880368E-1,8.303819829E0
1.596334350E1,-6.293502048E0,4.362557312E0,1.572387917E-1,7.659294900E0
1.597328750E1,-5.819938391E0,4.089143263E0,1.007685757E-1,7.113573631E0
1.598323150E1,-5.532921964E0,3.825212227E0,1.157632486E-1,6.727471677E0
1.599317450E1,-5.291043702E0,3.587317089E0,1.084790066E-2,6.392503816E0
1.600311850E1,-5.140262722E0,3.171825639E0,-1.402782118E-1,6.041726302E0
1.601306250E1,-5.017315657E0,2.588343099E0,-2.323695195E-1,5.650395738E0
1.602300550E1,-4.806670590E0,1.941219463E0,-1.324932289E-1,5.185553936E0
1.603294950E1,-4.420833587E0,9.965438873E-1,2.943067360E-1,4.541308818E0
1.604289250E1,-4.096180387E0,1.734061968E-1,7.397031856E-1,4.166044199E0
1.605283650E1,-3.844225326E0,-3.542137992E-1,1.078627978E0,4.008363018E0
1.606278050E1,-3.721184998E0,-7.443119609E-1,1.284571883E0,4.006412736E0
1.607272350E1,-3.779315677E0,-8.812356251E-1,1.243324747E0,4.075004250E0
1.608266750E1,-3.940070838E0,-9.666692930E-1,1.114516141E0,4.207226398E0
1.609261150E1,-4.180438472E0,-1.108721550E0,1.081784305E0,4.458204411E0
1.610255450E1,-4.276694166E0,-1.243934319E0,1.177121986E0,4.606853780E0
1.611249850E1,-4.181700886E0,-1.546730043E0,1.551336479E0,4.720766992E0
1.612244150E1,-3.782429904E0,-2.211090100E0,2.187028516E0,4.896814183E0
1.613238550E1,-3.305711090E0,-2.941787989E0,2.959373198E0,5.323507500E0
1.614232950E1,-2.863654278E0,-3.543079979E0,3.541132564E0,5.770056446E0
1.615227250E1,-2.492566876E0,-3.914679304E0,3.828289909E0,6.016095687E0
1.616221650E1,-2.601396423E0,-3.939808298E0,3.805258019E0,6.063772866E0
1.617216050E1,-2.921750751E0,-3.729006819E0,3.342572522E0,5.797836697E0
1.618210350E1,-3.219668727E0,-3.579856042E0,2.857167961E0,5.598664551E0
1.619204750E1,-3.489439961E0,-3.693162217E0,2.652928519E0,5.731811942E0
1.620199050E1,-3.662527193E0,-3.766566993E0,2.651637746E0,5.884922692E0
1.621193450E1,-3.581451162E0,-3.908985870E0,2.928368922E0,6.056592070E0
1.622187850E1,-3.250730598E0,-4.284337939E0,3.254289214E0,6.285952536E0
1.623182150E1,-2.705883828E0,-4.802685421E0,3.730285605E0,6.656021727E0
1.624176550E1,-2.047358122E0,-5.183223385E0,4.046420874E0,6.887016903E0
1.625170850E1,-1.939683985E0,-5.095845518E0,3.943009064E0,6.728843584E0
1.626165250E1,-2.067639774E0,-4.782670401E0,3.508997436E0,6.281889318E0
