"Time (s)","Linear Acceleration x (m/s^2)","Linear Acceleration y (m/s^2)","Linear Acceleration z (m/s^2)","Absolute acceleration (m/s^2)"
5.961249990E-3,2.338471703E-2,8.999586655E-3,4.120006621E-2,4.822118835E-2
1.593925001E-2,6.000913370E-2,3.819867214E-3,-1.346871042E-1,1.475001816E-1
2.591625002E-2,2.326074692E-2,-4.565472177E-2,3.371095240E-2,6.133387546E-2
3.589425003E-2,4.855120400E-2,-1.154438627E-2,-3.289877415E-2,5.977308428E-2
4.587224999E-2,1.131216730E-2,1.917714972E-2,-3.604457617E-2,4.236672835E-2
5.585025001E-2,-1.715803078E-2,1.867923190E-2,-4.011189938E-3,2.567881168E-2
6.582825002E-2,-1.532859004E-2,-5.268935161E-3,-3.934299052E-2,4.255112517E-2
7.580625004E-2,-3.358751677E-2,1.387276581E-2,-2.916649640E-2,4.659677484E-2
8.578425000E-2,-1.579498771E-2,1.279290386E-2,-1.286387444E-4,2.032625331E-2
9.576225001E-2,-1.198661393E-2,2.812492456E-3,-3.066689193E-2,3.304613878E-2
1.057392500E-1,1.583953847E-2,-1.268709666E-2,-3.066513777E-2,3.677232757E-2
1.157172500E-1,6.255641382E-3,-2.213436076E-3,-2.224280834E-3,6.998555107E-3
1.256952500E-1,1.160915332E-2,1.430786261E-2,-8.811753988E-3,2.042386794E-2
1.356732500E-1,-2.532104761E-3,1.610259237E-3,-3.635506332E-2,3.647869403E-2
1.456512500E-1,2.192250655E-2,-2.004064643E-2,-1.926072836E-3,2.976463605E-2
1.556292500E-1,1.892009379E-2,-1.035002852E-2,-2.916942000E-2,3.627599899E-2
1.656072500E-1,3.237596455E-3,1.025968904E-2,-1.330300033E-2,1.710885933E-2
1.755852500E-1,-9.888587273E-3,7.312600985E-3,-3.380977035E-2,3.597719920E-2
1.855632500E-1,-3.282643313E-2,9.136731271E-3,-1.554950058E-2,3.745452628E-2
1.955402500E-1,-2.706265450E-2,1.675211753E-2,-1.959109604E-2,3.737421243E-2
2.055182500E-1,-2.623359469E-2,1.150776808E-2,-1.584946275E-2,3.273890173E-2
2.154962500E-1,-4.005533670E-2,1.060209833E-3,-2.752518296E-2,4.861265000E-2
2.254742500E-1,-4.312721713E-2,9.020371679E-3,-4.219350815E-2,6.100504973E-2
2.354522500E-1,-8.342560614E-3,5.266943453E-3,-1.629677474E-2,1.905056109E-2
2.454302500E-1,4.423692729E-3,4.825149765E-3,-2.407883406E-2,2.495278295E-2
2.554082500E-1,2.678162041E-2,-4.528750749E-3,3.762098551E-3,2.742112618E-2
2.653862500E-1,2.382380638E-2,-1.776309198E-2,-1.539805770E-2,3.346940943E-2
2.753642500E-1,2.355923129E-2,-1.072684502E-2,-3.261343002E-2,4.163818441E-2
2.853412500E-1,2.098682642E-2,-4.739853507E-3,-1.435082138E-2,2.586231174E-2
2.953192500E-1,1.082597817E-2,-1.617120579E-5,-3.216260970E-2,3.393575588E-2
3.052972500E-1,-2.533755458E-2,4.651067192E-3,-3.575338483E-2,4.406731924E-2
3.152752500E-1,-4.010959703E-2,8.280835943E-3,-2.168264508E-2,4.634100901E-2
3.252532500E-1,-4.891212339E-2,2.255217173E-2,-3.365715802E-2,6.351220788E-2
3.352312500E-1,-3.021206307E-2,2.529051418E-2,-6.265291572E-3,3.989527216E-2
3.452092500E-1,-1.103940611E-2,5.539058251E-3,-1.569568098E-2,1.997258258E-2
3.551907084E-1,2.304722533E-2,-1.036455519E-3,-2.916766584E-2,3.718872902E-2
3.651687083E-1,5.589521093E-2,-1.870406429E-2,-1.389824688E-2,6.055805390E-2
3.751457083E-1,5.811088082E-2,-2.462169321E-2,-3.006404400E-2,6.990671633E-2
3.851237083E-1,3.510945792E-2,-2.368582807E-2,-3.949501812E-2,5.790983460E-2
3.951017084E-1,2.354189978E-2,-1.945688417E-3,1.368833184E-3,2.366179310E-2
4.050797083E-1,-1.315293017E-2,7.975309789E-3,-4.084221661E-2,4.364277484E-2
4.150577083E-1,-4.406644441E-2,1.683512972E-2,-3.021548688E-2,5.602007465E-2
4.250357084E-1,-3.848506694E-2,1.934512013E-2,6.459419131E-3,4.355523098E-2
4.350137084E-1,-1.761408848E-2,1.168407077E-2,-2.347774029E-2,3.159078840E-2
4.449917083E-1,-3.584567034E-3,8.847732637E-3,-1.404735088E-2,1.698409728E-2
4.549697083E-1,2.895631183E-2,-1.614960764E-2,-2.033310771E-2,3.889361247E-2
4.649467084E-1,3.299792100E-2,-1.678383867E-2,-3.619894266E-2,5.177763495E-2
4.749247084E-1,4.880218660E-2,-1.277396436E-2,-1.000517070E-2,5.142889288E-2
4.849027083E-1,6.183134994E-2,-1.592653636E-2,-2.317719340E-2,6.792608254E-2
4.948807083E-1,-2.862013348E-3,1.593210949E-3,-3.245730937E-2,3.262217609E-2
5.048587084E-1,-3.631311868E-2,3.107932163E-3,1.969926953E-3,3.649907455E-2
5.148367084E-1,-4.325782930E-2,4.412299795E-3,-5.161921978E-2,6.749260727E-2
5.248147083E-1,-3.931790231E-2,2.134069260E-2,-1.434965193E-2,4.698122086E-2
5.347927083E-1,-5.165100488E-2,1.319563083E-2,-2.074007392E-3,5.335028102E-2
5.447707084E-1,-2.777911201E-2,2.443122930E-2,-6.569229841E-2,7.539258650E-2
5.547477084E-1,-4.510804365E-2,-4.906572243E-3,-3.560661972E-2,5.767704414E-2
5.647257083E-1,-1.647217751E-2,-1.034535075E-2,-4.907977402E-2,5.279377929E-2
5.747037083E-1,-6.819249017E-3,1.452554349E-2,-4.039958239E-2,4.346975762E-2
5.846817084E-1,1.418871417E-2,1.137014838E-2,5.060999036E-2,5.377704908E-2
5.946597083E-1,5.503620470E-2,8.633487001E-3,-2.078100443E-3,5.574799931E-2
6.046377083E-1,2.940545794E-2,-6.363250706E-3,-6.704417467E-2,7.348532693E-2
6.146157084E-1,4.853394558E-2,-6.204803953E-2,4.911310315E-2,9.283102921E-2
6.245937084E-1,6.451687559E-2,-1.358829877E-2,-1.034202880E-1,1.226491951E-1
6.345717083E-1,-1.323119607E-2,7.563547036E-3,-1.233283031E-1,1.242664160E-1
6.445487083E-1,-4.483352602E-4,-1.020200260E-2,1.808380079E-1,1.811261079E-1
6.545267084E-1,-8.222708681E-3,2.866433934E-2,-9.233981431E-2,9.703555325E-2
6.645047084E-1,-6.395906949E-2,3.359736110E-2,-5.836047471E-2,9.287351749E-2
6.744827083E-1,-9.330017379E-2,-8.482345613E-3,2.531142712E-2,9.704401558E-2
6.844607083E-1,3.431830909E-2,-1.096616973E-2,7.053496242E-3,3.671178321E-2
6.944387084E-1,4.170626606E-2,-3.203260051E-3,-1.510189623E-1,1.567048195E-1
7.044167083E-1,6.218484610E-2,-6.897615868E-2,1.152749330E-1,1.480303203E-1
7.143947083E-1,1.147452209E-1,-4.316301305E-2,-1.161414903E-1,1.688737907E-1
7.243727084E-1,8.142266069E-2,-3.643034622E-2,-2.602946520E-2,9.292121855E-2
7.343497084E-1,6.241058517E-2,-8.541301992E-3,7.381408095E-2,9.703892790E-2
7.443277083E-1,-2.688443091E-2,2.096318174E-4,-1.073086864E-1,1.106253621E-1
7.543057083E-1,-1.058820571E-1,3.400705906E-2,1.767905653E-2,1.126056798E-1
7.642837084E-1,-1.542206600E-1,5.913252644E-2,-3.800339341E-2,1.694842930E-1
7.742617084E-1,-1.204730072E-1,7.619514939E-2,-2.528219104E-2,1.447709758E-1
7.842397083E-1,-1.003260694E-1,3.086429941E-2,-1.480222642E-2,1.060048635E-1
7.942177083E-1,-3.323283517E-2,4.664095519E-3,-1.809362411E-2,3.812550792E-2
8.041957084E-1,7.129482636E-3,-1.095222778E-2,-7.198097885E-2,7.315765258E-2
8.141737083E-1,9.265484218E-2,-3.558307554E-2,1.857894301E-2,1.009764931E-1
8.241507083E-1,1.175111092E-1,-4.316857704E-2,-3.156560898E-2,1.291076083E-1
8.341287083E-1,1.329612620E-1,-3.990297105E-2,-3.276253402E-2,1.426335442E-1
8.441067084E-1,6.087081229E-2,-4.093423717E-2,-3.874365091E-3,7.345664209E-2
8.540847083E-1,-5.744039705E-3,9.960695319E-3,-2.093770981E-2,2.388717512E-2
8.640627083E-1,-5.384150891E-2,4.012650828E-2,-4.384183824E-2,8.019446071E-2
8.740407084E-1,-9.913760450E-2,3.625042557E-2,2.037462294E-2,1.075057358E-1
8.840187084E-1,-1.129192451E-1,4.436905609E-2,-6.809082627E-2,1.391248708E-1
8.939967083E-1,-8.662430719E-2,3.450372521E-2,-2.376893163E-3,9.327340065E-2
9.039747083E-1,-3.488458680E-2,1.847966826E-2,-2.767370224E-2,4.821064541E-2
9.139517084E-1,2.988408908E-2,-1.192466542E-4,-3.620537460E-2,4.694573623E-2
9.239297084E-1,7.975978564E-2,-2.971630826E-2,-7.016074061E-3,8.540437739E-2
9.339077083E-1,1.091035166E-1,-1.895149288E-2,-2.333039045E-2,1.131682091E-1
9.438857083E-1,7.443323714E-2,-3.030166936E-2,-2.482844710E-2,8.411272046E-2
9.538637084E-1,5.813953218E-2,-2.125494867E-2,-2.524827719E-3,6.195444133E-2
9.638417083E-1,1.498166057E-2,4.927923717E-3,-3.485934556E-2,3.826105799E-2
9.738197083E-1,-6.505943782E-2,2.301295973E-2,-2.662588120E-2,7.396799520E-2
9.837977084E-1,-1.200500616E-1,3.346008858E-2,-1.390292466E-2,1.253989081E-1
9.937757084E-1,-8.981389023E-2,3.273116006E-2,-4.443766952E-2,1.054161761E-1
1.003752708E0,-6.592245030E-2,3.323878060E-2,-2.213463485E-2,7.707482111E-2
1.013730708E0,-1.468753649E-2,2.329201810E-3,-1.943965316E-2,2.447547801E-2
1.023708708E0,4.112851091E-2,-2.437872313E-2,-3.770109236E-2,6.088718187E-2
1.033686708E0,5.521306013E-2,-3.581722911E-2,-3.246374130E-2,7.338426541E-2
1.043664708E0,7.757274427E-2,-4.739155496E-2,-2.213697374E-2,9.356033209E-2
1.053642708E0,5.638101862E-2,-3.156787477E-2,-3.231697619E-2,7.224774687E-2
1.063620708E0,2.164112757E-2,-1.842604746E-2,-2.049098253E-2,3.503909235E-2
1.073598708E0,-2.018544724E-2,2.086754322E-2,-3.007164538E-2,4.179964708E-2
1.083576708E0,-6.055395716E-2,3.303175262E-2,-8.367365599E-3,6.948302826E-2
1.093553708E0,-7.640785100E-2,2.252032268E-2,-1.375499010E-2,8.083640504E-2
1.103531708E0,-6.049415111E-2,2.501419670E-2,-2.049039781E-2,6.859379532E-2
1.113509708E0,-4.169876975E-2,3.416450447E-2,-2.108915269E-2,5.788569017E-2
1.123487708E0,-2.559643777E-3,1.442453284E-2,-2.393382311E-2,2.806148272E-2
1.133465708E0,4.475437847E-2,-1.847546557E-2,-3.560954332E-2,6.010271871E-2
1.143443708E0,7.189492428E-2,-4.370282069E-2,-4.009903550E-2,9.320273237E-2
1.153421708E0,6.059255792E-2,-1.657769691E-2,-1.929171860E-2,6.571490331E-2
1.163399708E0,2.046563851E-2,-2.376143075E-2,-3.111654282E-2,4.417790384E-2
1.173377708E0,-8.331382382E-3,9.043267183E-4,-2.737432480E-2,2.862836701E-2
1.183354708E0,-4.217813637E-2,1.910618828E-2,-2.542720199E-2,5.282598053E-2
1.193332708E0,-7.202868847E-2,3.313147506E-2,-3.231288314E-2,8.561512144E-2
1.203310708E0,-6.232641268E-2,4.680809420E-2,-2.378179550E-2,8.149327087E-2
1.213288708E0,-4.680712575E-2,1.718659306E-2,-1.779424667E-2,5.294262193E-2
1.223266708E0,-1.380811982E-2,-4.083640594E-3,-2.108681381E-2,2.553417338E-2
1.233244708E0,3.262143112E-2,-1.616003213E-2,-1.554950058E-2,3.958650496E-2
1.243222708E0,5.174835645E-2,-1.670053412E-2,-3.560720444E-2,6.499748644E-2
1.253200708E0,5.150801762E-2,-2.070694579E-2,-2.812218368E-2,6.223110715E-2
1.263178708E0,4.638609882E-2,-2.877018308E-2,-2.812101424E-2,6.140183254E-2
1.273155708E0,2.815744970E-3,-8.754926361E-3,-2.886945784E-2,3.029889027E-2
1.283133708E0,-1.708350619E-2,5.351846851E-4,-2.632533431E-2,3.138719218E-2
1.293111708E0,-3.363083869E-2,2.298745126E-2,-2.527692854E-2,4.794141574E-2
1.303089708E0,-3.649681490E-2,2.365903138E-2,-2.138443708E-2,4.846711682E-2
1.313067708E0,-2.603819719E-2,2.725175254E-2,-1.419937849E-2,4.027738918E-2
1.323045708E0,-2.078760996E-2,6.590296263E-3,-2.048688948E-2,2.992105234E-2
1.333023708E0,1.342828835E-2,-8.306609374E-4,-2.407883406E-2,2.758258826E-2
1.343001708E0,3.504334784E-2,-1.232941152E-2,-2.138443708E-2,4.286425977E-2
1.352978583E0,4.502812866E-2,-2.691247699E-2,-1.719256818E-2,5.520324437E-2
1.362956583E0,4.735134621E-2,-1.405757437E-2,-2.901622295E-2,5.728618140E-2
1.372934583E0,4.286418835E-2,3.940977668E-3,-2.572424054E-2,5.014585227E-2
1.382912583E0,2.079829026E-2,-9.814706789E-3,-3.215968609E-2,3.953660021E-2
1.392890583E0,-2.332910452E-2,-5.411826493E-3,-2.377653301E-2,3.374697773E-2
1.402868583E0,-4.318927984E-2,1.814775654E-2,-9.704623818E-3,4.784176715E-2
1.412846583E0,-3.228843675E-2,3.574701685E-2,-2.272695780E-2,5.326262265E-2
1.422824583E0,-5.271336630E-2,2.715341882E-2,-2.497111917E-2,6.433944306E-2
1.432802583E0,-3.047824157E-2,6.493113711E-3,-2.092835426E-2,3.753771100E-2
1.442780583E0,1.411552120E-3,-1.422135123E-2,-3.125512183E-2,3.436745482E-2
1.452757583E0,2.266109668E-2,-6.667077513E-3,-1.793399513E-2,2.965810861E-2
1.462735583E0,4.611741926E-2,-1.648619712E-2,-1.928177834E-2,5.263457068E-2
1.472713583E0,3.786473674E-2,-1.668213367E-2,-3.155683815E-2,5.203715890E-2
1.482691583E0,3.558805024E-2,-5.912256790E-3,-3.754438698E-2,5.206769722E-2
1.492669583E0,1.700153325E-3,3.025650876E-3,-1.748609841E-2,1.782719053E-2
1.502647583E0,-2.995317302E-2,3.808510825E-3,-1.464142799E-2,3.355694775E-2
1.512625583E0,-3.143979106E-2,1.779697842E-2,-1.434263527E-2,3.887034974E-2
1.522603583E0,-3.188953331E-2,2.886908325E-2,-3.499792457E-2,5.545467542E-2
1.532581583E0,-2.904037241E-2,1.858934923E-2,-2.332220435E-2,4.162730294E-2
1.542558583E0,-8.478410162E-3,7.358227540E-3,-2.451854467E-2,2.696638619E-2
1.552536583E0,-8.054091884E-3,-1.680352734E-3,-3.080430150E-2,3.188411787E-2
1.562514583E0,3.503651391E-2,-2.180417581E-3,-2.406772435E-2,4.256250560E-2
1.572492583E0,3.113633427E-2,-1.095685987E-2,-1.598570287E-2,3.667515216E-2
1.582470583E0,4.584336757E-2,-9.713266734E-3,-2.272052586E-2,5.207863474E-2
1.592448583E0,4.366969256E-2,7.430742150E-3,-2.721177220E-2,5.198786900E-2
1.602426583E0,1.359818879E-2,8.606306585E-3,-1.808251441E-2,2.420654000E-2
1.612404583E0,-1.475122317E-2,2.086197923E-2,-2.886010230E-2,3.854511989E-2
1.622382583E0,-3.173808128E-2,5.359877637E-3,-2.227438331E-2,3.914309956E-2
1.632359583E0,-2.675293480E-2,8.605977679E-3,-3.035757422E-2,4.136864374E-2
1.642337583E0,-3.294716899E-2,1.265049675E-2,-2.047811866E-2,4.080323953E-2
1.652315583E0,1.269766276E-3,1.735250780E-2,-5.209284425E-3,1.816200643E-2
1.662293583E0,2.942696244E-2,5.753879473E-3,-3.499792457E-2,4.608587605E-2
1.672271583E0,2.000910344E-2,4.435825702E-3,-1.060041726E-2,2.307400304E-2
1.682249583E0,3.499076401E-2,-6.475581201E-3,-2.497170389E-2,4.347266627E-2
1.692227583E0,1.618680826E-2,-1.107087144E-2,-5.363650918E-3,2.033090522E-2
1.702205583E0,3.933440242E-4,-8.508429676E-4,-3.230528176E-2,3.231887812E-2
1.712183583E0,8.873104071E-3,-4.884142689E-3,-1.314337134E-2,1.659322259E-2
1.722160583E0,-1.697915395E-2,1.515148792E-2,-1.239609718E-2,2.591375080E-2
1.732138583E0,-2.652937016E-2,1.851015600E-2,-3.170769632E-2,4.529692442E-2
1.742116583E0,-2.900238835E-2,1.594659962E-2,-2.033310771E-2,3.884414806E-2
1.752094583E0,-1.781993103E-2,8.241175376E-3,-3.215968609E-2,3.767907009E-2
1.762072583E0,-5.707270768E-4,1.003858206E-2,-2.198085308E-2,2.417140379E-2
1.772050583E0,6.768972098E-3,-2.285055332E-3,-2.781754375E-2,2.872030991E-2
1.782028583E0,1.290829957E-2,4.809627235E-3,-2.377711773E-2,2.747922924E-2
1.792006583E0,2.688171972E-2,1.208646884E-3,-2.736789286E-2,3.838084473E-2
1.801984583E0,2.453521837E-2,-1.078193676E-2,-3.125804543E-2,4.117392992E-2
1.811961583E0,1.716456093E-2,-1.304367632E-2,-2.676738381E-2,3.436935379E-2
1.821939583E0,1.952161468E-3,-6.536976965E-3,-6.110925078E-3,9.158952317E-3
1.831917583E0,-1.029647853E-2,4.667823119E-3,-1.928236306E-2,2.235208196E-2
1.841895583E0,-3.514242160E-2,1.275569181E-2,-2.631773293E-2,4.572002336E-2
1.851873583E0,-1.941803902E-2,8.680712404E-3,-1.583835304E-2,2.651920877E-2
1.861851583E0,-1.561704278E-2,1.822344144E-2,-3.065812111E-2,3.893464053E-2
1.871829583E0,2.522904533E-3,8.345776582E-3,-2.122773170E-2,2.294849946E-2
1.881807583E0,3.682519316E-3,-6.947679911E-3,-2.287313819E-2,2.418701419E-2
1.891785583E0,1.494971559E-2,-5.265417695E-3,-3.739294410E-2,4.061343236E-2
1.901762583E0,3.531026410E-2,-2.570527364E-3,-7.904266119E-3,3.627533300E-2
1.911740583E0,3.554255388E-2,-2.779985592E-4,-2.915947974E-2,4.597418491E-2
1.921718583E0,1.599545585E-2,4.514616933E-3,-3.709473610E-2,4.064794976E-2
1.931696583E0,-2.260202381E-3,-1.096686409E-2,-3.425123513E-2,3.603509027E-2
1.941674583E0,-1.205761192E-2,-1.845344715E-3,-2.167913675E-2,2.487521402E-2
1.951652583E0,-7.909208843E-3,8.986868961E-3,-2.946587384E-2,3.180498576E-2
1.961630583E0,-1.927941889E-2,6.968702478E-3,-3.530431867E-2,4.082467053E-2
1.971608583E0,-7.422288812E-3,1.020819699E-2,-1.135529280E-2,1.697764211E-2
1.981586583E0,-5.934129031E-3,1.455424053E-2,-2.677440047E-2,3.104687304E-2
1.991563583E0,2.494594188E-2,-4.831079207E-4,-3.126623154E-2,4.000138303E-2
2.001541583E0,2.563482839E-2,-6.053357413E-3,-3.111654282E-2,4.076796291E-2
2.011519583E0,1.312653319E-2,1.230225851E-2,-3.051837265E-2,3.542629684E-2
2.021497583E0,1.590687510E-2,1.709466387E-2,-2.991961777E-2,3.795312551E-2
2.031475583E0,1.220120674E-2,-2.502608299E-3,-1.075887680E-2,1.645861247E-2
2.041453583E0,-8.918305789E-3,-2.327310601E-3,-1.210549057E-2,1.521497468E-2
2.051431583E0,-1.149594803E-2,-5.027554790E-3,-2.842273057E-2,3.106903186E-2
2.061409583E0,-4.290312259E-3,7.806398347E-3,-1.884323716E-2,2.084260591E-2
2.071387583E0,-1.120139682E-2,6.893976890E-3,-1.689728379E-2,2.141299623E-2
2.081364583E0,-1.468205244E-2,1.599220790E-2,-3.231580675E-2,3.893102546E-2
2.091342583E0,-4.215043061E-4,1.196443562E-2,-1.854444444E-2,2.207310140E-2
2.101320583E0,1.246838795E-3,-1.256878191E-2,-2.243576646E-2,2.574669886E-2
2.111298583E0,-4.313831313E-3,-1.508338613E-2,-1.944140732E-2,2.498171324E-2
2.121276583E0,1.342462242E-2,-1.581087112E-2,-1.884382188E-2,2.802309326E-2
2.131254583E0,1.649716294E-2,-2.429636875E-3,-2.647736192E-2,3.129073688E-2
2.141232583E0,3.674550201E-3,-2.668322045E-3,-1.450343370E-2,1.519775809E-2
2.151210583E0,2.435182594E-4,3.868664056E-4,-3.126915514E-2,3.127249639E-2
2.161188583E0,-1.420934388E-2,8.124660468E-3,-2.034187853E-2,2.610953051E-2
2.171165583E0,-5.212552927E-3,6.979090422E-3,-2.979156375E-3,9.206181828E-3
2.181143583E0,-6.784346164E-4,-1.086878618E-3,-2.378588855E-2,2.382037096E-2
2.191121583E0,7.509987911E-3,-8.374939570E-3,-2.558156848E-2,2.794559316E-2
2.201099583E0,1.460573257E-2,8.442639364E-3,-1.570269763E-2,2.304734901E-2
2.211077583E0,1.435323107E-2,1.524072192E-2,-1.630203724E-2,2.653396436E-2
2.221055583E0,9.991582779E-3,-1.849373812E-3,-1.750013173E-2,2.023626745E-2
2.231033583E0,1.432305167E-3,1.218769876E-3,-1.690196157E-2,1.700626952E-2
2.241011583E0,5.328519659E-3,9.136676453E-3,-3.516223133E-2,3.671858508E-2
2.250989583E0,6.381212622E-3,7.903992031E-3,-1.944491565E-2,2.193849834E-2
2.260966583E0,9.371944657E-4,1.080565453E-2,-3.336538196E-2,3.508403079E-2
2.270944583E0,-2.830908902E-3,9.847442061E-3,-2.812686145E-2,2.993503792E-2
2.280922583E0,-2.309526843E-3,1.077693008E-2,-1.914670765E-2,2.209236407E-2
2.290900583E0,1.032859253E-2,-7.107519032E-3,-1.345736682E-2,1.839286200E-2
2.300878583E0,-8.794376794E-3,-4.366563605E-3,-1.899701893E-2,2.138444924E-2
2.310856583E0,-8.064166910E-3,2.511452213E-3,-3.022367299E-2,3.138166007E-2
2.320834583E0,8.903900168E-3,-7.490347205E-3,-3.261810780E-2,3.463128204E-2
2.330812583E0,2.499750929E-3,5.087443069E-4,-3.007456899E-2,3.018256575E-2
2.340790583E0,2.765623368E-3,-4.604115877E-3,-2.887705922E-2,2.937228464E-2
2.350767583E0,1.426917049E-3,-5.597585225E-3,-2.932729483E-2,2.989078912E-2
2.360741833E0,1.282529652E-3,-3.004801897E-3,-2.498573720E-2,2.519842813E-2
2.370719833E0,-1.004681384E-2,1.038757861E-3,-3.351799428E-2,3.500676259E-2
2.380697833E0,-1.462813700E-2,-5.225711446E-3,-2.947815299E-2,3.332044351E-2
2.390675833E0,7.210030316E-3,1.991397198E-3,-2.558566153E-2,2.665663662E-2
2.400653833E0,-2.915008308E-3,5.657126326E-3,-2.049566031E-2,2.146095159E-2
2.410631833E0,1.129970542E-2,1.035048533E-4,-3.426585317E-2,3.608105804E-2
2.420609833E0,2.895016769E-2,-3.541311342E-4,-3.351740956E-2,4.429056741E-2
2.430587833E0,2.056730697E-3,-6.808735449E-3,-2.303919911E-2,2.411210724E-2
2.440564833E0,7.557642718E-3,1.725412840E-3,-2.468402088E-2,2.587268636E-2
2.450542833E0,7.781394648E-3,7.643489437E-3,-3.201818347E-2,3.382509580E-2
2.460520833E0,5.484473580E-3,-5.393362083E-3,-2.737783313E-2,2.843788937E-2
2.470498833E0,3.909039537E-3,-3.610107489E-3,-2.618032336E-2,2.671559091E-2
2.480476833E0,-8.122154844E-3,1.522726418E-2,-3.126973987E-2,3.571604129E-2
2.490454833E0,-5.119641584E-3,2.277024547E-3,-3.052071154E-2,3.103078155E-2
2.500432833E0,6.163894914E-3,-3.980117468E-3,-2.123942614E-2,2.247105156E-2
2.510410833E0,7.112914003E-3,2.764938148E-3,-2.468226671E-2,2.583510632E-2
2.520388833E0,1.031405444E-3,7.815004718E-3,-2.737666368E-2,2.848894190E-2
2.530365833E0,-1.318190815E-3,-6.681046877E-3,-2.977168322E-2,3.054058179E-2
2.540343833E0,1.631911750E-2,4.652656903E-3,-2.782456040E-2,3.259090324E-2
2.550321833E0,2.824264546E-3,-3.005560208E-3,-1.944257677E-2,1.987520198E-2
2.560299833E0,7.135044343E-3,1.471458214E-2,-2.812510729E-2,3.253382002E-2
2.570277833E0,-8.815065888E-4,-9.058186719E-3,-2.752635241E-2,2.899185881E-2
2.580255833E0,-6.364385888E-3,-8.272202164E-3,-3.366300523E-2,3.524390242E-2
2.590233833E0,-1.342061388E-2,9.660431659E-3,-1.674642563E-2,2.353464654E-2
2.600211833E0,-2.783939315E-3,3.845028514E-3,-2.587860703E-2,2.631039461E-2
2.610189833E0,1.067729444E-2,2.990412265E-3,-2.587977648E-2,2.815510633E-2
2.620166833E0,-7.626061994E-3,-7.665580949E-3,-1.749896228E-2,2.057016368E-2
2.630144833E0,1.459259461E-3,-7.833350357E-3,-2.243869007E-2,2.381146001E-2
2.640122833E0,9.725513910E-3,1.240852252E-3,-2.767838001E-2,2.936354977E-2
2.650100833E0,2.085718040E-2,4.513228219E-3,-2.707962513E-2,3.447748976E-2
2.660078833E0,1.554762765E-2,-8.683288833E-3,-1.660199940E-2,2.434655242E-2
2.670056833E0,-5.236524227E-4,5.998877808E-5,-9.268421531E-3,9.283396371E-3
2.680034833E0,6.629975103E-3,5.078288522E-3,-1.495717764E-2,1.713075442E-2
2.690012833E0,3.404438531E-3,-8.052757988E-3,-2.588445425E-2,2.732109231E-2
2.699989833E0,7.986497157E-4,-1.012549544E-2,-2.992721915E-2,3.160382802E-2
2.709967833E0,1.364189901E-2,-1.393163083E-3,-2.064593375E-2,2.478501346E-2
2.719945833E0,1.429657475E-2,1.152367434E-3,-2.319122672E-2,2.726816820E-2
2.729923833E0,2.036322544E-3,1.529823476E-3,-1.136640251E-2,1.164826491E-2
2.739901833E0,9.397571906E-4,-1.192876761E-2,-2.379056633E-2,2.663024007E-2
2.749879833E0,2.218652889E-4,-5.665833196E-3,-2.708430290E-2,2.767147184E-2
2.759857833E0,1.012745745E-2,1.256336410E-2,-2.888232172E-2,3.308461908E-2
2.769835833E0,-1.152326320E-3,1.837770743E-3,-2.349294305E-2,2.359287245E-2
2.779813833E0,9.930319490E-3,1.375825175E-2,-2.573827386E-2,3.082790096E-2
2.789790833E0,9.010810568E-4,1.097494969E-3,-2.513893425E-2,2.517900828E-2
2.799768833E0,-4.852951448E-3,-1.134977449E-2,-2.768364251E-2,3.031093171E-2
2.809746833E0,-1.182698037E-2,-1.950320508E-3,-2.454076409E-2,2.731172490E-2
2.819724833E0,-7.031288242E-3,-7.968585491E-3,-2.139730096E-2,2.389104136E-2
2.829702833E0,2.737465370E-3,-5.061194552E-3,-2.019920647E-2,2.100279384E-2
2.839680833E0,7.390190796E-3,9.914648496E-3,-2.064827263E-2,2.406795250E-2
2.849658833E0,1.906146621E-3,-3.400841122E-3,-2.843208611E-2,2.869812948E-2
2.859636833E0,-1.131433716E-2,1.478085668E-2,-2.289477289E-2,2.950692419E-2
2.869614833E0,-1.888818078E-2,1.279014470E-3,-2.693461418E-2,3.292222186E-2
2.879591833E0,5.496654517E-3,-7.305821870E-4,-2.708488762E-2,2.764666524E-2
2.889569833E0,1.317561097E-2,5.522119598E-3,-2.394142449E-2,2.787978364E-2
2.899547833E0,1.374986008E-2,-8.173119267E-3,-1.316266716E-2,2.071507513E-2
2.909525833E0,1.084923455E-3,3.973374898E-3,-1.780184805E-2,1.827212525E-2
2.919503833E0,-2.040605173E-3,2.198955081E-3,-2.423670888E-2,2.442166109E-2
2.929481833E0,1.453210105E-2,-3.030008879E-3,-3.471491933E-2,3.775564248E-2
2.939459833E0,-5.430569560E-3,2.732869824E-3,-3.112180531E-2,3.171003672E-2
2.949437833E0,1.102156068E-2,-1.541161593E-3,-1.330767810E-2,1.734774554E-2
2.959415833E0,3.791789159E-3,-1.427581256E-2,-2.064242542E-2,2.538279371E-2
2.969393833E0,1.024631125E-2,-4.662661124E-3,-2.004367054E-2,2.298860656E-2
2.979370833E0,-3.173384434E-3,3.581739357E-3,-1.645114124E-2,1.713298788E-2
2.989348833E0,5.502513153E-3,3.486932237E-3,-1.719900012E-2,1.839135538E-2
2.999326833E0,-1.778926284E-3,2.528966451E-3,-2.438288927E-2,2.457815166E-2
3.009304833E0,1.167812306E-3,1.927260552E-3,-1.465195298E-2,1.482423168E-2
3.019282833E0,5.402308779E-3,3.130718032E-3,-7.297325134E-4,6.286401601E-3
3.029260833E0,-6.198982776E-3,1.319028611E-2,-3.171295881E-2,3.490161589E-2
3.039238833E0,-5.557120666E-3,2.505541043E-3,-2.003782332E-2,2.094453841E-2
3.049216833E0,8.210868069E-3,-1.409567264E-2,-2.198377669E-2,2.737503934E-2
3.059193833E0,-1.495576152E-3,-8.034503711E-3,-2.527575910E-2,2.656414870E-2
3.069171833E0,5.785104975E-3,-2.231946168E-3,-2.437762678E-2,2.515388063E-2
3.079149833E0,1.192573208E-2,-7.590151867E-3,-2.782163680E-2,3.120700186E-2
3.089127833E0,1.242901975E-2,-8.327668486E-3,-3.874891341E-2,4.153683768E-2
3.099105833E0,1.898336020E-2,1.773332600E-3,-2.871976912E-2,3.447227598E-2
3.109083833E0,6.397271908E-3,-3.251526989E-3,-1.435023665E-2,1.604452578E-2
3.119061833E0,1.294193248E-2,-2.030336000E-3,-2.378062606E-2,2.715021282E-2
3.129039833E0,7.309983443E-3,6.606924282E-3,-3.321160018E-2,3.464242620E-2
3.139017833E0,6.640607442E-3,1.042960547E-3,-1.944023788E-2,2.056959608E-2
3.148994833E0,4.384970914E-3,-5.980175855E-3,-1.689377546E-2,1.844966457E-2
3.158972833E0,1.815454936E-2,9.603960346E-4,-2.617272198E-2,3.186724649E-2
3.168950833E0,-1.779723424E-3,4.289416904E-3,-1.763988018E-2,1.824093982E-2
3.178928833E0,7.546941857E-3,-3.417021465E-3,-1.210022807E-2,1.466451112E-2
3.188906833E0,8.486902330E-3,-2.068781443E-3,-2.317719340E-2,2.476872346E-2
3.198884833E0,8.368178727E-3,-1.266122273E-2,-2.736789286E-2,3.129432115E-2
3.208862833E0,1.538283210E-2,2.552903490E-3,-2.886536479E-2,3.280789728E-2
3.218840833E0,2.010706714E-3,-4.123876747E-3,-2.227964580E-2,2.274712988E-2
3.228818833E0,1.124867019E-2,-1.248890346E-2,-2.377594829E-2,2.911702264E-2
3.238795833E0,-1.510886264E-3,-2.309102006E-4,-1.988462627E-2,1.994328104E-2
3.248773833E0,1.087086468E-3,1.441959925E-3,-3.260758281E-2,3.265754832E-2
3.258751833E0,7.908916483E-3,-8.034786936E-3,-2.257726908E-2,2.523572547E-2
3.268729833E0,-4.433639848E-3,-3.176362859E-3,-1.524193704E-2,1.618836274E-2
3.278707833E0,1.679811639E-2,1.691763941E-4,-2.676621437E-2,3.160119565E-2
3.288685833E0,1.306448418E-2,-4.176008329E-4,-2.586808205E-2,2.898297442E-2
3.298663833E0,-4.637890400E-3,-3.318843059E-4,-1.359419167E-2,1.436740136E-2
3.308641833E0,3.203872181E-3,5.072724530E-3,-2.706617653E-2,2.772318963E-2
3.318619833E0,3.174939884E-3,-8.819364505E-3,-1.613889992E-2,1.866348103E-2
3.328596833E0,-7.112073465E-3,-2.064624438E-3,-3.335251808E-2,3.416481707E-2
3.338574833E0,-1.156954985E-2,4.476116672E-3,-2.332337379E-2,2.641722676E-2
3.348552833E0,8.903706023E-3,6.332406644E-3,-1.553897560E-2,1.899566049E-2
3.358531708E0,1.075630494E-2,1.798521308E-3,-2.691531837E-2,2.904078404E-2
3.368509708E0,2.200263853E-2,-6.423029350E-3,-3.425065041E-2,4.121260076E-2
3.378487708E0,1.133215975E-2,-5.881604590E-3,-2.452088356E-2,2.764570216E-2
3.388465708E0,-5.291830665E-3,2.579535730E-3,-2.167562842E-2,2.246086249E-2
3.398443708E0,-2.433554053E-3,-1.909595565E-2,-2.751173437E-2,3.357786824E-2
3.408421708E0,9.637741721E-3,-9.220492635E-3,-2.316959202E-2,2.673450101E-2
3.418398708E0,6.688582019E-3,5.639091320E-4,-3.679068089E-2,3.739798555E-2
3.428376708E0,-2.216786805E-3,-8.945582137E-3,-1.762993991E-2,1.989352570E-2
3.438354708E0,4.553537462E-3,7.763147224E-3,-2.810873508E-2,2.951443962E-2
3.448332708E0,8.396738721E-3,7.988639614E-3,-2.361748874E-2,2.630797139E-2
3.458310708E0,-1.432956127E-4,-2.904284606E-3,-1.493495822E-2,1.521539943E-2
3.468288708E0,-1.790728066E-3,-1.003246075E-2,-1.643184543E-2,1.933552482E-2
3.478266708E0,5.783878430E-3,1.030349747E-2,-3.125102878E-2,3.341020966E-2
3.488244708E0,2.483474656E-3,8.321053823E-3,-3.274850070E-2,3.388025799E-2
3.498222708E0,-1.201772523E-2,-2.110671261E-3,-2.541375339E-2,2.819112474E-2
3.508199708E0,7.971979617E-3,-7.190823583E-3,-2.182063937E-2,2.431873157E-2
3.518177708E0,1.508104268E-3,-5.095327673E-3,-1.972382784E-2,2.042709297E-2
3.528155708E0,3.226792810E-3,-1.913993767E-2,-2.077164888E-2,2.842904858E-2
3.538133708E0,-5.122670259E-3,-1.025180443E-2,-1.778021336E-2,2.115365764E-2
3.548111708E0,1.018774088E-2,-4.023332046E-3,-1.942620456E-2,2.230145037E-2
3.558089708E0,5.936767131E-3,1.008383403E-2,-1.912624240E-2,2.242191029E-2
3.568067708E0,-1.154028865E-2,-2.932369513E-3,-2.945593357E-2,3.177151359E-2
3.578045708E0,4.474259724E-3,1.834837999E-3,-3.559200168E-2,3.591902301E-2
3.588023708E0,-5.673884538E-3,2.417485630E-3,-2.780701876E-2,2.848275785E-2
3.598000708E0,-4.448463453E-3,4.771958375E-3,-2.780760348E-2,2.856261937E-2
3.607978708E0,9.366645617E-3,-3.585357321E-3,-2.121954560E-2,2.347036329E-2
3.617956708E0,4.774283557E-3,6.786059216E-3,-3.618783295E-2,3.712685870E-2
3.627934708E0,1.153267128E-2,1.702846242E-3,-2.690771699E-2,2.932451919E-2
3.637912708E0,1.867967272E-2,1.087202042E-2,-2.930215180E-2,3.641081022E-2
3.647890708E0,9.371962929E-3,-5.231540389E-3,-2.451035857E-2,2.675743600E-2
3.657868708E0,-4.676146265E-3,3.820881341E-4,-2.226561248E-2,2.275455635E-2
3.667846708E0,8.548042278E-3,1.642333956E-2,-1.283463836E-2,2.252827225E-2
3.677824708E0,2.734190016E-4,9.641665751E-3,-2.256498992E-2,2.454007430E-2
3.687801708E0,2.517379371E-3,7.736798208E-3,-1.807374358E-2,1.982058154E-2
3.697779708E0,1.110781168E-2,-1.431590253E-3,-1.971915007E-2,2.267769411E-2
3.707757708E0,1.600800909E-2,9.296515575E-3,-4.202160001E-2,4.591836696E-2
3.717735708E0,2.248913601E-2,-8.013517689E-3,-2.450918913E-2,3.421517289E-2
3.727713708E0,1.476387920E-2,-1.488356668E-2,-1.897012174E-2,2.827292353E-2
3.737691708E0,2.232096232E-2,-1.442535510E-3,-1.807198942E-2,2.875592233E-2
3.747669708E0,1.309512039E-2,7.223942578E-3,-2.660424650E-2,3.051972241E-2
3.757647708E0,-2.326465496E-2,4.529262381E-3,-8.940977454E-3,2.533178766E-2
3.767624708E0,-2.850133907E-2,1.404641898E-2,-1.642658293E-2,3.576955188E-2
3.777602708E0,-2.139939088E-2,2.170650903E-2,-8.494250178E-3,3.164267294E-2
3.787580708E0,-4.984198599E-3,-3.854594193E-5,-3.364370942E-2,3.401092332E-2
3.797558708E0,5.035766016E-3,-2.869329220E-3,-1.687857270E-2,1.784595769E-2
3.807536708E0,1.093674864E-2,-9.150070231E-3,-3.079962373E-2,3.394043426E-2
3.817514708E0,2.521806581E-2,-9.664013078E-3,-3.199771821E-2,4.187120685E-2
3.827492708E0,3.652617204E-2,9.166871840E-3,-2.361573458E-2,4.445104838E-2
3.837470708E0,2.176827710E-2,1.519673076E-3,-2.166861176E-2,3.075217114E-2
3.847448708E0,3.750605118E-3,-3.396044578E-3,-2.600899994E-2,2.649657026E-2
3.857425708E0,2.256851653E-3,-2.583793234E-3,-1.687857270E-2,1.722369250E-2
3.867403708E0,-1.172737899E-2,1.498352665E-2,-1.433327973E-2,2.382184705E-2
3.877381708E0,-2.353378905E-2,1.269379355E-2,-1.163946748E-2,2.916245574E-2
3.887359708E0,-1.642725673E-2,1.865990868E-2,-2.316432953E-2,3.397989285E-2
3.897337708E0,2.630545835E-3,5.769922771E-3,-3.289468110E-2,3.350032574E-2
3.907315708E0,1.544258562E-2,-4.209748590E-3,-2.885425508E-2,3.299641602E-2
3.917293708E0,1.313693255E-2,-4.214225365E-3,-2.092133760E-2,2.506074739E-2
3.927271708E0,2.305845610E-2,9.341447772E-3,-1.583075166E-2,2.948843404E-2
3.937249708E0,2.253337385E-2,-1.712474048E-2,-2.211767793E-2,3.591937291E-2
3.947226708E0,2.653194431E-2,-7.503932845E-3,-2.660775483E-2,3.831743329E-2
3.957204708E0,4.704799906E-3,1.008406243E-2,-3.169600189E-2,3.359255859E-2
3.967182708E0,-2.234700755E-3,4.507189142E-3,-1.343397796E-2,1.434504811E-2
3.977160708E0,-1.448026640E-2,3.620239617E-3,-2.166802704E-2,2.631135963E-2
3.987138708E0,-3.041773202E-2,1.638497634E-2,-3.618783295E-2,5.003264059E-2
3.997116708E0,-6.325143306E-3,2.180254041E-2,-1.882394135E-2,2.949065910E-2
4.007094708E0,4.107737518E-3,-8.482574020E-4,-1.912448823E-2,1.957904743E-2
4.017072708E0,8.676496013E-3,-2.136060968E-4,-3.095106661E-2,3.214491772E-2
4.027050708E0,2.633309786E-2,6.810818519E-3,-1.583367527E-2,3.147260021E-2
4.037027708E0,2.784379683E-2,-7.847374538E-3,-2.152184665E-2,3.605618106E-2
4.047005708E0,3.436770664E-2,-2.130579203E-4,-2.945651829E-2,4.526445761E-2
4.056983708E0,2.008433152E-2,5.132110314E-3,-2.750881076E-2,3.444493574E-2
4.066961708E0,1.265225548E-2,2.276951456E-3,-2.137332737E-2,2.494159577E-2
4.076939708E0,1.381647038E-2,2.910396773E-3,-2.376776218E-2,2.764546585E-2
4.086917708E0,-6.606097450E-4,2.269765777E-2,-1.628449559E-2,2.794288586E-2
4.096895708E0,-1.668385128E-2,1.251744518E-2,-2.721177220E-2,3.428582614E-2
4.106873708E0,-5.614633514E-3,2.389683947E-3,-1.793107152E-2,1.894090876E-2
4.116851708E0,-4.871555187E-3,-1.856271699E-3,-2.691181004E-2,2.741210160E-2
4.126828708E0,1.475362373E-2,1.232574787E-3,-3.200064182E-2,3.525946300E-2
4.136806708E0,2.096505011E-2,-1.303498772E-2,-1.763052464E-2,3.033611099E-2
4.146784708E0,9.216075246E-3,-1.535646024E-2,-2.616570532E-2,3.170805969E-2
4.156762708E0,2.489793304E-2,-2.063929168E-2,-1.134289670E-1,1.179492178E-1
4.166740708E0,5.698158248E-2,-1.743983231E-2,1.158842129E-1,1.303080937E-1
4.176718708E0,1.312227112E-3,-1.090659209E-2,-4.142810762E-2,4.285981558E-2
4.186696708E0,3.265802646E-2,4.652486969E-2,-1.429211533E-1,1.538101630E-1
4.196674708E0,-7.598265335E-2,-4.005581179E-2,1.597482705E-1,1.813762432E-1
4.206652708E0,4.568214887E-3,3.661168300E-2,-1.774922311E-1,1.812864475E-1
4.216629708E0,-6.784242924E-2,3.094181157E-2,5.077371240E-2,9.021064671E-2
4.226607708E0,-7.269528019E-3,5.708408235E-3,-2.375957608E-2,2.549410555E-2
4.236585708E0,9.502127431E-3,1.452263815E-2,-1.057954270E-1,1.072094670E-1
4.246563708E0,2.551758943E-2,-4.815369383E-2,1.069169229E-1,1.200048083E-1
4.256541708E0,6.825751760E-2,1.530315008E-2,-1.623736703E-1,1.768006898E-1
4.266519708E0,5.649792182E-2,-6.477644172E-2,1.305975616E-2,8.693997816E-2
4.276497708E0,7.934808685E-2,-4.104169803E-2,1.844971955E-2,9.121914281E-2
4.286475708E0,5.098319803E-2,-7.265942032E-3,-1.672596037E-2,5.414645091E-2
4.296453708E0,2.619548273E-2,6.532043377E-3,-6.806977630E-2,7.322817321E-2
4.306430708E0,-3.843258361E-3,-2.162483987E-2,1.515188992E-2,2.668303024E-2
4.316408708E0,-3.822094638E-2,-6.174093280E-3,-1.809344870E-1,1.850303995E-1
4.326386708E0,-7.719685966E-2,6.216264496E-2,1.887890518E-1,2.132248945E-1
4.336364708E0,-3.608713750E-2,1.828685632E-2,-8.041675687E-3,4.124753514E-2
4.346342708E0,-1.085414759E-2,2.725954578E-2,-1.944088107E-1,1.966104805E-1
4.356320500E0,-7.341860818E-2,-1.109874621E-2,1.446338028E-1,1.625804758E-1
4.366298500E0,6.752250432E-2,1.147806605E-2,-1.270529795E-1,1.443381245E-1
4.376276500E0,2.148509370E-2,1.172985264E-2,2.576984882E-2,3.554270393E-2
4.386254500E0,7.314679944E-2,1.856984328E-3,-3.933831275E-2,8.307469837E-2
4.396231500E0,2.700517363E-2,-5.744091782E-2,-8.738839209E-2,1.080068031E-1
4.406209500E0,3.862078629E-2,-5.449144520E-2,6.229682028E-2,9.133332662E-2
4.416187500E0,1.863063149E-2,4.882569423E-2,-3.633401334E-2,6.364911132E-2
4.426165500E0,1.045214009E-2,2.231867597E-2,-8.285796940E-2,8.644543726E-2
4.436143500E0,-1.109307441E-1,-2.218751561E-2,-3.191176414E-2,1.175426583E-1
4.446121500E0,2.614371066E-1,6.476319412E-2,-8.511908770E-2,2.824692746E-1
4.456099500E0,-1.866203195E-1,5.624482417E-2,-1.870576912E-1,2.701503354E-1
4.466077500E0,1.686878410E-1,7.415409654E-2,2.135929406E-2,1.855010436E-1
4.476054500E0,2.215845312E-2,1.407416768E-1,-5.667320216E-1,5.843666665E-1
4.486032500E0,3.866252080E-3,1.929402460E-1,-6.892621797E-1,7.157675872E-1
4.496010500E0,1.877420347E-2,2.713534544E-1,-6.322319466E-1,6.882604174E-1
4.505988500E0,-2.467920606E-1,2.314481445E-1,-8.086664164E-1,8.765933708E-1
4.515966500E0,4.141612996E-2,1.954650372E-1,6.665726441E-1,6.958742461E-1
4.525944500E0,4.449879485E-1,9.754062027E-2,2.266441013E0,2.311770601E0
4.535922500E0,2.050724510E-2,-4.899339968E-1,7.863627970E-2,4.966281636E-1
4.545900500E0,3.567305870E-2,5.059846038E-1,-3.815910476E-1,6.347477562E-1
4.555878500E0,3.509256175E-1,1.274480174E0,-1.110696155E-1,1.326568868E0
4.565855500E0,6.296547132E-1,1.871925280E0,4.990013838E-3,1.974992206E0
4.575833500E0,2.353168816E-1,1.339948377E0,2.212410986E-1,1.378326272E0
4.585811500E0,5.500128586E-4,2.783108370E-1,8.660954297E-2,2.914763069E-1
4.595789500E0,-3.152914793E-1,-2.295127161E-1,1.308957696E-2,3.902001292E-1
4.605767500E0,-9.744232857E-1,-8.617892477E-1,2.008284688E-1,1.316249794E0
4.615745500E0,-1.029160972E0,-1.186208560E0,7.263469756E-2,1.572112862E0
4.625723500E0,-3.079498250E-1,-8.867980083E-1,5.267470068E-1,1.076432168E0
4.635701500E0,1.351536938E-1,-6.376982161E-1,7.640311110E-1,1.004325184E0
4.645679500E0,2.025559921E-1,-3.968249448E-2,6.291837931E-2,2.157831151E-1
4.655656500E0,2.188119094E-1,4.089430799E-1,3.319405854E-2,4.649891825E-1
4.665634500E0,-2.559871544E-1,5.093672911E-1,-1.875266379E-1,6.001255706E-1
4.675612500E0,-2.432785235E-1,5.445746922E-1,6.500127447E-1,8.821919313E-1
4.685590500E0,-4.075210371E-1,6.271526165E-1,1.376733942E0,1.566776993E0
4.695568500E0,2.911004153E-1,3.418637854E-1,1.070633957E0,1.160976903E0
4.705546500E0,8.778581272E-1,4.334853789E-1,6.904532576E-1,1.198027615E0
4.715524500E0,4.768122236E-1,-8.480259253E-1,2.382927489E-1,1.001639307E0
4.725502500E0,3.213135633E-1,-1.338737858E0,-6.981663197E-1,1.543663716E0
4.735480500E0,2.766199319E-1,-1.124807167E0,-1.408227630E0,1.823407472E0
4.745457500E0,7.039560865E-1,-4.353891592E-1,-1.203751668E0,1.460868225E0
4.755435500E0,7.498728092E-1,-2.218440928E-2,-5.027301532E-1,9.030719711E-1
4.765413500E0,5.564834605E-1,-6.156610836E-1,-5.389261723E-2,8.316350317E-1
4.775391500E0,1.094021211E0,-1.120578899E0,1.603201282E-1,1.574256023E0
4.785369500E0,9.892544559E-1,-9.327422129E-1,1.192586995E0,1.808561902E0
4.795347500E0,-1.713753127E-1,-7.240314782E-1,3.285874411E0,3.369059472E0
4.805325500E0,-1.064552560E0,-9.804213595E-1,5.179400475E0,5.377795782E0
4.815303500E0,-1.302488044E0,-1.142199637E0,6.610812315E0,6.834027699E0
4.825281500E0,-1.104858879E0,-1.047919863E0,7.593930995E0,7.745104076E0
4.835258500E0,-8.586602564E-1,-1.555573956E0,8.062354365E0,8.255826166E0
4.845236500E0,-5.534546028E-1,-2.412875174E0,8.199899004E0,8.565431820E0
4.855214500E0,-7.925608456E-3,-2.938663822E0,7.966227309E0,8.490970817E0
4.865192500E0,9.148625238E-1,-3.145655256E0,7.391862917E0,8.085280317E0
4.875170500E0,1.926039799E0,-2.908601824E0,6.726789499E0,7.577551771E0
4.885148500E0,2.626009693E0,-2.492973842E0,6.137165628E0,7.125703294E0
4.895126500E0,3.155236503E0,-2.066291260E0,5.906143307E0,7.007681908E0
4.905104500E0,3.692774547E0,-2.223443221E0,6.143192938E0,7.504605458E0
4.915081500E0,2.968635480E0,-3.130085290E0,5.874163715E0,7.288074498E0
4.925059500E0,2.235964010E0,-2.770421886E0,4.935603157E0,6.085634807E0
4.935037500E0,2.146619870E0,-2.409802754E0,4.328804845E0,5.399414557E0
4.945015500E0,2.302055527E0,-2.752990751E0,4.057236176E0,5.416602543E0
4.954993500E0,3.405614278E0,-2.714193598E0,3.911491402E0,5.853616018E0
4.964971500E0,5.271114637E0,-2.493505646E0,3.824419345E0,6.973406861E0
4.974949500E0,6.445441947E0,-3.345151144E0,3.474623117E0,8.050264833E0
4.984927500E0,5.787593933E0,-4.626367310E0,2.435548922E0,7.799449761E0
4.994905500E0,4.470073867E0,-4.786794443E0,1.104629084E0,6.641924934E0
5.004882500E0,3.209881657E0,-4.470719692E0,6.844282866E-2,5.504122023E0
5.014860500E0,2.794693093E0,-3.789537780E0,-4.625369775E-1,4.731262678E0
5.024838500E0,3.180275450E0,-3.356836220E0,-3.161922795E-1,4.634919514E0
5.034816500E0,4.710473368E0,-3.462711754E0,4.447427309E-1,5.863167074E0
5.044794500E0,6.950356035E0,-3.938706683E0,1.206468869E0,8.079382803E0
5.054772500E0,8.348342267E0,-5.083229565E0,1.659699419E0,9.914062920E0
5.064750500E0,7.380850856E0,-6.684660895E0,1.336194026E0,1.004724167E1
5.074728500E0,5.421334870E0,-6.703397713E0,4.039905614E-1,8.630736993E0
5.084706500E0,4.169805310E0,-6.143977050E0,-5.062250340E-1,7.442579801E0
5.094683500E0,3.578981298E0,-5.964816608E0,-1.148860347E0,7.050391790E0
5.104661500E0,3.329299343E0,-5.757481357E0,-1.593192895E0,6.838939194E0
5.114639500E0,3.095171273E0,-5.375485682E0,-2.041283450E0,6.530143157E0
5.124617500E0,2.966878976E0,-5.212976941E0,-2.519419921E0,6.505764843E0
5.134595500E0,2.630450360E0,-5.307919936E0,-3.006649398E0,6.643284109E0
5.144573500E0,2.373548555E0,-5.133611514E0,-3.191240442E0,6.493975322E0
5.154551500E0,2.018391016E0,-4.841333762E0,-2.951922091E0,6.018825377E0
5.164529500E0,1.078563951E0,-4.462338878E0,-2.598224893E0,5.275086829E0
5.174506500E0,-1.465435034E-1,-4.356432939E0,-2.201306539E0,4.883209337E0
5.184484500E0,-7.848799431E-1,-4.258659891E0,-1.659587152E0,4.637504729E0
5.194462500E0,-8.276839006E-1,-2.810163656E0,-1.367782440E0,3.233095918E0
5.204440500E0,-1.095632558E0,-2.157823135E0,-9.404728898E-1,2.596362964E0
5.214418500E0,-2.144940550E0,-2.206562017E0,-2.841612321E-1,3.090377566E0
5.224396500E0,-4.318573971E0,-2.189927273E0,-5.896332264E-3,4.842096382E0
5.234374500E0,-7.140038542E0,-1.931583252E0,-4.169914068E-1,7.408444241E0
5.244352500E0,-9.835463455E0,-1.188430209E0,-9.951067147E-1,9.956854177E0
5.254330500E0,-1.237500745E1,-7.539458334E-1,-1.177587059E0,1.245375264E1
5.264307500E0,-1.417258655E1,-1.027256387E0,-1.143842851E0,1.425573013E1
5.274285500E0,-1.521747112E1,-1.526230874E0,-1.257628498E0,1.534543702E1
5.284263500E0,-1.551751164E1,-1.789168468E0,-1.761756721E0,1.571935361E1
5.294241500E0,-1.508460250E1,-1.902382257E0,-2.810765920E0,1.546171711E1
5.304219500E0,-1.461471791E1,-2.312486082E0,-3.912141613E0,1.530498035E1
5.314197500E0,-1.439020822E1,-2.579280499E0,-4.922575561E0,1.542603418E1
5.324175500E0,-1.441555707E1,-3.028933722E0,-5.975210034E0,1.589609575E1
5.334153500E0,-1.389186523E1,-3.788852486E0,-6.914879808E0,1.597356834E1
5.344131500E0,-1.321314734E1,-4.429826020E0,-6.224055837E0,1.526268299E1
5.354108500E0,-1.182738062E1,-5.351110979E0,-4.802245710E0,1.384134693E1
5.364086125E0,-1.050812013E1,-6.040187802E0,-3.196050653E0,1.253471966E1
5.374064125E0,-9.808829387E0,-6.600777909E0,-1.685740140E0,1.194257605E1
5.384042125E0,-9.645944086E0,-7.493091084E0,-8.199220142E-1,1.224185131E1
5.394020125E0,-9.201507164E0,-8.334045240E0,-5.591566613E-1,1.242725635E1
5.403998125E0,-8.568347265E0,-9.071952746E0,-1.552076152E-1,1.247962303E1
5.413976125E0,-8.091407425E0,-9.891703144E0,8.254996732E-1,1.280617488E1
5.423954125E0,-7.520071306E0,-1.076871182E1,2.006511812E0,1.328693781E1
5.433932125E0,-6.614055766E0,-1.155600081E1,2.914847235E0,1.363023195E1
5.443909125E0,-5.438912770E0,-1.209519362E1,3.408397260E0,1.369279565E1
5.453887125E0,-3.898689508E0,-1.260388150E1,3.503386740E0,1.365032334E1
5.463865125E0,-2.458564147E0,-1.275897889E1,3.210473688E0,1.338443953E1
5.473843125E0,-1.330639610E0,-1.269997464E1,2.538887056E0,1.301944335E1
5.483821125E0,-5.421184231E-1,-1.271435996E1,2.073243453E0,1.289368760E1
5.493799125E0,-7.301197087E-2,-1.266833302E1,2.178824872E0,1.285454278E1
5.503777125E0,1.265363049E-1,-1.228622917E1,2.687884344E0,1.257744652E1
5.513755125E0,5.804297090E-1,-1.168637735E1,3.175506169E0,1.212403207E1
5.523732125E0,1.526773057E0,-1.108072158E1,3.429728195E0,1.169942145E1
5.533710125E0,2.607434843E0,-1.043745653E1,3.483078483E0,1.130800826E1
5.543688125E0,3.508965861E0,-9.768636796E0,3.348410382E0,1.090646406E1
5.553666125E0,4.508602633E0,-9.103209037E0,3.041821862E0,1.060417808E1
5.563644125E0,5.751191508E0,-8.432537495E0,3.066913726E0,1.065785401E1
5.573622125E0,6.797324461E0,-7.639543955E0,3.377315508E0,1.076905343E1
5.583600125E0,8.174326791E0,-6.716827598E0,3.806274265E0,1.124380342E1
5.593578125E0,9.813562124E0,-5.818590024E0,4.058581620E0,1.210925581E1
5.603556125E0,1.137365773E1,-4.736982597E0,4.020444911E0,1.296005677E1
5.613533125E0,1.269105647E1,-3.768664389E0,3.589456000E0,1.371677586E1
5.623511125E0,1.298286410E1,-2.761848114E0,3.104242351E0,1.363154012E1
5.633489125E0,1.290306481E1,-2.129460046E0,2.342950076E0,1.328582315E1
5.643467125E0,1.316161583E1,-1.892180620E0,1.733614072E0,1.340947040E1
5.653445125E0,1.337592797E1,-1.510167403E0,1.826925108E0,1.358431854E1
5.663423125E0,1.312435620E1,-7.365836960E-1,2.371544130E0,1.335722661E1
5.673401125E0,1.266130116E1,-5.959891498E-2,2.764154255E0,1.295965462E1
5.683379125E0,1.225506468E1,6.392778414E-1,2.959183456E0,1.262347231E1
5.693357125E0,1.201024176E1,1.218911160E0,3.106204677E0,1.246515780E1
5.703334125E0,1.174631716E1,1.516326860E0,3.284540076E0,1.229078588E1
5.713312125E0,1.138400029E1,1.528959185E0,3.535695530E0,1.201808311E1
5.723290125E0,1.122923151E1,1.553991700E0,3.772306620E0,1.194741929E1
5.733268125E0,1.099582001E1,1.566579586E0,4.042011781E0,1.181947920E1
5.743246125E0,1.059234576E1,1.418187193E0,4.219410456E0,1.148966789E1
5.753224125E0,1.014162951E1,1.218125879E0,4.308221476E0,1.108590331E1
5.763202125E0,9.739682554E0,9.596380162E-1,4.380142229E0,1.072231166E1
5.773180125E0,9.324827281E0,5.839123106E-1,4.315360926E0,1.029153523E1
5.783157125E0,9.069349566E0,2.453398132E-1,4.259460375E0,1.002278883E1
5.793135125E0,8.878420433E0,-2.287085778E-1,4.443096861E0,9.930748547E0
5.803113125E0,8.603011898E0,-8.248965329E-1,4.752925615E0,9.863192683E0
5.813091125E0,8.095757754E0,-1.365012614E0,5.013705586E0,9.619864695E0
5.823069125E0,7.400330855E0,-1.803805218E0,5.245395659E0,9.248393679E0
5.833047125E0,6.374109424E0,-2.426067077E0,5.402685760E0,8.700809493E0
5.843025125E0,5.074716019E0,-3.111065467E0,5.328192233E0,7.988811143E0
5.853003125E0,3.718833833E0,-3.688182728E0,4.952036172E0,7.207987178E0
5.862981125E0,2.499008461E0,-3.937244294E0,4.403322930E0,6.413749976E0
5.872958125E0,1.590576559E0,-3.958624054E0,3.872089355E0,5.761398629E0
5.882936125E0,1.306687222E0,-4.463289635E0,3.430150949E0,5.778781999E0
5.892914125E0,1.179714788E0,-4.890576088E0,3.099019618E0,5.908754865E0
5.902892125E0,9.966086452E-1,-5.167920637E0,2.754368648E0,5.940301267E0
5.912870125E0,7.476828808E-1,-5.299933224E0,2.335352496E0,5.839708311E0
5.922848125E0,2.609303905E-1,-5.349551527E0,1.858231101E0,5.669110074E0
5.932826125E0,-1.267515555E-1,-5.038021817E0,1.425670459E0,5.237391149E0
5.942804125E0,-2.148629558E-1,-4.767136688E0,1.149998800E0,4.908589974E0
5.952781125E0,1.423650831E-2,-4.695167989E0,1.098602943E0,4.822005137E0
5.962759125E0,5.502282554E-1,-4.666888515E0,1.423509621E0,4.910089529E0
5.972737125E0,4.649515852E-1,-5.757989480E0,1.541829491E0,5.978951498E0
5.982715125E0,3.638576120E-2,-5.834206767E0,1.330835638E0,5.984180480E0
5.992693125E0,-7.429574534E-1,-5.593257628E0,7.382042518E-1,5.690471175E0
6.002671125E0,-1.088496616E0,-5.615218601E0,3.604586256E-1,5.731093721E0
6.012649125E0,-9.638111740E-1,-5.448988107E0,5.441269782E-1,5.560258765E0
6.022627125E0,-8.754498053E-1,-4.498347786E0,5.787743622E-1,4.619147641E0
6.032605125E0,-9.146980709E-1,-4.144411145E0,3.878627712E-1,4.261836908E0
6.042582125E0,-1.110321933E0,-4.333798952E0,5.523092794E-1,4.507734873E0
6.052560125E0,-1.674112805E0,-4.634531193E0,6.194970033E-1,4.966418186E0
6.062538125E0,-2.293085021E0,-4.557344438E0,3.758984908E-1,5.115557341E0
6.072516125E0,-2.984878460E0,-4.164905636E0,-4.301358014E-2,5.124235411E0
6.082494125E0,-3.725369266E0,-3.676113490E0,-4.497108176E-1,5.253039728E0
6.092472125E0,-4.164070069E0,-3.089360018E0,-6.368398449E-1,5.223905612E0
6.102450125E0,-4.272300861E0,-2.611404517E0,-5.217926610E-1,5.034307875E0
6.112428125E0,-4.137878636E0,-2.410266731E0,-1.544273043E-1,4.791166153E0
6.122406125E0,-4.401258278E0,-2.561817790E0,1.404486582E-1,5.094478447E0
6.132383125E0,-5.228734018E0,-2.585907149E0,1.587311473E-1,5.835389515E0
6.142361125E0,-6.125226198E0,-2.444914407E0,3.481578380E-2,6.595241814E0
6.152339125E0,-6.797449592E0,-1.893221424E0,-1.585858440E-1,7.057957055E0
6.162317125E0,-7.672079617E0,-1.183927268E0,-3.664005661E-1,7.771533877E0
6.172295125E0,-8.569117928E0,-8.701674306E-1,-5.032195652E-1,8.627873628E0
6.182273125E0,-9.262868430E0,-7.043111587E-1,-5.615244913E-1,9.306561960E0
6.192251125E0,-9.876509739E0,-4.204364401E-1,-6.836903679E-1,9.909068773E0
6.202229125E0,-1.041694917E1,-2.071411228E-1,-6.721514726E-1,1.044066689E1
6.212206125E0,-1.078636105E1,-3.633623528E-1,-6.497838262E-1,1.081202275E1
6.222184125E0,-1.091655282E1,-5.697135168E-1,-6.405861560E-1,1.095016208E1
6.232162125E0,-1.087347989E1,-6.432557023E-1,-7.220118499E-1,1.091639336E1
6.242140125E0,-1.056142101E1,-6.357420301E-1,-7.337226534E-1,1.060594788E1
6.252118125E0,-1.029630591E1,-7.259441024E-1,-6.364533439E-1,1.034146910E1
6.262096125E0,-1.022078093E1,-9.305908030E-1,-3.342935050E-1,1.026850107E1
6.272074125E0,-1.017279868E1,-1.148006653E0,-3.507861614E-2,1.023743048E1
6.282052125E0,-9.942097957E0,-1.292794822E0,2.107912472E-1,1.002801392E1
6.292030125E0,-9.476425118E0,-1.425524279E0,4.615873897E-1,9.594155273E0
6.302007125E0,-8.869221593E0,-1.635512411E0,7.842589688E-1,9.052792643E0
6.311985125E0,-8.134528887E0,-1.909661456E0,1.172296279E0,8.437514187E0
6.321963125E0,-7.342512417E0,-2.252417051E0,1.536103021E0,7.832335773E0
6.331941125E0,-6.658737264E0,-2.567957366E0,1.816108929E0,7.364199796E0
6.341919125E0,-6.179317036E0,-2.840177414E0,2.040400228E0,7.100267591E0
6.351897125E0,-5.831148673E0,-3.045985957E0,2.206534535E0,6.938956690E0
6.361875083E0,-5.578258935E0,-3.426677703E0,2.298467968E0,6.938447076E0
6.371853083E0,-5.405577208E0,-3.705148425E0,2.265656025E0,6.934088767E0
6.381830083E0,-5.208276950E0,-3.943815395E0,2.284355420E0,6.920845927E0
6.391808083E0,-4.827101639E0,-4.314727088E0,2.443554052E0,6.920168819E0
6.401786083E0,-4.247836111E0,-4.758428430E0,2.706837801E0,6.929193577E0
6.411764083E0,-3.682335513E0,-5.073153058E0,2.902661638E0,6.908105483E0
6.421742083E0,-3.297781096E0,-5.295924958E0,3.049486392E0,6.944173714E0
6.431720083E0,-3.059113248E0,-5.561365744E0,3.209121519E0,7.112343055E0
6.441698083E0,-2.822326450E0,-5.813411145E0,3.312587123E0,7.261853012E0
6.451676083E0,-2.562841345E0,-6.132804775E0,3.360701522E0,7.448071219E0
6.461654083E0,-2.166810890E0,-6.379728599E0,3.313850122E0,7.508502451E0
6.471631083E0,-1.773635924E0,-6.528376515E0,3.176124220E0,7.473503152E0
6.481609083E0,-1.442273920E0,-6.672944829E0,3.029268183E0,7.468923113E0
6.491587083E0,-1.038414921E0,-6.831673345E0,2.860595307E0,7.478841605E0
6.501565083E0,-6.402426320E-1,-6.999563863E0,2.692756829E0,7.526934585E0
6.511543083E0,-4.035910504E-1,-7.157819924E0,2.594023084E0,7.624055848E0
6.521521083E0,-4.122937538E-1,-7.265040902E0,2.604219459E0,7.728697461E0
6.531499083E0,-5.211519523E-1,-7.305084389E0,2.648751853E0,7.787922937E0
6.541477083E0,-7.188109379E-1,-7.220626622E0,2.592172148E0,7.705419808E0
6.551455083E0,-1.049657290E0,-7.082836400E0,2.533324893E0,7.595135740E0
6.561432083E0,-1.199915383E0,-7.042774787E0,2.553581694E0,7.586913278E0
6.571410083E0,-9.239637150E-1,-7.000598236E0,2.604482876E0,7.526314879E0
6.581388083E0,-3.470341493E-1,-6.974009777E0,2.746112379E0,7.503224525E0
6.591366083E0,2.919742817E-1,-6.968615136E0,2.852773194E0,7.535592929E0
6.601344083E0,1.164159294E0,-6.758298975E0,2.981852818E0,7.478055772E0
6.611322083E0,2.055284023E0,-6.322843376E0,3.238511087E0,7.395302214E0
6.621300083E0,2.845775539E0,-5.844004946E0,3.518299771E0,7.391161310E0
6.631278083E0,3.554207815E0,-5.479089573E0,3.792615169E0,7.552267578E0
6.641255083E0,4.193590906E0,-5.037783251E0,3.869408991E0,7.611687770E0
6.651233083E0,4.928397633E0,-4.368862950E0,3.698718241E0,7.553580829E0
6.661211083E0,5.787341918E0,-3.704252631E0,3.479896136E0,7.702239360E0
6.671189083E0,6.760835497E0,-3.103732474E0,3.203255593E0,8.099561610E0
6.681167083E0,7.730785078E0,-2.420380660E0,2.881190954E0,8.597938228E0
6.691145083E0,8.668939254E0,-1.527340676E0,2.608573880E0,9.180846095E0
6.701123083E0,9.403968760E0,-5.928006631E-1,2.321886066E0,9.704493597E0
6.711101083E0,9.912782357E0,4.560243487E-3,2.180086555E0,1.014968237E1
6.721079083E0,1.020794746E1,4.148465019E-1,2.069511029E0,1.042387476E1
6.731056083E0,1.060248366E1,8.154947948E-1,1.826875992E0,1.078958607E1
6.741034083E0,1.112693798E1,1.162930502E0,1.603087846E0,1.130181608E1
6.751012083E0,1.157038847E1,1.447291124E0,1.446459650E0,1.174992709E1
6.760990083E0,1.191495437E1,1.833159994E0,1.351068174E0,1.213062234E1
6.770968083E0,1.200960091E1,2.100257297E0,1.401142705E0,1.227211455E1
6.780946083E0,1.173524955E1,2.206207675E0,1.492128743E0,1.203369779E1
6.790924083E0,1.120456795E1,2.384081145E0,1.501849154E0,1.155342965E1
6.800902083E0,1.059849235E1,2.432421831E0,1.619571293E0,1.099398596E1
6.810880083E0,1.011376051E1,2.287876321E0,1.855651309E0,1.053403871E1
6.820857083E0,9.542637818E0,2.295457236E0,1.894059184E0,9.995925202E0
6.830835083E0,8.976093493E0,2.089313064E0,1.837220886E0,9.397386022E0
6.840813083E0,8.447816269E0,1.761011201E0,1.910469979E0,8.838362728E0
6.850791083E0,7.979087090E0,1.419458962E0,2.109870704E0,8.374499921E0
6.860769083E0,7.489806118E0,1.130381391E0,2.389855417E0,7.942692660E0
6.870747083E0,7.050984278E0,7.504123610E-1,2.860061456E0,7.645877944E0
6.880725083E0,6.633866717E0,3.753731185E-1,3.383297502E0,7.456258753E0
6.890703083E0,6.189567205E0,1.528731143E-1,3.653838522E0,7.189203595E0
6.900680083E0,5.608115988E0,-2.119820327E-1,3.701216757E0,6.722715731E0
6.910658083E0,5.026029178E0,-5.493985355E-1,3.503314527E0,6.151099148E0
6.920636083E0,4.589551486E0,-7.317977500E-1,3.207637204E0,5.646985676E0
6.930614083E0,4.218321997E0,-1.097965012E0,2.971877469E0,5.275587487E0
6.940592083E0,3.866536547E0,-1.528803064E0,2.783679278E0,5.003620089E0
6.950570083E0,3.454144998E0,-1.866975027E0,2.618898894E0,4.719676349E0
6.960548083E0,2.956682602E0,-2.140629982E0,2.445291260E0,4.393599672E0
6.970526083E0,2.445055617E0,-2.360648428E0,2.277567388E0,4.091243231E0
6.980503083E0,2.117691063E0,-2.569550148E0,2.106534576E0,3.940138490E0
6.990481083E0,1.986913700E0,-2.784127759E0,1.943077416E0,3.933795022E0
7.000459083E0,1.937999840E0,-2.951890808E0,1.785928233E0,3.957150790E0
7.010437083E0,1.855247559E0,-3.178455212E0,1.624814053E0,4.023001584E0
7.020415083E0,1.619481100E0,-3.394966498E0,1.384575643E0,4.008187404E0
7.030393083E0,1.316702625E0,-3.544640016E0,1.162247255E0,3.955881359E0
7.040371083E0,1.099902779E0,-3.641050077E0,9.907466653E-1,3.930472076E0
7.050349083E0,9.413675138E-1,-3.720230148E0,8.607925898E-1,3.932842360E0
7.060327083E0,7.980641719E-1,-3.783789382E0,8.491434744E-1,3.959168240E0
7.070304083E0,7.220263217E-1,-3.890744312E0,9.002794218E-1,4.058289830E0
7.080282083E0,6.681949541E-1,-3.984424893E0,8.699735954E-1,4.132672293E0
7.090260083E0,6.739591393E-1,-4.135056769E0,8.623368394E-1,4.277445526E0
7.100238083E0,7.081485401E-1,-4.332872753E0,8.203722498E-1,4.466348763E0
7.110216083E0,7.803863579E-1,-4.414839606E0,6.879845631E-1,4.535761719E0
7.120194083E0,7.395035031E-1,-4.497781776E0,6.135655877E-1,4.599279189E0
7.130172083E0,6.333876488E-1,-4.556317082E0,7.468131074E-1,4.660357828E0
7.140150083E0,3.507999024E-1,-4.554429601E0,1.067491955E0,4.690994419E0
7.150127083E0,-4.263672709E-2,-4.578556967E0,1.411083118E0,4.791258431E0
7.160105083E0,-2.815706232E-1,-4.495358689E0,1.642931943E0,4.794450660E0
7.170083083E0,-2.672879219E-1,-4.349622102E0,1.782381312E0,4.708241540E0
7.180061083E0,-1.334697139E-1,-4.244166398E0,1.826726888E0,4.622520276E0
7.190039083E0,-1.930338380E-1,-4.202507910E0,1.725442003E0,4.547030339E0
7.200017083E0,-4.997463191E-1,-4.095806749E0,1.547327336E0,4.406767659E0
7.209995083E0,-1.041131245E0,-3.846075677E0,1.244715653E0,4.174394500E0
7.219973083E0,-1.726144838E0,-3.559736357E0,1.004814774E0,4.081782903E0
7.229950083E0,-2.230746101E0,-3.350186766E0,9.146024689E-1,4.127526767E0
7.239928083E0,-2.525227668E0,-3.110069686E0,8.675493398E-1,4.099018186E0
7.249906083E0,-2.748021787E0,-2.726411648E0,8.617521179E-1,3.965798902E0
7.259884083E0,-3.037788745E0,-2.271483652E0,9.353476591E-1,3.906747200E0
7.269862083E0,-3.484159341E0,-1.796970407E0,1.165138410E0,4.089745282E0
7.279840083E0,-4.273192561E0,-1.234020365E0,1.433814315E0,4.673200661E0
7.289818083E0,-5.282923089E0,-7.823901987E-1,1.621348847E0,5.581234888E0
7.299796083E0,-6.404623704E0,-4.908708304E-1,1.689257386E0,6.641818236E0
7.309774083E0,-7.479475257E0,-2.450141233E-1,1.565560416E0,7.645492886E0
7.319751083E0,-8.277483369E0,6.814695954E-2,1.298865402E0,8.379046859E0
7.329729083E0,-8.833721977E0,3.266903704E-1,1.127211031E0,8.911339702E0
7.339707083E0,-9.164912365E0,3.968154430E-1,1.316839743E0,9.267531929E0
7.349685083E0,-9.452173206E0,4.334453255E-1,1.789716936E0,9.629877459E0
7.359663875E0,-9.865385996E0,4.525815082E-1,2.172465148E0,1.011188784E1
7.369641875E0,-1.035035289E1,4.106628191E-1,2.288677390E0,1.060832188E1
7.379619875E0,-1.093904121E1,3.269891632E-1,2.284922308E0,1.117991120E1
7.389597875E0,-1.154548167E1,2.073212171E-1,2.386609042E0,1.179139652E1
7.399575875E0,-1.190890016E1,2.833209872E-2,2.645363392E0,1.219920707E1
7.409552875E0,-1.183440663E1,-1.821700037E-1,2.986136781E0,1.220669403E1
7.419530875E0,-1.125142052E1,-4.426833415E-1,3.316519668E0,1.173838724E1
7.429508875E0,-1.038010587E1,-7.284110427E-1,3.533623277E0,1.098925265E1
7.439486875E0,-9.436655281E0,-1.048367760E0,3.616274840E0,1.016006799E1
7.449464875E0,-8.584573288E0,-1.391582946E0,3.559680809E0,9.396953181E0
7.459442875E0,-7.890298875E0,-1.742429919E0,3.350090872E0,8.747341722E0
7.469420875E0,-7.267717173E0,-2.089377383E0,3.092604053E0,8.170031248E0
7.479398875E0,-6.614162185E0,-2.449055990E0,2.893908648E0,7.623629314E0
7.489375875E0,-5.967118072E0,-2.840960941E0,2.768512770E0,7.165348569E0
7.499353875E0,-5.451239870E0,-3.286234599E0,2.695503266E0,6.912386839E0
7.509331875E0,-5.031730798E0,-3.667165496E0,2.527703087E0,6.719799141E0
7.519309875E0,-4.611900129E0,-4.023834541E0,2.384825642E0,6.568733558E0
7.529287875E0,-4.142013786E0,-4.438990361E0,2.356394871E0,6.512565579E0
7.539265875E0,-3.766071734E0,-4.794622695E0,2.444903297E0,6.568809270E0
7.549243875E0,-3.500143874E0,-5.165035036E0,2.566765411E0,6.746619801E0
7.559221875E0,-3.285170114E0,-5.500961668E0,2.653117677E0,6.934836361E0
7.569198875E0,-3.000208690E0,-5.852506798E0,2.682388838E0,7.102696522E0
7.579176875E0,-2.513407229E0,-6.151257418E0,2.659910095E0,7.157534871E0
7.589154875E0,-2.004457393E0,-6.389736693E0,2.593682776E0,7.181488341E0
7.599132875E0,-1.730258355E0,-6.510792768E0,2.507130536E0,7.188179183E0
7.609110875E0,-1.549948058E0,-6.587102441E0,2.535181676E0,7.226299445E0
7.619088875E0,-1.292892179E0,-6.639823276E0,2.639198672E0,7.261142675E0
7.629066875E0,-1.089658019E0,-6.761183406E0,2.779675982E0,7.391045543E0
7.639044875E0,-7.904035154E-1,-6.866428610E0,2.738993979E0,7.434693510E0
7.649022875E0,-5.739005618E-1,-6.722305854E0,2.445207060E0,7.176196445E0
7.658999875E0,-6.432933437E-1,-6.654568200E0,2.326557699E0,7.078839946E0
7.668977875E0,-6.829737186E-1,-6.590307299E0,2.276912499E0,7.005921348E0
7.678955875E0,-6.621930796E-1,-6.536828080E0,2.286795463E0,6.956871029E0
7.688933875E0,-6.536238389E-1,-6.548635363E0,2.301324917E0,6.971939875E0
7.698911875E0,-6.209696245E-1,-6.547179991E0,2.235688460E0,6.946183988E0
7.708889875E0,-4.083591624E-1,-6.414756929E0,2.167017590E0,6.783201965E0
7.718867875E0,-1.400887620E-1,-6.255475266E0,2.097962557E0,6.599397136E0
7.728845875E0,3.308971497E-1,-6.048021902E0,1.960793602E0,6.366535431E0
7.738823875E0,1.004320976E0,-5.693181281E0,1.753597808E0,6.041198473E0
7.748800875E0,1.861909000E0,-5.274730555E0,1.625685142E0,5.825147186E0
7.758778875E0,2.828269852E0,-4.880053439E0,1.563578210E0,5.853102489E0
7.768756875E0,3.796768154E0,-4.496609994E0,1.555973029E0,6.087364119E0
7.778734875E0,4.606103492E0,-4.042485990E0,1.475812819E0,6.303642267E0
7.788712875E0,5.428397137E0,-3.483329036E0,1.383826615E0,6.596669823E0
7.798690875E0,6.358364627E0,-2.900057580E0,1.464834086E0,7.140369290E0
7.808668875E0,7.335285258E0,-2.221745481E0,1.774916318E0,7.867203489E0
7.818646875E0,8.249934797E0,-1.565427099E0,2.133922641E0,8.664041320E0
7.828623875E0,9.010587387E0,-1.057668341E0,2.450890846E0,9.397670633E0
7.838601875E0,9.574634952E0,-6.885342014E-1,2.613333514E0,9.948729862E0
7.848579875E0,9.961344652E0,-3.335608488E-1,2.639870517E0,1.031060456E1
7.858557875E0,1.027749659E1,6.920647502E-2,2.658527813E0,1.061600187E1
7.868535875E0,1.057780257E1,4.181817538E-1,2.794548082E0,1.094871143E1
7.878513875E0,1.100640581E1,7.714541513E-1,3.008877772E0,1.143632178E1
7.888491875E0,1.151429496E1,1.040257671E0,3.230714117E0,1.200410922E1
7.898469875E0,1.193280825E1,1.230557059E0,3.317665722E0,1.244640869E1
7.908446875E0,1.214338988E1,1.451168413E0,3.268551450E0,1.265903772E1
7.918424875E0,1.206001326E1,1.557181941E0,3.128335218E0,1.255608286E1
7.928402875E0,1.165157589E1,1.423803443E0,2.911067888E0,1.209383121E1
7.938380875E0,1.091282112E1,1.208769749E0,2.545708126E0,1.127082158E1
7.948358875E0,1.005544506E1,9.277180660E-1,2.127749151E0,1.031988143E1
7.958336875E0,9.254572985E0,7.327882683E-1,1.733226986E0,9.443949151E0
7.968314875E0,8.548826920E0,5.786977637E-1,1.480841278E0,8.695413946E0
7.978292875E0,8.008563489E0,3.720384514E-1,1.405753673E0,8.139511359E0
7.988269875E0,7.655337870E0,1.505465072E-1,1.566301843E0,7.815379940E0
7.998247875E0,7.370042278E0,-5.812717080E-2,1.898534789E0,7.610869614E0
8.008225875E0,7.002643007E0,-2.834010941E-1,2.255015115E0,7.362229176E0
8.018203875E0,6.632200845E0,-5.208547676E-1,2.625665292E0,7.152027403E0
8.028181875E0,6.192353404E0,-8.925751305E-1,2.979026567E0,6.929396101E0
8.038159875E0,5.652807426E0,-1.300113198E0,3.196536265E0,6.622867220E0
8.048137875E0,5.094357401E0,-1.628477626E0,3.178658695E0,6.221598493E0
8.058115875E0,4.520277184E0,-1.926818356E0,2.993996901E0,5.754090044E0
8.068093875E0,4.097945953E0,-2.158880897E0,2.698288587E0,5.360474705E0
8.078070875E0,3.852937970E0,-2.405037566E0,2.447361467E0,5.159352173E0
8.088048875E0,3.580573203E0,-2.722199314E0,2.232555814E0,5.021471799E0
8.098026875E0,3.224056185E0,-3.041016408E0,2.021205134E0,4.871097338E0
8.108004875E0,2.844733565E0,-3.272964928E0,1.838464881E0,4.710070232E0
8.117982875E0,2.370073701E0,-3.491249675E0,1.650523968E0,4.531037741E0
8.127960875E0,1.969684148E0,-3.646713690E0,1.486471269E0,4.403154916E0
8.137938875E0,1.560570402E0,-3.780468163E0,1.375023339E0,4.314859059E0
8.147916875E0,9.638402639E-1,-4.040392102E0,1.184093037E0,4.319239830E0
8.157894875E0,4.246459968E-1,-4.150536688E0,8.660851970E-1,4.261148037E0
8.167871875E0,-5.221412829E-3,-4.114693256E0,6.132679644E-1,4.160147287E0
8.177849875E0,-3.626550225E-1,-4.096079230E0,5.745822009E-1,4.152051111E0
8.187827875E0,-5.752748767E-1,-4.124831159E0,6.808448204E-1,4.220038263E0
8.197805875E0,-4.032584900E-1,-4.053999742E0,8.425922540E-1,4.160227521E0
8.207783875E0,-4.184998423E-3,-4.041059854E0,9.381568077E-1,4.148532325E0
8.217761875E0,1.965238948E-1,-4.130278425E0,9.004700410E-1,4.231863396E0
8.227739875E0,-7.159944803E-2,-4.250004843E0,7.961171222E-1,4.324519640E0
8.237717875E0,-7.173352468E-1,-4.303993354E0,6.648988786E-1,4.413730754E0
8.247694875E0,-1.720327151E0,-4.450276657E0,5.923650455E-1,4.807846106E0
8.257672875E0,-2.092933952E0,-3.703735737E0,5.721439120E-1,4.292479423E0
8.267650875E0,-2.546502178E0,-3.275337728E0,7.058989701E-1,4.208420598E0
8.277628875E0,-2.562083253E0,-3.332618807E0,1.350534615E0,4.415264710E0
8.287606875E0,-1.871748109E0,-3.580965258E0,1.892824544E0,4.462010525E0
8.297584875E0,-6.565396991E-1,-3.591962702E0,2.160904910E0,4.242964819E0
8.307562875E0,2.865194142E-2,-3.096846793E0,1.895522742E0,3.631017413E0
8.317540875E0,-4.323574510E-1,-2.736999201E0,1.278881080E0,3.051824767E0
8.327517875E0,-1.813639942E0,-2.936153612E0,8.483622864E-1,3.553872035E0
8.337495875E0,-2.938197799E0,-2.634080020E0,4.877710752E-1,3.976091608E0
8.347473875E0,-3.784203072E0,-2.420051461E0,3.745597708E-1,4.507453493E0
8.357451875E0,-3.649721498E0,-1.539279521E0,4.389224124E-1,3.985285603E0
8.367429000E0,-3.728490509E0,-1.196178355E0,3.725926213E-1,3.933358539E0
8.377407000E0,-4.035204452E0,-1.638650612E0,8.178089766E-1,4.431349943E0
8.387385000E0,-4.456163633E0,-1.559576960E0,7.042478625E-1,4.773430598E0
8.397363000E0,-4.619085773E0,-6.814000136E-1,6.738072579E-1,4.717443754E0
8.407341000E0,-5.001349835E0,-7.522150576E-2,6.283499801E-1,5.041228237E0
8.417318000E0,-5.580511283E0,-3.099322504E-1,1.301654524E0,5.738681789E0
8.427296000E0,-5.702060863E0,-2.289939219E-1,1.590836906E0,5.924246649E0
8.437274000E0,-5.675164840E0,-1.098013544E-1,1.630141743E0,5.905667990E0
8.447252000E0,-5.982382228E0,-1.881598914E-1,1.582118561E0,6.190912729E0
8.457230000E0,-6.652802340E0,-1.000955611E-1,1.460747906E0,6.812017509E0
8.467208000E0,-7.504297273E0,1.259437627E-1,1.527372251E0,7.659190909E0
8.477186000E0,-8.275235115E0,2.973034340E-1,1.889307883E0,8.493373288E0
8.487164000E0,-8.787656443E0,4.346913671E-1,2.258276692E0,9.083593780E0
8.497141000E0,-8.940528388E0,5.380835885E-1,2.515442938E0,9.303227127E0
8.507119000E0,-8.922395003E0,3.771062332E-1,2.586552097E0,9.297397133E0
8.517097000E0,-9.033440060E0,1.197527307E-1,2.438315824E0,9.357497747E0
8.527075000E0,-9.339404390E0,-1.415230840E-1,2.164326993E0,9.587951526E0
8.537053000E0,-9.792336731E0,-4.239938861E-1,1.955017869E0,9.994584751E0
8.547031000E0,-1.009013425E1,-7.188835895E-1,1.900355612E0,1.029266507E1
8.557009000E0,-1.013099811E1,-9.998844016E-1,1.982441018E0,1.037144946E1
8.566987000E0,-9.896023067E0,-1.322989259E0,2.225699223E0,1.022914025E1
8.576964000E0,-9.349877338E0,-1.719808211E0,2.547272841E0,9.842080341E0
8.586942000E0,-8.622547445E0,-2.106350681E0,2.849632362E0,9.322308847E0
8.596920000E0,-7.898019539E0,-2.473314334E0,3.090634711E0,8.834479008E0
8.606898000E0,-7.220241875E0,-2.868552783E0,3.240491831E0,8.417913940E0
8.616876000E0,-6.705257127E0,-3.271743445E0,3.313340829E0,8.163516752E0
8.626854000E0,-6.290970204E0,-3.634387760E0,3.273765704E0,7.968853266E0
8.636832000E0,-5.863441676E0,-4.035102126E0,3.253234084E0,7.825952304E0
8.646810000E0,-5.427548121E0,-4.501159127E0,3.305984155E0,7.787698205E0
8.656788000E0,-4.955128180E0,-4.925392749E0,3.378932263E0,7.760797140E0
8.666765000E0,-4.469406115E0,-5.325883167E0,3.460450051E0,7.766294940E0
8.676743000E0,-3.911849544E0,-5.757254485E0,3.530594127E0,7.804719147E0
8.686721000E0,-3.315717138E0,-6.177145965E0,3.533617137E0,7.850959335E0
8.696699000E0,-2.709205923E0,-6.539368696E0,3.431855997E0,7.866433452E0
8.706677000E0,-2.144701399E0,-6.735196626E0,3.328318472E0,7.812830571E0
8.716655000E0,-1.721909554E0,-6.921840919E0,3.215174265E0,7.823950394E0
8.726633000E0,-1.295622244E0,-7.087268590E0,3.094538312E0,7.841184887E0
8.736611000E0,-8.193761766E-1,-7.167945548E0,2.942985791E0,7.791789657E0
8.746588000E0,-3.162536387E-1,-7.141219679E0,2.769460311E0,7.665960167E0
8.756566000E0,1.985493338E-1,-7.093370744E0,2.503256171E0,7.524734002E0
8.766544000E0,6.427819316E-1,-6.958084885E0,2.252723153E0,7.341857768E0
8.776522000E0,1.088327412E0,-6.812448869E0,1.971521489E0,7.175013110E0
8.786500000E0,1.606649824E0,-6.731073754E0,1.657291535E0,7.115848001E0
8.796478000E0,2.122737502E0,-6.701226642E0,1.232833088E0,7.136689038E0
8.806456000E0,2.340029099E0,-6.402457895E0,6.971959743E-1,6.852246749E0
8.816434000E0,2.252664388E0,-6.026206525E0,2.268038473E-1,6.437476362E0
8.826411000E0,2.398502718E0,-5.676817263E0,-2.125050661E-1,6.166378835E0
8.836389000E0,2.815377619E0,-5.130421273E0,-3.867637870E-1,5.864909190E0
8.846367000E0,3.215297348E0,-4.738312839E0,-1.769689053E-2,5.726260453E0
8.856345000E0,3.715642130E0,-4.262630151E0,5.558138081E-1,5.681983917E0
8.866323000E0,4.276715509E0,-3.792243286E0,1.014611784E0,5.805242610E0
8.876301000E0,4.787119255E0,-3.266490891E0,1.325408252E0,5.945013082E0
8.886279000E0,5.236126653E0,-2.707362589E0,1.407219278E0,6.060288822E0
8.896257000E0,5.802253488E0,-2.154783168E0,1.292743659E0,6.323007370E0
8.906235000E0,6.807507387E0,-1.594205341E0,1.041096455E0,7.068771416E0
8.916212000E0,7.995925902E0,-9.578166085E-1,7.600313231E-1,8.088874539E0
8.926190000E0,9.164536389E0,-3.261611974E-1,4.027329715E-1,9.179177643E0
8.936168000E0,1.002734101E1,1.875319004E-1,4.938119799E-3,1.002909568E1
8.946146000E0,1.046916481E1,5.624319792E-1,-2.345040455E-1,1.048688389E1
8.956124000E0,1.062049426E1,8.459663898E-1,-1.013910118E-1,1.065461578E1
8.966102000E0,1.073523768E1,1.134426495E0,3.742476757E-1,1.080149586E1
8.976080000E0,1.090182368E1,1.442278891E0,1.025411006E0,1.104451881E1
8.986058000E0,1.113852014E1,1.714378486E0,1.629772199E0,1.138691714E1
8.996035000E0,1.143971022E1,1.845050892E0,2.009800432E0,1.176054763E1
9.006013000E0,1.166216754E1,1.803191260E0,2.110112925E0,1.198792004E1
9.015991000E0,1.166943095E1,1.586701024E0,1.947563692E0,1.193676016E1
9.025969000E0,1.132889613E1,1.279695305E0,1.710028743E0,1.152847370E1
9.035947000E0,1.081699812E1,9.937553501E-1,1.469182222E0,1.096145495E1
9.045925000E0,1.021942438E1,7.479220319E-1,1.386089779E0,1.034008060E1
9.055903000E0,9.506251180E0,3.941333252E-1,1.472176874E0,9.627640278E0
9.065881000E0,8.792511971E0,7.248793244E-3,1.644386730E0,8.944960985E0
9.075859000E0,8.108152097E0,-3.590740049E-1,1.825001082E0,8.318755527E0
9.085836000E0,7.472128231E0,-7.347938633E-1,2.010996042E0,7.772819784E0
9.095814000E0,6.918156003E0,-1.098857882E0,2.228231359E0,7.350740515E0
9.105792000E0,6.438219466E0,-1.465002340E0,2.507448917E0,7.062874898E0
9.115770000E0,5.968724302E0,-1.878917965E0,2.708521507E0,6.818510927E0
9.125748000E0,5.520479089E0,-2.310228472E0,2.769298343E0,6.594077516E0
9.135726000E0,5.091226802E0,-2.700434808E0,2.702120267E0,6.365091707E0
9.145704000E0,4.640347418E0,-3.092766021E0,2.496594146E0,6.109910650E0
9.155682000E0,4.265547912E0,-3.443250466E0,2.225327778E0,5.916329646E0
9.165659000E0,3.926591252E0,-3.770599818E0,1.936910065E0,5.778162549E0
9.175637000E0,3.626975829E0,-4.069051060E0,1.725451651E0,5.717456917E0
9.185615000E0,3.274533736E0,-4.342726480E0,1.581830878E0,5.664276953E0
9.195593000E0,2.777841418E0,-4.608884135E0,1.466850353E0,5.577621883E0
9.205571000E0,2.293083267E0,-4.857917050E0,1.343862065E0,5.537468211E0
9.215549000E0,1.893288082E0,-5.019121862E0,1.316582758E0,5.523541815E0
9.225527000E0,1.588109618E0,-5.216255475E0,1.422458876E0,5.635139980E0
9.235505000E0,1.373118170E0,-5.307645117E0,1.554043448E0,5.698385845E0
9.245482000E0,1.180477850E0,-5.337824936E0,1.638700605E0,5.707122101E0
9.255460000E0,9.475562800E-1,-5.431383310E0,1.634490025E0,5.750595205E0
9.265438000E0,7.109494295E-1,-5.492421809E0,1.579925563E0,5.759193625E0
9.275416000E0,6.016590486E-1,-5.479882455E0,1.441773984E0,5.698229335E0
9.285394000E0,5.412292443E-1,-5.559072466E0,1.340373909E0,5.743937499E0
9.295372000E0,5.581883624E-1,-5.811752874E0,1.350906790E0,5.992745187E0
9.305350000E0,3.243155238E-1,-5.948038607E0,1.250087929E0,6.086629910E0
9.315328000E0,-4.037464401E-1,-5.909669763E0,1.005258285E0,6.008140487E0
9.325306000E0,-1.326879997E0,-5.705084458E0,7.840069538E-1,5.909591027E0
9.335283000E0,-2.275488118E0,-5.395153377E0,6.930915213E-1,5.896261696E0
9.345261000E0,-2.885725178E0,-5.075224142E0,7.592621219E-1,5.887426336E0
9.355239000E0,-2.963751008E0,-4.752988765E0,8.917436564E-1,5.671854105E0
9.365217458E0,-2.852148127E0,-4.273440483E0,9.258156744E-1,5.220553339E0
9.375195458E0,-3.314081672E0,-3.777973157E0,7.278324607E-1,5.077987651E0
9.385173458E0,-4.263612483E0,-3.347154400E0,4.555811298E-1,5.439612868E0
9.395151458E0,-5.288272707E0,-2.877231220E0,3.663967654E-2,6.020434385E0
9.405128458E0,-6.206235278E0,-2.346433847E0,-3.248547833E-1,6.642939015E0
9.415106458E0,-7.028079565E0,-1.800122641E0,-2.871683089E-1,7.260634237E0
9.425084458E0,-7.733431528E0,-1.230751187E0,9.291941956E-2,7.831305491E0
9.435062458E0,-8.022984477E0,-6.445385814E-1,6.775532035E-1,8.077300802E0
9.445040458E0,-8.271460737E0,-1.869255441E-1,1.283459158E0,8.372530758E0
9.455018458E0,-8.786544303E0,2.170503992E-1,1.733780133E0,8.958597279E0
9.464996458E0,-9.541065502E0,5.295893383E-1,2.098828822E0,9.783530968E0
9.474974458E0,-1.025273597E1,8.041114354E-1,2.322405299E0,1.054318530E1
9.484952458E0,-1.085299943E1,1.085096460E0,2.357002105E0,1.115887494E1
9.494929458E0,-1.128831060E1,1.074636376E0,2.410132245E0,1.159265013E1
9.504907458E0,-1.167288315E1,8.881370938E-1,2.488735195E0,1.196824094E1
9.514885458E0,-1.177063924E1,6.479703122E-1,2.631093847E0,1.207851267E1
9.524863458E0,-1.157344189E1,4.309924185E-1,2.995335621E0,1.196253932E1
9.534841458E0,-1.118685790E1,2.604864407E-1,3.597790622E0,1.175405208E1
9.544819458E0,-1.072608795E1,1.169846588E-1,4.216734771E0,1.152577548E1
9.554797458E0,-1.012314997E1,-1.847632438E-1,4.752621560E0,1.118479837E1
9.564775458E0,-9.404209666E0,-6.346772522E-1,5.163774376E0,1.074739692E1
9.574752458E0,-8.585632803E0,-9.989582026E-1,5.217242485E0,1.009606989E1
9.584730458E0,-7.801279110E0,-1.400645546E0,4.932636280E0,9.335559135E0
9.594708458E0,-7.213294798E0,-1.883001661E0,4.473445079E0,8.694195074E0
9.604686458E0,-6.596203047E0,-2.350022868E0,4.033072557E0,8.080728703E0
9.614664458E0,-5.970897127E0,-2.807447040E0,3.593868309E0,7.513272311E0
9.624642458E0,-5.253958907E0,-3.244560909E0,3.226615219E0,6.967230831E0
9.634620458E0,-4.541837622E0,-3.619587872E0,2.897835639E0,6.490543639E0
9.644598458E0,-3.858143161E0,-4.038605778E0,2.666829690E0,6.189312229E0
9.654576458E0,-3.145346523E0,-4.419271796E0,2.528800317E0,5.984814032E0
9.664553458E0,-2.518320352E0,-4.853669633E0,2.445493720E0,5.990032207E0
9.674531458E0,-1.921138663E0,-5.200317135E0,2.329144507E0,6.013234255E0
9.684509458E0,-1.504782410E0,-5.397240248E0,2.201848284E0,6.020191713E0
9.694487458E0,-1.145271326E0,-5.432856808E0,2.101810610E0,5.936765731E0
9.704465458E0,-7.177832897E-1,-5.429596986E0,2.110470336E0,5.869397015E0
9.714443458E0,-2.687845168E-1,-5.535495324E0,2.156306660E0,5.946731203E0
9.724421458E0,2.901812330E-2,-5.575142954E0,2.005532696E0,5.924966026E0
9.734399458E0,1.400421305E-1,-5.511928706E0,1.620221065E0,5.746832706E0
9.744376458E0,2.157977063E-1,-5.424697019E0,1.152663668E0,5.550003597E0
9.754354458E0,3.293278302E-1,-5.342971070E0,8.030086505E-1,5.413004671E0
9.764332458E0,4.233644333E-1,-5.232634696E0,5.617323598E-1,5.279701369E0
9.774310458E0,4.661907564E-1,-5.086746665E0,4.385683635E-1,5.126857485E0
9.784288458E0,5.404618338E-1,-4.899495431E0,3.547540820E-1,4.941963672E0
9.794266458E0,5.542722994E-1,-4.649682498E0,3.499406540E-1,4.695660079E0
9.804244458E0,4.393640234E-1,-4.436540962E0,4.248268220E-1,4.478438822E0
9.814222458E0,2.540170813E-1,-4.292461476E0,4.873230323E-1,4.327497422E0
9.824199458E0,9.471641511E-2,-4.244193295E0,5.103145766E-1,4.275812074E0
9.834177458E0,-1.147881523E-2,-4.164011596E0,4.709210077E-1,4.190571672E0
9.844155458E0,-7.603397638E-2,-4.083624660E0,3.966986449E-1,4.103552284E0
9.854133458E0,9.222637832E-2,-3.975503211E0,3.379072304E-1,3.990903755E0
9.864111458E0,5.120728344E-1,-3.905513209E0,3.761259475E-1,3.956857685E0
9.874089458E0,1.109933386E0,-3.811703990E0,4.571326885E-1,3.996249457E0
9.884067458E0,1.677426130E0,-3.640204570E0,4.867258854E-1,4.037542547E0
9.894045458E0,2.309546979E0,-3.482088257E0,4.359857945E-1,4.201074802E0
9.904023458E0,3.064268154E0,-3.250097637E0,3.847375806E-1,4.483402388E0
9.914000458E0,3.711891434E0,-2.851689997E0,3.870703273E-1,4.696817784E0
9.923978458E0,4.300029235E0,-2.301317316E0,5.183147371E-1,4.904585912E0
9.933956458E0,4.996483782E0,-1.766753751E0,7.529681790E-1,5.352871200E0
9.943934458E0,5.973017328E0,-1.304361200E0,1.024504761E0,6.199024451E0
9.953912458E0,7.081894414E0,-8.435403800E-1,1.129929986E0,7.220909266E0
9.963890458E0,8.135663831E0,-3.702158743E-1,1.040657036E0,8.210301629E0
9.973868458E0,8.870456525E0,1.050130695E-1,9.527839100E-1,8.922097505E0
9.983846458E0,9.511797849E0,6.880617464E-1,9.697315530E-1,9.585828424E0
9.993823458E0,1.020526008E1,1.215451947E0,1.138069237E0,1.034020592E1
1.000380146E1,1.098004773E1,1.564715493E0,1.367507036E0,1.117496569E1
1.001377946E1,1.168049505E1,1.723340514E0,1.437644387E0,1.189414514E1
1.002375746E1,1.208061183E1,1.748583528E0,1.340218080E0,1.227985794E1
1.003373546E1,1.207327241E1,1.769214259E0,1.129120804E0,1.225434370E1
1.004371346E1,1.180122719E1,1.786316196E0,1.003769438E0,1.197778952E1
1.005369146E1,1.141492738E1,1.825735200E0,1.055354598E0,1.160808552E1
1.006366946E1,1.092309468E1,1.748553708E0,1.325871352E0,1.114133620E1
1.007364646E1,1.037665952E1,1.616934637E0,1.766235688E0,1.064937223E1
1.008362446E1,9.761630663E0,1.395774815E0,2.346839644E0,1.013633449E1
1.009360246E1,9.033519582E0,1.091903204E0,2.876861676E0,9.543220722E0
1.010358046E1,8.334812395E0,7.908183753E-1,3.300860825E0,8.999454069E0
1.011355846E1,7.643781433E0,4.535731959E-1,3.611183084E0,8.466036056E0
1.012353646E1,6.891425457E0,2.120574617E-1,3.588560207E0,7.772675058E0
1.013351446E1,6.241668820E0,-3.293327272E-2,3.343747813E0,7.080971946E0
1.014349246E1,5.770950419E0,-3.490302426E-1,3.015151834E0,6.520493189E0
1.015346946E1,5.495302148E0,-6.062650466E-1,2.736022131E0,6.168607631E0
1.016344746E1,5.268205063E0,-8.811327142E-1,2.603484464E0,5.942096498E0
1.017342546E1,5.040373567E0,-1.215672972E0,2.598287458E0,5.799510685E0
1.018340346E1,4.751620809E0,-1.587023790E0,2.601987284E0,5.645075965E0
1.019338146E1,4.348250930E0,-1.989866543E0,2.581174997E0,5.434088642E0
1.020335946E1,3.975486546E0,-2.364283057E0,2.488583460E0,5.252368541E0
1.021333746E1,3.548684243E0,-2.761690239E0,2.363048272E0,5.079772629E0
1.022331546E1,3.103213826E0,-3.155139440E0,2.172466464E0,4.929954510E0
1.023329246E1,2.555193479E0,-3.479179267E0,2.038133262E0,4.773645283E0
1.024327046E1,1.977004716E0,-3.705745425E0,1.957027119E0,4.633686647E0
1.025324846E1,1.471546544E0,-3.867979347E0,1.967505621E0,4.582334758E0
1.026322646E1,1.016023009E0,-3.922773605E0,2.123474836E0,4.574888074E0
1.027320446E1,7.356862946E-1,-3.952571016E0,2.272092347E0,4.618057556E0
1.028318246E1,6.511822609E-1,-4.043197011E0,2.451697762E0,4.773081010E0
1.029316046E1,5.999355087E-1,-4.244090969E0,2.563141307E0,4.994189036E0
1.030313846E1,5.060616409E-1,-4.422250952E0,2.496146541E0,5.103248909E0
1.031311646E1,4.921971251E-1,-4.485685641E0,2.232226323E0,5.034527588E0
1.032309346E1,4.084747180E-1,-4.566973048E0,1.992626137E0,4.999465305E0
1.033307146E1,3.175500029E-1,-4.711872899E0,1.829860411E0,5.064678997E0
1.034304946E1,3.144742213E-1,-4.912163424E0,1.715647624E0,5.212647150E0
1.035302746E1,1.969109805E-1,-5.076533918E0,1.527167306E0,5.304923236E0
1.036300596E1,-1.802822301E-1,-5.128539054E0,1.334916410E0,5.302491522E0
1.037298396E1,-6.206950977E-1,-5.045818495E0,1.236230320E0,5.231998862E0
1.038296196E1,-9.112207317E-1,-4.976804393E0,1.252176262E0,5.212182900E0
1.039293996E1,-9.169597739E-1,-4.816070282E0,1.343012026E0,5.083210549E0
1.040291696E1,-5.843046588E-1,-4.746185530E0,1.528825576E0,5.020457814E0
1.041289496E1,9.785578519E-2,-4.850149609E0,1.547880044E0,5.092097762E0
1.042287296E1,5.674836811E-1,-4.963761594E0,1.312027777E0,5.165499373E0
1.043285096E1,5.681651741E-1,-4.889285023E0,8.707533216E-1,4.998612913E0
1.044282896E1,8.380434126E-2,-4.661648825E0,2.777756341E-1,4.670669356E0
1.045280696E1,-7.855207980E-1,-4.382836626E0,-1.797074488E-1,4.456298304E0
1.046278496E1,-1.828050697E0,-4.063154728E0,-3.816021574E-1,4.471757585E0
1.047276296E1,-2.631628867E0,-3.605265702E0,-3.597569597E-1,4.478039342E0
1.048273996E1,-2.857805015E0,-3.051389953E0,-2.569430280E-1,4.188561791E0
1.049271796E1,-2.681344233E0,-2.640900212E0,-1.088691621E-1,3.765078129E0
1.050269596E1,-2.581329948E0,-2.425157835E0,-8.865402192E-3,3.541854517E0
1.051267396E1,-2.888609902E0,-2.128232131E0,-7.735025771E-2,3.588791193E0
1.052265196E1,-3.674782079E0,-1.825101947E0,-1.584900959E-1,4.106110027E0
1.053262996E1,-4.829824687E0,-1.563714450E0,-6.909070015E-2,5.077123488E0
1.054260796E1,-6.033894444E0,-1.210093558E0,4.535926379E-2,6.154207183E0
1.055258596E1,-7.004864364E0,-8.543273234E-1,1.253771675E-1,7.057883491E0
1.056256396E1,-7.611683727E0,-6.422798020E-1,2.781403542E-1,7.643795821E0
1.057254096E1,-7.946207027E0,-4.918268502E-1,3.654300014E-1,7.969795409E0
1.058251896E1,-8.257689959E0,-3.042306304E-1,4.759084634E-1,8.276985478E0
1.059249696E1,-8.739679454E0,-1.815221322E-1,6.371816877E-1,8.764756000E0
1.060247496E1,-9.392228721E0,-6.619223535E-2,9.966579811E-1,9.445192898E0
1.061245296E1,-9.949045619E0,6.630333245E-2,1.522124959E0,1.006502704E1
1.062243096E1,-1.009352564E1,1.607037055E-1,2.027366492E0,1.029637317E1
1.063240896E1,-9.642366174E0,1.648271620E-1,2.391660891E0,9.935916427E0
1.064238696E1,-8.764452937E0,9.693631053E-2,2.572469662E0,9.134693870E0
1.065236396E1,-7.766032094E0,-7.464906335E-2,2.537261238E0,8.170344029E0
1.066234196E1,-7.064926963E0,-1.818402207E-1,2.265635852E0,7.421547324E0
1.067231996E1,-6.852587666E0,-2.175602764E-1,1.876593697E0,7.108227212E0
1.068229796E1,-7.048260645E0,-2.327443260E-1,1.484756573E0,7.206708688E0
1.069227596E1,-7.278799401E0,-2.914532948E-1,1.418687714E0,7.421491802E0
1.070225396E1,-7.427766575E0,-3.795486152E-1,1.680359970E0,7.624918562E0
1.071223196E1,-7.430877294E0,-4.979892308E-1,2.117026527E0,7.742592069E0
1.072220996E1,-7.218509930E0,-6.552612054E-1,2.665176097E0,7.722656051E0
1.073218696E1,-6.898350899E0,-9.041450161E-1,3.208564864E0,7.661567191E0
1.074216496E1,-6.592522810E0,-1.262195174E0,3.500238014E0,7.570083210E0
1.075214296E1,-6.312564556E0,-1.571996446E0,3.494499557E0,7.384522412E0
1.076212096E1,-6.147915734E0,-1.828969880E0,3.230660615E0,7.181863735E0
1.077209896E1,-5.992294428E0,-2.166089929E0,2.898444918E0,7.000037217E0
1.078207696E1,-5.854551569E0,-2.553644552E0,2.586718158E0,6.891152690E0
1.079205496E1,-5.685146622E0,-3.009594056E0,2.334823616E0,6.843241177E0
1.080203296E1,-5.304526797E0,-3.450766477E0,2.136002788E0,6.678944657E0
1.081200996E1,-4.825256258E0,-3.825879979E0,1.974720501E0,6.466836678E0
1.082198796E1,-4.364800597E0,-4.166710671E0,1.876192286E0,6.319260998E0
1.083196596E1,-3.969914735E0,-4.528700683E0,1.798139266E0,6.285113976E0
1.084194396E1,-3.662002405E0,-4.870293267E0,1.725201390E0,6.332956494E0
1.085192196E1,-3.369142855E0,-5.206658440E0,1.684199252E0,6.426269743E0
1.086189996E1,-3.018722729E0,-5.542745286E0,1.698219852E0,6.535951567E0
1.087187796E1,-2.704418808E0,-5.923567425E0,1.748490558E0,6.742384694E0
1.088185596E1,-2.425375790E0,-6.212255571E0,1.699188882E0,6.881991708E0
1.089183296E1,-2.066724831E0,-6.426116899E0,1.665577040E0,6.952731607E0
1.090181096E1,-1.609475637E0,-6.693589008E0,1.727963030E0,7.097915319E0
1.091178896E1,-1.135945309E0,-6.967141052E0,1.855720599E0,7.298981102E0
1.092176696E1,-7.295179206E-1,-7.208186086E0,1.929483809E0,7.497536316E0
1.093174496E1,-2.240142686E-1,-7.252647729E0,1.959848985E0,7.516121973E0
1.094172296E1,3.276347689E-1,-7.209330971E0,2.075030362E0,7.509164307E0
1.095170096E1,9.294462106E-1,-7.085317374E0,2.259116206E0,7.494611303E0
1.096167896E1,1.598476878E0,-6.924113731E0,2.540866924E0,7.546819464E0
1.097165696E1,2.063036846E0,-6.783366573E0,2.734113308E0,7.599049853E0
1.098163396E1,2.349266384E0,-6.632517180E0,2.760944426E0,7.558581270E0
1.099161196E1,2.344525900E0,-6.614560965E0,2.613200197E0,7.488526807E0
1.100158996E1,2.054631181E0,-6.669003221E0,2.247349269E0,7.331281742E0
1.101156796E1,1.787472190E0,-6.455542427E0,1.725003754E0,6.916987987E0
1.102154596E1,1.651632600E0,-5.978920092E0,1.184084558E0,6.314858031E0
1.103152396E1,1.834026259E0,-5.402723182E0,8.280370724E-1,5.765302724E0
1.104150196E1,2.295959512E0,-4.828612559E0,7.476882894E-1,5.398700502E0
1.105147996E1,2.934047153E0,-4.252713858E0,9.261643146E-1,5.248998780E0
1.106145696E1,3.559179995E0,-3.674331259E0,1.237916365E0,5.263165337E0
1.107143496E1,4.308504481E0,-3.108494446E0,1.592360544E0,5.546310548E0
1.108141296E1,5.149154583E0,-2.464896682E0,1.916683231E0,6.021891993E0
1.109139096E1,6.231851345E0,-1.735472901E0,2.182344604E0,6.827185756E0
1.110136896E1,7.798366027E0,-9.986190641E-1,2.283095638E0,8.186835678E0
1.111134696E1,9.608611368E0,-2.291553050E-1,2.131533469E0,9.844864626E0
1.112132496E1,1.137197490E1,5.636119473E-1,1.642802135E0,1.150383721E1
1.113130296E1,1.266442591E1,1.187233284E0,8.253988818E-1,1.274670506E1
1.114127996E1,1.337279971E1,1.568456542E0,-1.982321589E-1,1.346592455E1
1.115125796E1,1.345940633E1,1.908987857E0,-9.870228660E-1,1.362989610E1
1.116123596E1,1.318194426E1,2.410114118E0,-1.247934984E0,1.345844145E1
1.117121396E1,1.303757299E1,2.910585492E0,-9.103541744E-1,1.338949447E1
1.118119196E1,1.302376304E1,3.154023791E0,-2.159492223E-1,1.340197388E1
1.119116996E1,1.287503560E1,3.112446579E0,4.357216465E-1,1.325306451E1
1.120114796E1,1.232698426E1,2.889443715E0,8.472007370E-1,1.268941193E1
1.121112596E1,1.141904031E1,2.575593245E0,1.093222409E0,1.175684045E1
1.122110296E1,1.031182208E1,2.176726014E0,1.367648538E0,1.062743023E1
1.123108096E1,9.188912846E0,1.722208493E0,1.743982501E0,9.510183823E0
1.124105896E1,8.159068481E0,1.286378673E0,2.100390175E0,8.522723007E0
1.125103696E1,7.259507682E0,9.246669888E-1,2.402551914E0,7.702448736E0
1.126101496E1,6.479969755E0,5.477934748E-1,2.696965070E0,7.040149594E0
1.127099296E1,5.830376841E0,1.379457575E-1,2.959252453E0,6.539839311E0
1.128097096E1,5.281740198E0,-2.950446546E-1,3.125202280E0,6.144161469E0
1.129094896E1,4.870591182E0,-6.552255374E-1,3.131263504E0,5.827245499E0
1.130092696E1,4.637144021E0,-9.902932137E-1,3.111123354E0,5.671232128E0
1.131090396E1,4.405502480E0,-1.379517801E0,3.093358344E0,5.557012445E0
1.132088196E1,4.028235741E0,-1.770697698E0,2.982023849E0,5.315498073E0
1.133085996E1,3.491416028E0,-2.192663770E0,2.748048685E0,4.954748415E0
1.134083796E1,2.986465979E0,-2.474988391E0,2.440910965E0,4.582858597E0
1.135081596E1,2.589103529E0,-2.686891487E0,2.156638051E0,4.309748325E0
1.136079396E1,2.299335694E0,-2.901040497E0,1.929735678E0,4.174549124E0
1.137077121E1,2.114598032E0,-3.048682108E0,1.754164988E0,4.104032436E0
1.138074921E1,2.039148339E0,-3.173813108E0,1.681651036E0,4.130274300E0
1.139072621E1,1.935570468E0,-3.337510588E0,1.630519181E0,4.188556167E0
1.140070421E1,1.791925722E0,-3.577437633E0,1.560701672E0,4.294746503E0
1.141068221E1,1.586486431E0,-3.783098826E0,1.348896518E0,4.318367485E0
1.142066021E1,1.301381459E0,-3.935317637E0,1.027570091E0,4.270388612E0
1.143063821E1,9.590011083E-1,-4.056460251E0,6.929549888E-1,4.225486896E0
1.144061621E1,6.738221683E-1,-4.104564709E0,4.387528431E-1,4.182581956E0
1.145059421E1,4.798385963E-1,-4.123567575E0,3.746217513E-1,4.168260558E0
1.146057221E1,3.589186882E-1,-4.204921056E0,5.634450093E-1,4.257658275E0
1.147054921E1,3.075666862E-1,-4.239864601E0,9.593026784E-1,4.357902102E0
1.148052721E1,3.511219378E-1,-4.213354495E0,1.275393801E0,4.416137686E0
1.149050521E1,4.820687243E-1,-4.240620062E0,1.526763263E0,4.532797682E0
1.150048321E1,5.456475466E-1,-4.342038263E0,1.603687186E0,4.660776771E0
1.151046121E1,4.249537066E-1,-4.466012099E0,1.488003240E0,4.726521275E0
1.152043921E1,1.490844110E-1,-4.583297305E0,1.225718196E0,4.746706799E0
1.153041721E1,-2.804906425E-1,-4.620079799E0,9.752527133E-1,4.730214605E0
1.154039521E1,-7.306122270E-1,-4.547343945E0,8.643652385E-1,4.686070683E0
1.155037221E1,-1.044231732E0,-4.447185234E0,9.005872777E-1,4.656064203E0
1.156035021E1,-1.044434922E0,-4.324567367E0,9.659052081E-1,4.552548747E0
1.157032821E1,-7.892951757E-1,-4.339710487E0,1.057285348E0,4.535849015E0
1.158030621E1,-3.182908452E-1,-4.349090005E0,1.079544529E0,4.492361219E0
1.159028421E1,-2.303501835E-1,-4.249697279E0,8.986337230E-1,4.349773643E0
1.160026221E1,-6.502632979E-1,-4.022546985E0,5.143400922E-1,4.107100234E0
1.161024021E1,-1.257193173E0,-3.794485109E0,1.346653233E-1,3.999598313E0
1.162021821E1,-1.882240938E0,-3.476120589E0,-1.319859830E-1,3.955207402E0
1.163019521E1,-2.269030745E0,-3.110021739E0,-2.250616693E-1,3.856343928E0
1.164017321E1,-2.136291933E0,-2.852772317E0,-1.703479569E-1,3.568062716E0
1.165015121E1,-1.530822108E0,-2.701258680E0,-4.453809544E-2,3.105188952E0
1.166012921E1,-6.394860023E-1,-2.719662791E0,1.921770747E-1,2.800435694E0
1.167010721E1,-4.538024068E-2,-2.653141358E0,3.020005023E-1,2.670659607E0
1.168008521E1,-3.818898404E-1,-2.489510536E0,1.534613442E-1,2.523301992E0
1.169006321E1,-1.466795096E0,-2.244204637E0,-1.086284029E-1,2.683233578E0
1.170004121E1,-2.782465981E0,-1.932862038E0,-3.653597617E-1,3.407573968E0
1.171001821E1,-4.040898471E0,-1.515074971E0,-5.412020548E-1,4.349392174E0
1.171999621E1,-5.087443069E0,-1.226996689E0,-5.251045970E-1,5.259594347E0
1.172997421E1,-5.722404495E0,-9.833683562E-1,-3.475572558E-1,5.816676249E0
1.173995221E1,-6.117634174E0,-7.097414678E-1,5.393479027E-2,6.158903295E0
1.174993021E1,-6.507111361E0,-4.386499321E-1,5.707374374E-1,6.546804812E0
1.175990821E1,-7.157844483E0,-1.648990828E-1,9.895722520E-1,7.227806208E0
1.176988621E1,-7.985575746E0,1.846123856E-1,1.090771183E0,8.061841198E0
1.177986421E1,-8.792221949E0,4.144851440E-1,1.045931225E0,8.863912052E0
1.178984221E1,-9.587529817E0,5.085954952E-1,8.372768426E-1,9.637449345E0
1.179981921E1,-1.009112243E1,5.710384959E-1,5.252530432E-1,1.012090548E1
1.180979721E1,-1.021727962E1,5.247361493E-1,3.783674777E-1,1.023773963E1
1.181977521E1,-1.014033377E1,4.692712158E-1,7.403335154E-1,1.017814709E1
1.182975321E1,-1.003880623E1,4.747629207E-1,1.496139933E0,1.016078073E1
1.183973121E1,-9.859758636E0,3.455599201E-1,2.338567003E0,1.013918871E1
1.184970921E1,-9.594114366E0,1.531923723E-1,2.996612653E0,1.005237215E1
1.185968721E1,-9.236204542E0,-8.533484995E-2,3.324477729E0,9.816664838E0
1.186966521E1,-8.837969395E0,-3.014198738E-1,3.433555198E0,9.486298449E0
1.187964221E1,-8.355930199E0,-5.338309085E-1,3.408029763E0,9.039978528E0
1.188962021E1,-7.803133847E0,-7.984671181E-1,3.374414120E0,8.538917860E0
1.189959821E1,-7.181581255E0,-1.075383650E0,3.382259914E0,8.010695440E0
1.190957621E1,-6.526883721E0,-1.393739399E0,3.350276814E0,7.467735624E0
1.191955421E1,-5.833305711E0,-1.744764712E0,3.264751929E0,6.908709328E0
1.192953221E1,-5.198010408E0,-2.092413842E0,3.114093740E0,6.410545040E0
1.193951021E1,-4.666742334E0,-2.438483055E0,2.943827498E0,6.032479089E0
1.194948821E1,-4.189100829E0,-2.762243385E0,2.762933357E0,5.728206963E0
1.195946521E1,-3.737301971E0,-3.060983480E0,2.659872673E0,5.514704754E0
1.196944321E1,-3.276496354E0,-3.345482681E0,2.665283686E0,5.388081278E0
1.197942121E1,-2.930582093E0,-3.619642836E0,2.700216122E0,5.383427604E0
1.198939921E1,-2.602789814E0,-3.897917676E0,2.752924093E0,5.435703091E0
1.199937721E1,-2.316273324E0,-4.153684244E0,2.769202741E0,5.503335237E0
1.200935521E1,-2.215203617E0,-4.353412267E0,2.672156503E0,5.567741536E0
1.201933321E1,-2.315533359E0,-4.536848193E0,2.493390749E0,5.671127197E0
1.202931121E1,-2.580051747E0,-4.732869081E0,2.247958403E0,5.840379588E0
1.203928821E1,-2.914059908E0,-4.928210523E0,1.931089601E0,6.042194233E0
1.204926621E1,-3.162664806E0,-5.099300053E0,1.633748160E0,6.218877934E0
1.205924421E1,-3.129797607E0,-5.329266951E0,1.401492369E0,6.337262828E0
1.206922221E1,-2.707558763E0,-5.634974588E0,1.337371948E0,6.393150772E0
1.207920021E1,-2.074126090E0,-5.941857516E0,1.302538623E0,6.426840331E0
1.208917821E1,-1.407284621E0,-6.162143179E0,1.225128650E0,6.438431391E0
1.209915621E1,-8.382223374E-1,-6.377851058E0,1.168531988E0,6.537971230E0
1.210913421E1,-2.549806293E-1,-6.525925362E0,1.134788876E0,6.628760272E0
1.211911121E1,2.092281403E-1,-6.639820352E0,1.047304005E0,6.725164415E0
1.212908921E1,4.271825190E-1,-6.688973216E0,8.868400352E-1,6.761015666E0
1.213906721E1,6.668790382E-1,-6.644578816E0,7.439517725E-1,6.719272248E0
1.214904521E1,1.072699047E0,-6.512062199E0,6.692876525E-1,6.633670423E0
1.215902321E1,1.604996670E0,-6.369838618E0,7.022237027E-1,6.606358790E0
1.216900121E1,2.158446741E0,-6.296265442E0,8.444339807E-1,6.709315882E0
1.217897921E1,2.697940385E0,-6.193649147E0,8.962389958E-1,6.814940676E0
1.218895721E1,3.282559917E0,-5.894423733E0,8.440783238E-1,6.799404310E0
1.219893421E1,3.805247202E0,-5.440945262E0,7.883740930E-1,6.686204104E0
1.220891221E1,4.068775364E0,-5.003844842E0,7.044712993E-1,6.487655661E0
1.221889021E1,4.257308308E0,-4.588042905E0,5.654678535E-1,6.284470194E0
1.222886821E1,4.490229219E0,-4.226707782E0,4.389796420E-1,6.182226156E0
1.223884621E1,4.925743582E0,-3.781779694E0,2.106166347E-1,6.213627512E0
1.224882421E1,5.531516293E0,-3.204585834E0,2.483425777E-2,6.392781837E0
1.225880221E1,6.260992699E0,-2.588959395E0,-9.072309572E-2,6.775763500E0
1.226878021E1,7.097321123E0,-1.865719045E0,-5.122133503E-3,7.338453578E0
1.227875821E1,7.946858992E0,-1.231711884E0,4.191541457E-1,8.052662429E0
1.228873521E1,8.655802315E0,-7.158032763E-1,1.026027887E0,8.745743037E0
1.229871321E1,9.287791602E0,-1.160724932E-1,1.495297934E0,9.408106163E0
1.230869121E1,9.948567317E0,5.670366615E-1,1.782124912E0,1.012282033E1
1.231866921E1,1.038248685E1,1.214761975E0,1.958485122E0,1.063519364E1
1.232864721E1,1.042061771E1,1.818697491E0,1.964965006E0,1.075909018E1
1.233862521E1,1.027576815E1,2.309955407E0,1.832341969E0,1.069040608E1
1.234860321E1,1.013401878E1,2.619376611E0,1.682669474E0,1.060145495E1
1.235858121E1,1.002779826E1,2.818440390E0,1.754038396E0,1.056300122E1
1.236855846E1,9.840253494E0,2.873842759E0,2.061047038E0,1.045645618E1
1.237853646E1,9.472273595E0,2.811863442E0,2.475911667E0,1.018629872E1
1.238851446E1,8.888130319E0,2.717777649E0,2.806280521E0,9.708778825E0
1.239849246E1,8.232063367E0,2.580166352E0,3.086586683E0,9.162485637E0
1.240847046E1,7.657784345E0,2.355232737E0,3.359295559E0,8.687557135E0
1.241844846E1,7.194976641E0,2.084006131E0,3.689905318E0,8.350219858E0
1.242842646E1,6.899249032E0,1.827685246E0,4.005385407E0,8.184325434E0
1.243840346E1,6.665583769E0,1.521915044E0,4.217467427E0,8.033259854E0
1.244838146E1,6.412021601E0,1.141668271E0,4.270067225E0,7.787868871E0
1.245835946E1,6.143326839E0,7.430834609E-1,4.153030525E0,7.452536496E0
1.246833746E1,5.814018086E0,3.189901721E-1,3.936772424E0,7.028708142E0
1.247831546E1,5.448030918E0,-1.467083949E-1,3.662292427E0,6.566197534E0
1.248829346E1,5.141501162E0,-5.804653770E-1,3.381016796E0,6.180877674E0
1.249827146E1,4.853143383E0,-9.583299941E-1,3.151498379E0,5.865435969E0
1.250824946E1,4.585442063E0,-1.363214595E0,2.921496981E0,5.605334741E0
1.251822746E1,4.304839739E0,-1.766005892E0,2.673447568E0,5.366352941E0
1.252820446E1,4.060298948E0,-2.150503006E0,2.415130445E0,5.190717271E0
1.253818246E1,3.811409582E0,-2.496846453E0,2.219936499E0,5.068451763E0
1.254816046E1,3.610198705E0,-2.843481676E0,2.104442296E0,5.054463385E0
1.255813846E1,3.398323969E0,-3.194113471E0,2.014024315E0,5.080084705E0
1.256811646E1,3.153722952E0,-3.511546530E0,1.900759070E0,5.088203271E0
1.257809446E1,2.836045772E0,-3.741866015E0,1.726722543E0,5.002628073E0
1.258807246E1,2.481377644E0,-3.904518598E0,1.563767806E0,4.883428124E0
1.259805046E1,2.133034449E0,-4.069834587E0,1.431573808E0,4.812773950E0
1.260802746E1,1.764321602E0,-4.269093078E0,1.338986510E0,4.809456446E0
1.261800546E1,1.386254525E0,-4.419494575E0,1.249328960E0,4.797338507E0
1.262798346E1,1.010125215E0,-4.468259184E0,1.205278376E0,4.736917674E0
1.263796146E1,8.006916913E-1,-4.435376782E0,1.190845986E0,4.661736645E0
1.264793946E1,8.184906158E-1,-4.452993273E0,1.247682384E0,4.696358942E0
1.265791746E1,8.946109117E-1,-4.656617296E0,1.281956716E0,4.912008382E0
1.266789546E1,8.358678098E-1,-4.909703500E0,1.161020509E0,5.113886201E0
1.267787346E1,6.999507438E-1,-4.958313158E0,9.118039915E-1,5.089812073E0
1.268785046E1,4.728668149E-1,-4.916361725E0,6.873343527E-1,4.986646583E0
1.269782846E1,2.615588200E-1,-4.901534940E0,6.480933961E-1,4.951109253E0
1.270780646E1,1.507964757E-1,-4.930171679E0,7.922205377E-1,4.995692719E0
1.271778446E1,2.042140067E-1,-5.045030290E0,9.973398395E-1,5.146719415E0
1.272776246E1,2.759637281E-1,-5.133722611E0,1.022791600E0,5.241885775E0
1.273774046E1,2.039853805E-1,-5.221118605E0,8.616911606E-1,5.295677594E0
1.274771846E1,-1.519662112E-1,-5.190782665E0,5.424849339E-1,5.221265010E0
1.275769646E1,-6.397953200E-1,-4.985110363E0,3.157590008E-1,5.035907776E0
1.276767346E1,-1.339412919E0,-4.663081977E0,4.100687420E-1,4.868933853E0
1.277765146E1,-2.147415968E0,-4.236622320E0,7.982314754E-1,4.816382202E0
1.278762946E1,-2.629350207E0,-3.753455781E0,1.255916433E0,4.751761663E0
1.279760746E1,-2.843681651E0,-3.391852856E0,1.476771616E0,4.666052457E0
1.280758546E1,-2.826770918E0,-3.178596130E0,1.476126083E0,4.502560982E0
1.281756346E1,-2.698707540E0,-2.969879183E0,1.245950439E0,4.201856404E0
1.282754146E1,-3.003304206E0,-2.803999522E0,8.939550734E-1,4.204926295E0
1.283751946E1,-3.762794954E0,-2.654542351E0,5.690978050E-1,4.639945395E0
1.284749646E1,-4.661190988E0,-2.203843061E0,2.865392947E-1,5.163887144E0
1.285747446E1,-5.554258454E0,-1.661019135E0,3.717531073E-1,5.809214397E0
1.286745246E1,-6.288690959E0,-1.281334280E0,7.848617437E-1,6.465714150E0
1.287743046E1,-6.787864836E0,-9.231443739E-1,1.305148235E0,6.973572720E0
1.288740846E1,-7.143344557E0,-5.929684782E-1,1.771687632E0,7.383621073E0
1.289738646E1,-7.220169954E0,-4.498789251E-1,2.180039631E0,7.555515734E0
1.290736446E1,-7.353091199E0,-3.565269578E-1,2.514260631E0,7.779239563E0
1.291734246E1,-7.711406236E0,-1.390596521E-1,2.660529900E0,8.158648360E0
1.292731946E1,-8.154507068E0,-6.574024558E-3,2.770647004E0,8.612346577E0
1.293729746E1,-8.447881758E0,1.008580381E-1,2.870980546E0,8.922970797E0
1.294727546E1,-8.655549715E0,1.909905285E-1,2.984456291E0,9.157619647E0
1.295725346E1,-8.860872354E0,4.213041669E-1,2.896771445E0,9.331872314E0
1.296723146E1,-9.029386770E0,7.721031922E-1,2.606809191E0,9.429815637E0
1.297720946E1,-9.307873279E0,3.011754602E-1,2.888392385E0,9.750385747E0
1.298718746E1,-9.315012730E0,-3.444776005E-1,3.212409409E0,9.859396593E0
1.299716546E1,-8.991396825E0,-6.509266645E-1,3.547569471E0,9.687836267E0
1.300714346E1,-8.359211072E0,-6.248638701E-1,3.859950535E0,9.228547163E0
1.301712046E1,-7.623867570E0,-2.857124984E-1,3.828741606E0,8.536055919E0
1.302709846E1,-7.116710490E0,-3.992350209E-1,3.871201163E0,8.111298000E0
1.303707646E1,-6.639520975E0,-7.372812688E-1,3.992150819E0,7.782293403E0
1.304705446E1,-6.082906975E0,-1.014490162E0,4.079055061E0,7.393891922E0
1.305703246E1,-5.458481646E0,-1.270628613E0,4.062800971E0,6.922129057E0
1.306701046E1,-4.965939097E0,-1.638987411E0,3.972468506E0,6.567140693E0
1.307698846E1,-4.648221279E0,-1.925912037E0,3.748152941E0,6.274053610E0
1.308696646E1,-4.423447292E0,-2.154079163E0,3.530572200E0,6.055731421E0
1.309694346E1,-4.195392141E0,-2.407986901E0,3.433575078E0,5.932044669E0
1.310692146E1,-3.913432678E0,-2.712751967E0,3.404153059E0,5.853395306E0
1.311689946E1,-3.638317088E0,-3.028218023E0,3.373359282E0,5.812659329E0
1.312687746E1,-3.342322554E0,-3.333416367E0,3.352368947E0,5.789746306E0
1.313685546E1,-3.052050104E0,-3.670719434E0,3.290314786E0,5.797875680E0
1.314683346E1,-2.749831793E0,-4.018966734E0,3.194386536E0,5.823896792E0
1.315681146E1,-2.464060530E0,-4.345640148E0,3.079358940E0,5.868443923E0
1.316678946E1,-2.174656100E0,-4.645223996E0,2.904791486E0,5.894493083E0
1.317676646E1,-1.848197571E0,-4.833990828E0,2.691300287E0,5.833215136E0
1.318674446E1,-1.491732886E0,-4.961561286E0,2.553323539E0,5.775969053E0
1.319672246E1,-1.186134300E0,-5.097562845E0,2.428587227E0,5.769757140E0
1.320670046E1,-9.698813148E-1,-5.247289572E0,2.325605772E0,5.820924311E0
1.321667846E1,-7.352297732E-1,-5.327636747E0,2.245764674E0,5.828184546E0
1.322665646E1,-4.622924177E-1,-5.429322166E0,2.159901382E0,5.861435613E0
1.323663446E1,-8.102039052E-2,-5.487493776E0,2.081159852E0,5.869444486E0
1.324661246E1,3.143880114E-1,-5.505489167E0,1.977664281E0,5.858362126E0
1.325658946E1,7.936431652E-1,-5.403419001E0,1.804928760E0,5.751919176E0
1.326656746E1,1.271655091E0,-5.206621018E0,1.597704899E0,5.592733682E0
1.327654546E1,1.658862682E0,-5.060890862E0,1.321116396E0,5.487238855E0
1.328652346E1,2.134352265E0,-4.949658694E0,9.685149667E-1,5.476550194E0
1.329650146E1,2.560612679E0,-4.750904818E0,6.078344393E-1,5.431141370E0
1.330647946E1,2.821778273E0,-4.574675585E0,2.984560664E-1,5.383230011E0
1.331645746E1,2.917029709E0,-4.393649881E0,-5.957728028E-2,5.274160697E0
1.332643546E1,2.931578166E0,-4.141722595E0,-4.365370408E-1,5.092993342E0
1.333641246E1,2.962474853E0,-3.810506480E0,-7.395806864E-1,4.882949568E0
1.334639046E1,2.996445422E0,-3.428004436E0,-9.084348258E-1,4.642752784E0
1.335636846E1,3.099915996E0,-3.031191916E0,-9.362805824E-1,4.435563656E0
1.336634688E1,3.406652158E0,-2.666718008E0,-7.990230422E-1,4.399443338E0
1.337632487E1,3.891151278E0,-2.277060726E0,-6.160578172E-1,4.550339664E0
1.338630288E1,4.557006176E0,-1.923652089E0,-4.786026411E-1,4.969487211E0
1.339628088E1,5.394012001E0,-1.619860584E0,-4.678905420E-1,5.651392336E0
1.340625888E1,6.233758707E0,-1.223435735E0,-5.657613838E-1,6.377823183E0
1.341623587E1,6.891344181E0,-7.985606736E-1,-6.590256429E-1,6.968689874E0
1.342621388E1,7.428942450E0,-3.546821612E-1,-6.630263078E-1,7.466899574E0
1.343619188E1,7.847634666E0,6.134196997E-2,-4.966893947E-1,7.863576352E0
1.344616988E1,8.010174982E0,4.819573349E-1,-1.314478198E-1,8.025737639E0
1.345614787E1,8.240478680E0,9.349078023E-1,3.269961798E-1,8.299787225E0
1.346612588E1,8.628578264E0,1.308353679E0,8.976809192E-1,8.773253857E0
1.347610388E1,9.070409081E0,1.620724803E0,1.490834169E0,9.333898237E0
1.348608187E1,9.423261064E0,1.852878560E0,2.006443985E0,9.811056288E0
1.349605887E1,9.533524933E0,1.946772564E0,2.440630152E0,1.003168463E1
1.350603688E1,9.434934445E0,1.959966221E0,2.767268482E0,1.002582817E1
1.351601488E1,9.235207592E0,1.984001786E0,3.044713018E0,9.924494935E0
1.352599287E1,9.136048170E0,1.959587322E0,3.309760287E0,9.912712635E0
1.353597088E1,9.095263256E0,1.884862245E0,3.628663920E0,9.972147272E0
1.354594888E1,9.034808308E0,1.772948876E0,3.948355758E0,1.001801488E1
1.355592688E1,8.812000741E0,1.484755989E0,4.036248765E0,9.805465899E0
1.356590487E1,8.448500394E0,1.157879092E0,3.804435900E0,9.337642926E0
1.357588188E1,8.021011627E0,8.273313135E-1,3.290801275E0,8.709217970E0
1.358585988E1,7.639855612E0,4.605372298E-1,2.676035546E0,8.108061085E0
1.359583788E1,7.324485451E0,2.375665247E-2,2.213554848E0,7.651697626E0
1.360581587E1,6.986647364E0,-4.302153236E-1,1.830053661E0,7.235151900E0
1.361579388E1,6.620974191E0,-8.103357965E-1,1.519860917E0,6.841339091E0
1.362577188E1,6.274787450E0,-1.196622743E0,1.265942069E0,6.512102030E0
1.363574987E1,5.872514216E0,-1.611421298E0,1.095981198E0,6.187428917E0
1.364572788E1,5.395577885E0,-2.067287187E0,9.142219613E-1,5.849934942E0
1.365570488E1,4.903074804E0,-2.468267017E0,7.419341907E-1,5.539219345E0
1.366568288E1,4.455501729E0,-2.825331334E0,6.404814908E-1,5.314528139E0
1.367566087E1,4.031637066E0,-3.167781705E0,6.631983621E-1,5.169987469E0
1.368563888E1,3.534848853E0,-3.487271814E0,8.201811920E-1,5.032784349E0
1.369561688E1,2.963280307E0,-3.765081216E0,9.422904968E-1,4.883111520E0
1.370559488E1,2.481733155E0,-3.971157560E0,1.058480519E0,4.800986652E0
1.371557287E1,2.118993530E0,-4.172578937E0,1.232203927E0,4.839305227E0
1.372555088E1,1.865908203E0,-4.350463516E0,1.425028435E0,4.943566756E0
1.373552788E1,1.728554184E0,-4.528933986E0,1.554353350E0,5.090693170E0
1.374550588E1,1.484078589E0,-4.701963038E0,1.660187953E0,5.202611816E0
1.375548387E1,1.179543976E0,-4.773470977E0,1.724899381E0,5.210818269E0
1.376546188E1,8.811474784E-1,-4.748820870E0,1.728196919E0,5.129754879E0
1.377543988E1,6.661449203E-1,-4.829366266E0,1.696113246E0,5.161717517E0
1.378541788E1,6.192559518E-1,-4.970575939E0,1.552662043E0,5.244126478E0
1.379539588E1,7.231830472E-1,-5.108503570E0,1.338570627E0,5.330250817E0
1.380537388E1,1.016856822E0,-5.299540876E0,1.138109071E0,5.514927339E0
1.381535088E1,1.517041682E0,-5.583458864E0,9.690125647E-1,5.866465180E0
1.382532888E1,1.695187047E0,-5.941721275E0,7.534150524E-1,6.224575896E0
1.383530688E1,1.193174055E0,-6.185213369E0,4.445043106E-1,6.314911941E0
1.384528488E1,2.255882111E-1,-6.135823692E0,4.925124362E-2,6.140166782E0
1.385526288E1,-9.567234716E-1,-6.082098890E0,-2.850637498E-1,6.163481812E0
1.386524087E1,-1.960125266E0,-5.783567541E0,-5.303389513E-1,6.129682207E0
1.387521888E1,-2.633295323E0,-5.333888590E0,-5.267698109E-1,5.971775129E0
1.388519688E1,-2.659747250E0,-4.836591085E0,-1.685227485E-1,5.522252138E0
1.389517388E1,-2.123942614E0,-4.426669693E0,2.920940034E-1,4.918521699E0
1.390515187E1,-1.698096330E0,-4.157574397E0,5.407002906E-1,4.523418266E0
1.391512988E1,-1.785659553E0,-3.916382598E0,4.303470321E-1,4.325717428E0
1.392510788E1,-2.212372395E0,-3.534602101E0,1.669801068E-1,4.173234475E0
1.393508588E1,-2.882800108E0,-3.169515404E0,2.083936695E-1,4.289497906E0
1.394506387E1,-3.608506814E0,-2.770383879E0,5.603152871E-1,4.583699541E0
1.395504188E1,-4.151164679E0,-2.377182600E0,1.135262720E0,4.916501474E0
1.396501988E1,-4.822979937E0,-2.011334011E0,1.596400970E0,5.463981701E0
1.397499688E1,-5.767419285E0,-1.430422491E0,1.653120131E0,6.167822945E0
1.398497487E1,-6.620933261E0,-7.768593174E-1,1.559924285E0,6.846432021E0
1.399495288E1,-7.384414149E0,-3.386660528E-1,1.751956202E0,7.596947910E0
1.400493088E1,-8.235751791E0,8.597161174E-2,2.462032716E0,8.596313383E0
1.401490887E1,-9.185907962E0,5.582091200E-1,3.377343575E0,9.803007301E0
1.402488688E1,-9.782847869E0,9.265948159E-1,4.159625600E0,1.067076265E1
1.403486488E1,-9.852366586E0,9.824140906E-1,4.586345458E0,1.091186645E1
1.404484288E1,-9.759123377E0,9.015447593E-1,4.671094417E0,1.085690541E1
1.405481987E1,-9.732999771E0,8.905280203E-1,4.394112981E0,1.071599522E1
1.406479788E1,-9.681312724E0,7.764500123E-1,3.918943094E0,1.047324237E1
1.407477588E1,-9.624433349E0,5.429274219E-1,3.374142809E0,1.021319378E1
1.408475388E1,-9.614708260E0,3.564947981E-1,2.956035315E0,1.006517999E1
1.409473187E1,-9.509022760E0,1.981907898E-1,2.792578155E0,9.912582217E0
1.410470988E1,-9.226688783E0,1.064777970E-3,2.894943606E0,9.670185392E0
1.411468788E1,-8.694226123E0,-1.790873516E-1,3.142410636E0,9.246425513E0
1.412466587E1,-8.023029501E0,-4.589900565E-1,3.407574849E0,8.728759396E0
1.413464287E1,-7.361419389E0,-8.512815088E-1,3.495076092E0,8.193334640E0
1.414462088E1,-6.921927457E0,-1.266411016E0,3.373599018E0,7.803720069E0
1.415459888E1,-6.573234015E0,-1.631010055E0,3.081057556E0,7.440464695E0
1.416457687E1,-6.316488038E0,-1.993889428E0,2.787585218E0,7.186393221E0
1.417455488E1,-6.056924288E0,-2.315947049E0,2.611236702E0,6.990600809E0
1.418453288E1,-5.670508702E0,-2.628813432E0,2.564012250E0,6.755700395E0
1.419451088E1,-5.150450326E0,-2.918304402E0,2.589244155E0,6.461255639E0
1.420448887E1,-4.583305491E0,-3.155497874E0,2.677300884E0,6.175094823E0
1.421446588E1,-4.049389797E0,-3.444811673E0,2.780629370E0,5.999682065E0
1.422444388E1,-3.620161776E0,-3.656738157E0,2.831392558E0,5.873166867E0
1.423442188E1,-3.320273581E0,-3.746513967E0,2.770279799E0,5.721453811E0
1.424439987E1,-3.043077844E0,-3.854278151E0,2.672896761E0,5.591078601E0
1.425437788E1,-2.683452739E0,-3.985943415E0,2.557715968E0,5.443397329E0
1.426435588E1,-2.360826476E0,-4.169261227E0,2.468766954E0,5.389902698E0
1.427433387E1,-2.075274191E0,-4.371867834E0,2.456849159E0,5.427347337E0
1.428431188E1,-1.722286261E0,-4.630735765E0,2.490516257E0,5.532870405E0
1.429428888E1,-1.327315907E0,-4.869581076E0,2.497339958E0,5.631278206E0
1.430426688E1,-9.074223804E-1,-5.042535283E0,2.510671610E0,5.705615601E0
1.431424487E1,-6.344394167E-1,-5.339929934E0,2.462478858E0,5.914487906E0
1.432422288E1,-4.119138309E-1,-5.568005843E0,2.311294712E0,6.042718371E0
1.433420088E1,-2.790237954E-1,-5.690516705E0,2.113550942E0,6.076753429E0
1.434417888E1,-2.149741991E-1,-5.845638074E0,1.905611382E0,6.152158413E0
1.435415687E1,-1.359500663E-1,-6.058590744E0,1.694214655E0,6.292485004E0
1.436413788E1,-3.235625303E-2,-6.317193797E0,1.504402341E0,6.493936464E0
1.437411587E1,9.441838983E-2,-6.461398414E0,1.297281683E0,6.591018439E0
1.438409287E1,2.111224189E-1,-6.503517662E0,1.139049596E0,6.605887423E0
1.439407088E1,2.565927798E-1,-6.522115316E0,1.018635837E0,6.606167348E0
1.440404888E1,2.910226473E-1,-6.681762430E0,9.812197968E-1,6.759691978E0
1.441402687E1,3.320665929E-1,-6.803078706E0,8.669362593E-1,6.866128937E0
1.442400488E1,4.223923337E-1,-6.749981895E0,6.434395972E-1,6.793723970E0
1.443398288E1,6.312656942E-1,-6.548402059E0,4.767214456E-1,6.596008584E0
1.444396088E1,9.396332297E-1,-6.365075476E0,4.429546523E-1,6.449287189E0
1.445393787E1,1.544657497E0,-6.113522412E0,4.082812482E-1,6.318846148E0
1.446391588E1,2.421733705E0,-5.707430361E0,3.522096661E-1,6.209960315E0
1.447389388E1,3.368294424E0,-5.329433012E0,2.418563345E-1,6.309259706E0
1.448387188E1,4.285761736E0,-4.850754796E0,4.831408113E-3,6.472835475E0
1.449384987E1,5.066136984E0,-4.148353922E0,-3.633328244E-1,6.557941365E0
1.450382788E1,5.657980458E0,-3.343511585E0,-6.790965030E-1,6.607040536E0
1.451380588E1,6.146342248E0,-2.589318999E0,-8.734942040E-1,6.726446910E0
1.452378387E1,6.828206531E0,-1.832294022E0,-8.824394207E-1,7.124633685E0
1.453376087E1,7.767416130E0,-1.051155127E0,-6.599190974E-1,7.865950270E0
1.454373888E1,8.652183473E0,-4.040648210E-1,-2.274682371E-1,8.664599762E0
1.455371688E1,9.543036014E0,2.075521821E-1,2.446896029E-1,9.548428524E0
1.456369487E1,1.042245959E1,8.233288944E-1,7.303079525E-1,1.048040476E1
1.457367288E1,1.095393758E1,1.293418136E0,1.210163140E0,1.109622340E1
1.458365088E1,1.116872803E1,1.602169248E0,1.692805184E0,1.140933922E1
1.459362888E1,1.122787963E1,1.905574252E0,2.106875761E0,1.158168466E1
1.460360687E1,1.114920885E1,2.172392058E0,2.380345359E0,1.160561025E1
1.461358388E1,1.091519042E1,2.321735793E0,2.472312706E0,1.142996802E1
1.462356188E1,1.066713516E1,2.368553279E0,2.430666497E0,1.119401432E1
1.463353988E1,1.049390671E1,2.224946247E0,2.427016665E0,1.099831232E1
1.464351787E1,1.031486497E1,1.946970200E0,2.456517037E0,1.078061261E1
1.465349588E1,1.010222045E1,1.724546794E0,2.511962675E0,1.055172385E1
1.466347388E1,9.785713005E0,1.467295618E0,2.602221465E0,1.023155374E1
1.467345187E1,9.367903719E0,1.097316556E0,2.677565178E0,9.804645786E0
1.468342988E1,8.870940090E0,6.620626867E-1,2.739065022E0,9.307759251E0
1.469340688E1,8.352076884E0,2.215059775E-1,2.713450710E0,8.784592644E0
1.470338488E1,7.860183960E0,-1.783950412E-1,2.686026099E0,8.308372457E0
1.471336287E1,7.327431278E0,-6.473078227E-1,2.639749188E0,7.815275576E0
1.472334088E1,6.721604773E0,-1.037205425E0,2.411624600E0,7.216072272E0
1.473331888E1,6.065736626E0,-1.454459810E0,2.081063958E0,6.575670411E0
1.474329688E1,5.377257389E0,-1.858566731E0,1.746676751E0,5.951474355E0
1.475327487E1,4.631960464E0,-2.239788820E0,1.527798951E0,5.367111079E0
1.476325288E1,3.914825485E0,-2.589933541E0,1.426111486E0,4.905854492E0
1.477322988E1,3.235128180E0,-2.856266613E0,1.420822094E0,4.543462197E0
1.478320788E1,2.640946405E0,-3.051988708E0,1.492092783E0,4.302972677E0
1.479318587E1,2.170010779E0,-3.207891265E0,1.700254537E0,4.229701957E0
1.480316388E1,1.850464683E0,-3.386263502E0,2.066148442E0,4.377210234E0
1.481314188E1,1.619085390E0,-3.511917828E0,2.463369974E0,4.585105883E0
1.482311987E1,1.340199808E0,-3.566164201E0,2.770852826E0,4.710762997E0
1.483309788E1,1.076605718E0,-3.670317146E0,2.858560768E0,4.775110207E0
1.484307588E1,8.192546276E-1,-3.736952015E0,2.797678389E0,4.739513992E0
1.485305388E1,5.400479606E-1,-3.791188449E0,2.641288759E0,4.652006875E0
1.486303087E1,2.206365331E-1,-3.883351092E0,2.397271879E0,4.569027101E0
1.487300888E1,4.611537273E-2,-3.949728684E0,2.166243418E0,4.505007642E0
1.488298688E1,7.969468055E-2,-4.084361410E0,2.037227821E0,4.564937739E0
1.489296488E1,2.762896373E-1,-4.197977487E0,2.020690433E0,4.667176960E0
1.490294287E1,6.180733524E-1,-4.291959200E0,1.965347414E0,4.760831745E0
1.491292088E1,8.630310501E-1,-4.384193764E0,1.774175914E0,4.807668638E0
1.492289888E1,8.270345673E-1,-4.547719921E0,1.445204837E0,4.842970130E0
1.493287588E1,6.633853269E-1,-4.604172449E0,1.039783170E0,4.766511625E0
1.494285387E1,4.723807651E-1,-4.592107889E0,6.517198393E-1,4.662117244E0
1.495283188E1,2.470359443E-1,-4.702704465E0,4.384952733E-1,4.729559614E0
1.496280988E1,2.077702832E-1,-4.782568660E0,4.280170628E-1,4.806176243E0
1.497278788E1,4.387247765E-1,-4.784898775E0,4.564254677E-1,4.826599209E0
1.498276588E1,8.261414051E-1,-4.831009918E0,4.766261360E-1,4.924260241E0
1.499274388E1,1.052967764E0,-4.943706813E0,3.698013067E-1,5.068109231E0
1.500272188E1,9.305194670E-1,-5.035112827E0,1.701501748E-1,5.123200049E0
1.501269888E1,4.984309879E-1,-4.999155959E0,-7.268542215E-2,5.024467825E0
1.502267687E1,-4.521037906E-2,-4.780547862E0,-1.336813831E-1,4.782630296E0
1.503265488E1,-4.879033685E-1,-4.528831075E0,-6.093091071E-3,4.555040914E0
1.504263288E1,-6.433086196E-1,-4.334529269E0,1.350901236E-1,4.384089336E0
1.505261087E1,-7.444642809E-1,-4.151582755E0,1.891787687E-1,4.222043941E0
1.506258888E1,-1.124442374E0,-3.944211252E0,-2.227672219E-2,4.101422839E0
1.507256688E1,-1.811771464E0,-3.623088015E0,-5.799970150E-1,4.092148475E0
1.508254488E1,-2.708912686E0,-3.301050859E0,-1.226895386E0,4.443018906E0
1.509252187E1,-3.705351908E0,-2.847433809E0,-1.744161279E0,4.987946534E0
1.510249988E1,-4.505862628E0,-2.304840263E0,-1.821715239E0,5.379008558E0
1.511247788E1,-5.000565723E0,-1.668380195E0,-1.460004140E0,5.469987396E0
1.512245588E1,-5.316542825E0,-1.161705510E0,-7.078241658E-1,5.487823098E0
1.513243387E1,-5.704839460E0,-8.599675477E-1,1.480561781E-1,5.771192084E0
1.514241188E1,-6.391949279E0,-4.784624541E-1,8.001890501E-1,6.459585469E0
1.515238988E1,-7.285103869E0,2.016880095E-2,1.296514821E0,7.399601060E0
1.516236787E1,-8.319444158E0,4.025527310E-1,1.780501724E0,8.517357935E0
1.517234487E1,-9.386275671E0,6.916887742E-1,2.241785059E0,9.675029952E0
1.518232288E1,-1.030195900E1,9.595848066E-1,2.739483683E0,1.070308054E1
1.519230088E1,-1.099055518E1,1.113698700E0,3.323150411E0,1.153585526E1
1.520227887E1,-1.140773881E1,1.156795018E0,3.881876425E0,1.210552122E1
1.521225688E1,-1.153604193E1,1.023937508E0,4.347414193E0,1.237047782E1
1.522223488E1,-1.142741352E1,7.386120951E-1,4.661524864E0,1.236370259E1
1.523221288E1,-1.107685774E1,6.252772683E-1,4.671815379E0,1.203800681E1
1.524219087E1,-1.056001767E1,6.028005713E-1,4.454556234E0,1.147695138E1
1.525216788E1,-9.966449271E0,4.060821104E-1,4.146814935E0,1.080236492E1
1.526214588E1,-9.329978678E0,6.056721389E-2,3.882413199E0,1.010570645E1
1.527212388E1,-8.651747856E0,-2.738134146E-1,3.685746778E0,9.408105232E0
1.528210187E1,-7.980781614E0,-6.183395469E-1,3.614972080E0,8.783122571E0
1.529207988E1,-7.364794986E0,-1.005707644E0,3.537837950E0,8.232129154E0
1.530205788E1,-6.738576316E0,-1.396301649E0,3.456645852E0,7.701069381E0
1.531203587E1,-6.169993651E0,-1.807922242E0,3.332764403E0,7.241872897E0
1.532201388E1,-5.621942314E0,-2.175301048E0,3.206609555E0,6.827921709E0
1.533199088E1,-5.047282053E0,-2.574913214E0,3.121724356E0,6.469188290E0
1.534196888E1,-4.523947481E0,-2.958271290E0,3.007180910E0,6.185515893E0
1.535194687E1,-3.947273439E0,-3.242804405E0,2.901414135E0,5.874942722E0
1.536192488E1,-3.477658699E0,-3.532314085E0,2.843971088E0,5.714851212E0
1.537189900E1,-3.182606443E0,-3.827048253E0,2.733657517E0,5.678746827E0
1.538187700E1,-2.961883408E0,-4.084354393E0,2.543770359E0,5.650262982E0
1.539185500E1,-2.891114849E0,-4.282906541E0,2.357977566E0,5.679955256E0
1.540183300E1,-2.932380404E0,-4.426314182E0,2.226815017E0,5.757587793E0
1.541181000E1,-3.030702212E0,-4.508987380E0,2.092681060E0,5.821978797E0
1.542178800E1,-2.952816715E0,-4.652763396E0,2.021403501E0,5.869702368E0
1.543176600E1,-2.675260790E0,-4.794344367E0,2.009514650E0,5.846443991E0
1.544174400E1,-2.282017850E0,-4.939480446E0,2.088872330E0,5.828332536E0
1.545172200E1,-1.795708724E0,-5.094376112E0,2.145271064E0,5.812007031E0
1.546170000E1,-1.346205191E0,-5.275034026E0,2.162364960E0,5.857821661E0
1.547167800E1,-9.847101460E-1,-5.488728123E0,2.161790471E0,5.980729765E0
1.548165600E1,-6.171213526E-1,-5.615170653E0,2.082895306E0,6.020750210E0
1.549163300E1,-2.453691224E-1,-5.652900982E0,1.962488126E0,5.988894319E0
1.550161100E1,3.791110790E-2,-5.612030114E0,1.830749187E0,5.903216228E0
1.551158900E1,2.481861830E-1,-5.498714583E0,1.739146415E0,5.772528796E0
1.552156700E1,3.920006264E-1,-5.443444362E0,1.706585902E0,5.718145368E0
1.553154500E1,5.614042579E-1,-5.424445004E0,1.684793329E0,5.707740963E0
1.554152300E1,7.562893975E-1,-5.495585738E0,1.688508358E0,5.798663357E0
1.555150100E1,1.051317095E0,-5.668689634E0,1.583135100E0,5.978764633E0
1.556147900E1,1.531981903E0,-5.671354795E0,1.306682837E0,6.018193566E0
1.557145600E1,2.020320304E0,-5.539729292E0,9.765665826E-1,5.976953827E0
1.558143400E1,2.480807540E0,-5.252377819E0,5.897840846E-1,5.838640602E0
1.559141200E1,2.878733370E0,-4.864737827E0,1.695601907E-1,5.655221534E0
1.560139000E1,3.281526714E0,-4.532367471E0,-1.426194370E-1,5.597420189E0
1.561136800E1,3.765554255E0,-4.155513838E0,-3.121954152E-1,5.616507819E0
1.562134600E1,4.209329857E0,-3.783954858E0,-4.217045550E-1,5.675791305E0
1.563132400E1,4.548925617E0,-3.445012232E0,-4.625274758E-1,5.724924909E0
1.564130200E1,4.851597964E0,-2.981918015E0,-4.718970542E-1,5.714238767E0
1.565127900E1,5.065550508E0,-2.417436002E0,-3.716104352E-1,5.625112718E0
1.566125700E1,5.349370263E0,-1.758293415E0,-3.679755136E-2,5.631048926E0
1.567123500E1,5.821182679E0,-1.194048799E0,5.896813197E-1,5.971569674E0
1.568121300E1,6.592695887E0,-7.626499987E-1,1.177642096E0,6.740334931E0
1.569119100E1,7.519942083E0,-3.132797813E-1,1.576023424E0,7.689702399E0
1.570116900E1,8.298756124E0,1.144183159E-1,1.771191788E0,8.486434181E0
1.571114700E1,8.809750147E0,5.255991983E-1,1.788089072E0,9.004732906E0
1.572112500E1,9.162400401E0,9.782309926E-1,1.739185299E0,9.377168149E0
1.573110200E1,9.423113714E0,1.247826810E0,1.839304833E0,9.681693348E0
1.574108000E1,9.670440411E0,1.362454457E0,2.076246876E0,9.984212587E0
1.575105800E1,9.875916831E0,1.443103933E0,2.300689909E0,1.024253173E1
1.576103600E1,9.953100078E0,1.448484541E0,2.400250304E0,1.034038250E1
1.577101400E1,1.008183121E1,1.543499456E0,2.443826240E0,1.048799303E1
1.578099200E1,1.041322449E1,1.527902008E0,2.558676081E0,1.083127657E1
1.579097000E1,1.064240494E1,1.365524830E0,2.863562769E0,1.110519846E1
1.580094800E1,1.047315495E1,1.177025215E0,3.206096170E0,1.101596185E1
1.581092500E1,1.003073473E1,1.007423801E0,3.332380825E0,1.061768826E1
1.582090300E1,9.441821880E0,8.041693228E-1,3.105342797E0,9.971852516E0
1.583088100E1,8.838006232E0,4.735385138E-1,2.683437536E0,9.248536636E0
1.584085900E1,8.325352769E0,1.817688847E-1,2.126702499E0,8.594614720E0
1.585083700E1,7.987218813E0,-8.745095730E-3,1.564233975E0,8.138953789E0
1.586081500E1,7.646185223E0,-2.344558060E-1,1.373334078E0,7.772075944E0
1.587079300E1,7.223588237E0,-5.067781806E-1,1.556940158E0,7.406828862E0
1.588077100E1,6.786186685E0,-8.180985600E-1,1.873492042E0,7.087424596E0
1.589074800E1,6.315289358E0,-1.146758857E0,2.161977728E0,6.772893271E0
1.590072600E1,5.854238158E0,-1.547837505E0,2.380442861E0,6.506490112E0
1.591070400E1,5.444554163E0,-2.036644269E0,2.556369939E0,6.350284811E0
1.592068200E1,5.087848281E0,-2.545728591E0,2.679506746E0,6.288615952E0
1.593066000E1,4.777066137E0,-2.958274798E0,2.732140750E0,6.247907149E0
1.594063800E1,4.458443463E0,-3.360283154E0,2.753651194E0,6.225095653E0
1.595061600E1,4.087707186E0,-3.773101256E0,2.756029842E0,6.208167493E0
1.596059400E1,3.719521758E0,-4.110021331E0,2.678649544E0,6.156482829E0
1.597057100E1,3.176492009E0,-4.492350297E0,2.459963094E0,6.026834252E0
1.598054900E1,2.438055623E0,-4.827662387E0,2.092540727E0,5.799065962E0
1.599052700E1,1.578547667E0,-5.005221276E0,1.746313055E0,5.531153772E0
1.600050500E1,6.114500651E-1,-5.218707798E0,1.496695711E0,5.463412881E0
1.601048300E1,-1.583824706E-1,-5.412985046E0,1.475356882E0,5.612679400E0
1.602046100E1,-7.128506517E-1,-5.425136729E0,1.583880620E0,5.696397318E0
1.603043900E1,-1.036206867E0,-5.354121711E0,1.817625697E0,5.748400398E0
1.604041700E1,-9.802633385E-1,-5.302487873E0,2.085063600E0,5.781417133E0
1.605039400E1,-7.905776162E-1,-5.298539833E0,2.243005081E0,5.807805878E0
1.606037200E1,-8.583778359E-1,-5.309193460E0,2.120766991E0,5.781176380E0
1.607035000E1,-1.307223997E0,-5.234733261E0,1.777700616E0,5.680799801E0
1.608032800E1,-1.977849053E0,-5.151956568E0,1.334957340E0,5.677733215E0
1.609030600E1,-2.651035191E0,-5.105772920E0,1.026488648E0,5.843850070E0
1.610028400E1,-3.137398987E0,-5.069900837E0,8.621254626E-1,6.024153651E0
1.611026200E1,-3.145504982E0,-5.016913953E0,8.373648432E-1,5.980368475E0
1.612024000E1,-2.893638799E0,-4.885583151E0,8.720958424E-1,5.744790630E0
1.613021700E1,-2.742039501E0,-4.690014253E0,8.185341775E-1,5.494088870E0
1.614019500E1,-2.593040167E0,-4.329296011E0,6.668924868E-1,5.090324827E0
1.615017300E1,-2.400163912E0,-3.955955969E0,5.370585716E-1,4.658197757E0
1.616015100E1,-2.301922210E0,-3.773655573E0,5.059969926E-1,4.449197141E0
1.617012900E1,-2.270303684E0,-3.584185905E0,4.541567481E-1,4.266957437E0
1.618010700E1,-2.477687466E0,-3.233551186E0,2.395243187E-1,4.080705865E0
1.619008500E1,-2.988597874E0,-2.882325899E0,9.494007111E-2,4.153135377E0
1.620006300E1,-3.566769388E0,-2.476518023E0,1.217133021E-1,4.343938250E0
1.621004000E1,-3.891936559E0,-1.916512638E0,2.418561883E-1,4.344960908E0
1.622001800E1,-3.861787730E0,-1.504150034E0,5.451734836E-1,4.180082048E0
1.622999600E1,-3.476437508E0,-1.292291377E0,9.152262206E-1,3.820114368E0
1.623997400E1,-2.944839066E0,-1.093922832E0,1.128875221E0,3.338128750E0
1.624995200E1,-2.764224422E0,-9.105646741E-1,1.160512093E0,3.133185759E0
1.625993000E1,-3.185836152E0,-6.684700656E-1,9.712459087E-1,3.397016755E0
1.626990800E1,-4.060520557E0,-4.116656166E-1,6.161561966E-1,4.127583341E0
1.627988600E1,-5.111802569E0,-9.824842572E-2,3.222178717E-1,5.122890065E0
1.628986300E1,-6.078577112E0,2.287132555E-1,3.935971355E-1,6.095599082E0
1.629984100E1,-6.874891285E0,4.446509296E-1,7.581523204E-1,6.930846959E0
1.630981900E1,-7.428257741E0,6.235956091E-1,1.127289383E0,7.539142253E0
1.631979700E1,-7.755454481E0,7.443142998E-1,1.457874584E0,7.926315429E0
1.632977500E1,-8.013171095E0,7.760371989E-1,1.708863977E0,8.230027997E0
