"Time (s)","Linear Acceleration x (m/s^2)","Linear Acceleration y (m/s^2)","Linear Acceleration z (m/s^2)","Absolute acceleration (m/s^2)"
3.620458334E-3,-2.316246116E-2,1.824660646E-2,-7.768025994E-3,3.049230202E-2
1.365745833E-2,-2.623005210E-2,7.793292361E-3,2.935653090E-2,4.013174487E-2
2.369445833E-2,-1.123574921E-2,4.678905420E-3,6.408489883E-2,6.523042599E-2
3.373145833E-2,-2.984506120E-2,2.653085937E-2,9.895827770E-3,4.114051026E-2
4.376845833E-2,-2.663904657E-3,1.806449767E-2,3.489501357E-2,3.938380932E-2
5.380445833E-2,-1.636966394E-2,5.396477552E-4,2.112423599E-2,2.672995442E-2
6.384145833E-2,-1.058894210E-3,5.328270695E-3,2.187034070E-2,2.253494016E-2
7.387845833E-2,-4.531861651E-3,1.728252394E-2,3.953360975E-2,4.338351880E-2
8.391545833E-2,-1.483632757E-2,8.675847338E-3,3.623870373E-2,4.010773729E-2
9.395245833E-2,-1.862172362E-2,9.292047936E-3,1.408477306E-2,2.512949617E-2
1.039894583E-1,-3.180337138E-4,1.916958945E-2,4.866169810E-2,5.230234381E-2
1.140264583E-1,-4.758208282E-3,2.147372133E-2,1.138745248E-2,2.476762661E-2
1.240624583E-1,-8.646894484E-3,7.690664590E-3,3.383900642E-2,3.576301807E-2
1.340994583E-1,-8.322405992E-3,2.632316445E-2,4.386756599E-2,5.183179308E-2
1.441364583E-1,-9.303518529E-3,3.074168604E-2,1.991737068E-2,3.779296724E-2
1.541734583E-1,8.978445316E-4,9.843846937E-3,3.249122322E-2,3.396155228E-2
1.642104583E-1,-2.695332070E-2,2.312772048E-2,4.386932015E-2,5.644369054E-2
1.742474583E-1,-2.392348998E-2,6.427364512E-3,2.845138192E-2,3.772433592E-2
1.842844583E-1,-1.232333589E-2,1.429987751E-2,2.800231576E-2,3.377100520E-2
1.943204583E-1,-2.625337701E-2,2.375935224E-2,4.282032967E-2,5.556372248E-2
2.043574583E-1,-3.478751617E-2,2.023456385E-4,2.755149543E-2,4.437676335E-2
2.143944583E-1,-1.186194490E-3,1.678334075E-2,2.545760751E-2,3.051519890E-2
2.244314583E-1,-1.825251763E-2,2.847470683E-3,3.833083749E-2,4.255015384E-2
2.344684583E-1,-6.957789198E-3,6.981694261E-3,1.931920052E-2,2.168839307E-2
2.445054583E-1,-2.200780052E-2,1.093872436E-2,2.979858041E-2,3.862582515E-2
2.545424583E-1,-2.100881743E-2,1.880430750E-2,2.934951425E-2,4.069848126E-2
2.645784583E-1,-9.868432651E-3,7.508729389E-3,3.129546762E-2,3.366263913E-2
2.746154583E-1,-5.576567226E-3,1.186377215E-2,4.012651742E-2,4.221355933E-2
2.846524583E-1,-2.003110359E-2,2.587604888E-2,3.204215705E-2,4.579863366E-2
2.946894583E-1,-3.172816157E-2,8.900321033E-3,3.009561896E-2,4.462777422E-2
3.047264583E-1,-3.560549139E-2,1.279410984E-2,5.269920051E-2,6.487407801E-2
3.147634583E-1,-3.089094536E-2,5.190545926E-3,1.392748296E-2,3.428070965E-2
3.248004583E-1,-1.800990386E-2,2.146908010E-2,3.967218876E-2,4.857119103E-2
3.348364583E-1,-4.304299895E-3,3.101348564E-2,3.622700930E-2,4.788276821E-2
3.448734583E-1,-2.107607869E-2,7.500337721E-3,1.736623049E-2,2.832034816E-2
3.549104583E-1,-2.201906098E-2,1.070220906E-2,3.487864137E-2,4.261333065E-2
3.649474583E-1,2.341403305E-3,1.377239927E-2,2.574645996E-2,2.929234288E-2
3.749844583E-1,1.462689218E-2,2.871929860E-2,3.203338623E-2,4.544097183E-2
3.850214583E-1,-6.818346810E-3,3.354568176E-2,3.502599120E-2,4.897573560E-2
3.950584583E-1,-2.749609763E-2,2.367741813E-2,5.134089231E-2,6.286925113E-2
4.050944583E-1,-1.541358937E-2,1.611456089E-2,2.140431762E-2,3.090958787E-2
4.151314583E-1,-1.038304245E-2,1.192915590E-2,1.915898681E-2,2.484308971E-2
4.251684583E-1,-4.251462535E-2,2.340590176E-3,1.392105103E-2,4.479695741E-2
4.352054583E-1,-7.286818875E-2,1.579945078E-3,4.415758789E-2,8.521831802E-2
4.452424583E-1,-3.670253868E-2,2.497259011E-3,7.782644033E-3,3.760162491E-2
4.552794583E-1,-1.514279933E-2,-7.163264011E-3,3.577268064E-2,3.950065066E-2
4.653164583E-1,-4.182417425E-3,2.617227430E-2,2.589380980E-2,3.705360905E-2
4.753524583E-1,-1.668384215E-3,3.176839316E-2,3.397583127E-2,4.654429525E-2
4.853894583E-1,2.541675009E-3,4.157060152E-2,4.220812619E-2,5.929671946E-2
4.954264583E-1,2.460826289E-2,2.700164246E-2,9.574815631E-3,3.776681602E-2
5.054634583E-1,1.032537428E-2,1.987397337E-2,4.535041988E-2,5.057913359E-2
5.155004583E-1,-1.451365263E-2,2.998575983E-2,7.926485538E-3,3.424355528E-2
5.255374583E-1,-3.368209548E-2,-2.183459960E-3,4.145675898E-2,5.345946051E-2
5.355744583E-1,-2.900790438E-2,-2.371113556E-2,3.127851069E-2,4.880595964E-2
5.456104583E-1,-2.161886932E-2,-2.142410679E-4,3.008158565E-2,3.704488095E-2
5.556474583E-1,-1.893438977E-2,9.481237340E-3,3.591944575E-2,4.169666127E-2
5.656846667E-1,-2.625617271E-2,-4.336797623E-3,2.499275386E-2,3.650797399E-2
5.757216667E-1,-1.744785853E-2,1.230954469E-2,3.801567256E-2,4.360211025E-2
5.857586667E-1,-5.528757102E-3,3.710643053E-2,1.960279047E-2,4.232875779E-2
5.957956667E-1,1.821774497E-2,3.338248506E-2,5.388033807E-2,6.594973367E-2
6.058326667E-1,1.409623452E-2,3.193232076E-2,3.052831292E-2,4.637191851E-2
6.158686667E-1,-8.952196799E-3,1.325061293E-2,2.828181267E-2,3.248971373E-2
6.259056667E-1,-1.308076959E-2,2.510327994E-2,2.932963371E-2,4.076160707E-2
6.359426667E-1,-2.112408981E-2,-1.216357900E-3,3.082652092E-2,3.738958530E-2
6.459796667E-1,-2.778016268E-2,1.861794577E-3,4.429792106E-2,5.232121489E-2
6.560166667E-1,-4.276719309E-2,2.055858183E-3,2.633644402E-2,5.026795840E-2
6.660536667E-1,-2.541091201E-2,-1.002324682E-2,3.187434196E-2,4.197801331E-2
6.760906667E-1,-1.934062508E-2,1.060130347E-2,3.097620964E-2,3.802595137E-2
6.861276667E-1,-5.320386090E-3,2.320640664E-2,3.921025872E-2,4.587252126E-2
6.961636667E-1,4.564012201E-3,2.727893296E-2,3.531776726E-2,4.485883497E-2
7.062006667E-1,1.612234956E-2,3.943530343E-2,2.888115227E-2,5.147032416E-2
7.162376667E-1,-7.507276721E-5,1.871833515E-2,4.220286369E-2,4.616777459E-2
7.262746667E-1,-1.044433771E-2,5.490923789E-3,3.232399285E-2,3.441039012E-2
7.363116667E-1,-6.685363767E-3,3.154788917E-2,3.651410758E-2,4.871594660E-2
7.463486667E-1,-7.889355719E-3,4.523479119E-3,3.187317252E-2,3.314517949E-2
7.563856667E-1,-1.297498067E-2,-6.809018673E-3,1.720426261E-2,2.259866170E-2
7.664216667E-1,-3.643250238E-2,-9.470968167E-3,3.082769036E-2,4.865565703E-2
7.764586667E-1,-1.491061918E-2,1.063124305E-2,1.765508294E-2,2.543721382E-2
7.864956667E-1,2.456543203E-3,1.603529457E-2,1.181722283E-2,2.007017768E-2
7.965326667E-1,1.841571433E-2,2.212768215E-2,4.355181634E-2,5.220664286E-2
8.065696667E-1,-9.480255190E-4,2.601876662E-2,2.678667963E-2,3.735506892E-2
8.166066667E-1,2.282739286E-3,3.638903656E-2,3.621765375E-2,5.139154914E-2
8.266436667E-1,1.345912099E-2,1.981381557E-2,4.115504265E-2,4.761798779E-2
8.366796667E-1,-1.093443031E-3,2.037797595E-2,2.618500113E-2,3.319806931E-2
8.467166667E-1,-1.894153891E-2,2.586951187E-2,4.729052603E-2,5.713499272E-2
8.567536667E-1,-2.590488296E-2,-8.770786934E-3,3.995460927E-2,4.841859629E-2
8.667906667E-1,-1.566099054E-2,-8.622541744E-3,3.576390982E-2,3.998339776E-2
8.768276667E-1,-2.792223631E-2,-5.452423529E-3,2.753103018E-2,3.958961765E-2
8.868646667E-1,-3.612056713E-2,3.691635034E-3,2.992546499E-2,4.705164178E-2
8.969016667E-1,-1.610542461E-2,2.032325881E-2,3.965581656E-2,4.738146618E-2
9.069376667E-1,2.821054059E-2,1.605068919E-2,2.378822744E-2,4.024101128E-2
9.169746667E-1,2.087322142E-2,1.856375853E-2,2.588386953E-2,3.808253149E-2
9.270116667E-1,2.363051707E-4,3.527959134E-2,3.516457021E-2,4.981217124E-2
9.370486667E-1,6.945496341E-3,2.261153011E-2,3.022367299E-2,3.837957298E-2
9.470856667E-1,-6.430283552E-3,2.669834556E-2,2.034421742E-2,3.417656192E-2
9.571226667E-1,-2.186963721E-2,6.576514193E-3,3.246900380E-2,3.969594158E-2
9.671596667E-1,-1.479126289E-2,8.742720298E-3,3.725787342E-2,4.102884044E-2
9.771956667E-1,-2.601999545E-2,6.159826987E-3,3.650884509E-2,4.525350154E-2
9.872326667E-1,-2.880423855E-2,6.475809608E-3,4.294429064E-2,5.211364856E-2
9.972696667E-1,-8.043621713E-4,2.590369068E-2,3.036926866E-2,3.992418650E-2
1.007306667E0,7.042519008E-3,1.758799528E-2,3.560837388E-2,4.033473617E-2
1.017343667E0,-9.818123756E-3,2.133414189E-2,3.381269395E-2,4.116842767E-2
1.027380667E0,-1.538510703E-2,3.206962526E-2,1.689845324E-2,3.937918365E-2
1.037417667E0,-4.225947205E-3,3.382534769E-2,1.749603868E-2,3.831610818E-2
1.047453667E0,-1.006664869E-2,2.344704241E-2,3.036868393E-2,3.966557925E-2
1.057490667E0,-3.257287410E-3,1.692232175E-2,4.099541366E-2,4.447020166E-2
1.067527667E0,-1.404261829E-2,9.251907715E-3,2.198553085E-2,2.767953200E-2
1.077564667E0,-1.205948029E-2,-2.803922631E-5,1.973961532E-2,2.313188847E-2
1.087601667E0,-1.981799085E-2,1.457121572E-2,2.198436141E-2,3.299068407E-2
1.097638667E0,-4.069537384E-2,1.305633919E-2,4.294136703E-2,6.058500184E-2
1.107675667E0,-1.117766992E-2,1.024620846E-2,2.932027817E-2,3.300914729E-2
1.117711667E0,-2.378172241E-4,1.174320531E-2,3.455821395E-2,3.649972026E-2
1.127748667E0,-7.205683733E-3,1.403411699E-2,4.264082015E-2,4.546556786E-2
1.137785667E0,-7.544050226E-4,2.137530538E-2,4.802961409E-2,5.257676898E-2
1.147822667E0,1.690192502E-3,1.865769313E-2,1.644587874E-2,2.492856176E-2
1.157859667E0,-1.177881850E-2,2.679199237E-2,3.949677229E-2,4.915838120E-2
1.167896667E0,-3.223168450E-2,-1.074265991E-3,2.273105085E-2,3.945549652E-2
1.177933667E0,-2.709175810E-2,-2.136517782E-5,3.635330915E-2,4.533791901E-2
1.187970667E0,-2.259650094E-2,1.581475861E-2,4.084514022E-2,4.928523028E-2
1.198006667E0,-6.319583883E-3,1.030998423E-2,2.333214462E-2,2.627968584E-2
1.208043667E0,-1.446719924E-3,1.220240816E-3,3.425942123E-2,3.431165879E-2
1.218080667E0,-8.388324212E-3,1.883534342E-2,2.467992783E-2,3.215949288E-2
1.228117667E0,-1.851302479E-2,2.456323019E-2,2.752459824E-2,4.127575406E-2
1.238154667E0,-1.266717045E-3,2.851355884E-2,2.917117417E-2,4.081157939E-2
1.248191667E0,2.443994074E-2,1.043033637E-2,3.470907211E-2,4.371295354E-2
1.258228667E0,2.001995277E-3,1.024487457E-2,3.740346909E-2,3.883278177E-2
1.268264667E0,-2.832549320E-2,3.046866219E-2,2.976875961E-2,5.115517558E-2
1.278301667E0,-1.547645150E-2,1.981341358E-2,3.276194930E-2,4.129693973E-2
1.288338667E0,7.542771148E-4,1.266024972E-2,3.785078108E-2,3.991907421E-2
1.298375667E0,-2.242559322E-2,1.165090609E-2,4.219116926E-2,4.918074428E-2
1.308412667E0,-2.137171939E-2,3.009580626E-2,3.380860090E-2,5.005526385E-2
1.318449667E0,-3.052171196E-2,8.175732242E-3,2.976759017E-2,4.341113824E-2
1.328486667E0,-1.831489555E-2,6.873219274E-3,2.108681381E-2,2.876334922E-2
1.338522667E0,-1.022160904E-2,8.108402467E-3,4.249171615E-2,4.444967292E-2
1.348559667E0,-9.854358220E-3,4.012135999E-2,3.141358137E-2,5.190033716E-2
1.358596667E0,-8.607297870E-3,1.860821107E-2,3.096568465E-2,3.713791488E-2
1.368633667E0,-4.651291030E-3,1.723160292E-2,2.048630476E-2,2.717078081E-2
1.378670667E0,-1.231300734E-2,1.477394509E-2,1.913793683E-2,2.713190427E-2
1.388707667E0,-7.758761812E-3,1.327943788E-2,4.323723614E-2,4.589118046E-2
1.398744667E0,-1.692340440E-2,3.550703432E-3,4.413536847E-2,4.740189723E-2
1.408780667E0,-1.901312619E-2,1.899605049E-3,2.931560040E-2,3.499302635E-2
1.418817667E0,-9.548201663E-3,6.582457339E-4,2.691824198E-2,2.856909508E-2
1.428854667E0,-3.221576454E-2,9.552061739E-3,2.123007059E-2,3.974686485E-2
1.438891667E0,-7.245216393E-3,1.990319118E-2,2.976291239E-2,3.653027695E-2
1.448928667E0,-1.104984430E-2,2.853529403E-2,3.111069560E-2,4.363756920E-2
1.458965667E0,-1.778901159E-3,1.937187571E-2,3.949326396E-2,4.402444725E-2
1.469002667E0,-5.723058251E-3,1.962119093E-2,3.170945048E-2,3.772577076E-2
1.479038667E0,-2.289780613E-2,2.937685455E-2,3.006228983E-2,4.786491804E-2
1.489075667E0,-3.441878070E-2,1.214961420E-2,2.976291239E-2,4.709667232E-2
1.499112667E0,-1.505629708E-2,8.712977157E-3,3.679711282E-2,4.070178823E-2
1.509149667E0,-2.228066450E-2,7.821345292E-3,2.317426980E-2,3.308546861E-2
1.519186667E0,-2.667245792E-2,1.567400973E-2,2.033018410E-2,3.701906236E-2
1.529223667E0,-1.406846025E-2,7.372338516E-3,2.886302590E-2,3.294460826E-2
1.539260667E0,-2.688184306E-3,1.111121722E-2,3.919154763E-2,4.082478278E-2
1.549297667E0,-9.990086714E-3,2.278500969E-2,3.664625466E-2,4.429341350E-2
1.559333667E0,-1.105434392E-2,2.846552944E-2,4.428096414E-2,5.378929885E-2
1.569370958E0,-7.137248470E-3,1.630211947E-2,3.200531960E-2,3.662021159E-2
1.579407958E0,2.287101857E-3,2.605642634E-2,2.062780738E-2,3.331177909E-2
1.589444958E0,-9.021111717E-3,1.257267853E-2,3.215325415E-2,3.568311161E-2
1.599481958E0,-2.186515587E-2,7.636180418E-3,4.068434179E-2,4.681465539E-2
1.609518958E0,-1.973475026E-2,7.872965243E-3,3.020554662E-2,3.692992006E-2
1.619555958E0,-3.130478662E-2,9.479259336E-3,4.382780492E-2,5.468749864E-2
1.629591958E0,-2.193318914E-2,8.075827081E-4,2.930858374E-2,3.661570778E-2
1.639628958E0,-1.451630672E-2,1.638003818E-2,3.379924536E-2,4.026683248E-2
1.649665958E0,-1.532237280E-2,1.229794619E-2,3.155449927E-2,3.717123905E-2
1.659702958E0,-4.182129633E-5,2.222547683E-2,3.125570655E-2,3.835221977E-2
1.669739958E0,-3.958158433E-3,2.411389908E-2,3.335134864E-2,4.134561165E-2
1.679776958E0,1.490619723E-3,1.598074188E-2,2.362216651E-2,2.855893571E-2
1.689813958E0,7.107930165E-3,1.473841412E-2,2.676621437E-2,3.137154369E-2
1.699849958E0,-1.581819842E-2,1.502492768E-2,3.799228370E-2,4.381070045E-2
1.709886958E0,-2.195200073E-2,1.540141528E-2,2.212469459E-2,3.476486788E-2
1.719923958E0,-1.408550853E-2,4.322380582E-3,2.841220558E-2,3.200528004E-2
1.729960958E0,-1.900504058E-2,-2.066168468E-4,3.020847023E-2,3.569013773E-2
1.739997958E0,-1.352132531E-2,1.205443706E-2,3.260524392E-2,3.729929788E-2
1.750034958E0,-2.250940483E-3,8.063881402E-3,3.859513164E-2,3.949274746E-2
1.760071958E0,1.222388298E-2,7.666284442E-3,1.644120097E-2,2.187483306E-2
1.770107958E0,-1.309117581E-2,7.948225304E-3,2.452439189E-2,2.891364673E-2
1.780144958E0,-1.042069760E-3,2.145576855E-2,3.754555643E-2,4.325626799E-2
1.790181958E0,-1.066155264E-2,3.365607537E-2,2.571780860E-2,4.367843625E-2
1.800218958E0,8.384034731E-3,3.366749571E-2,2.930916846E-2,4.541827453E-2
1.810255958E0,-2.081288089E-2,-5.355359749E-3,3.993765235E-2,4.535275035E-2
1.820292958E0,-1.762301005E-2,1.042093971E-2,3.320107520E-2,3.900612595E-2
1.830329958E0,-1.507773535E-2,2.366355841E-2,2.826076269E-2,3.982427410E-2
1.840366958E0,-2.337515820E-4,3.325992194E-3,2.077632666E-2,2.104216275E-2
1.850402958E0,-8.357347674E-3,1.903461927E-2,2.691297948E-2,3.400691776E-2
1.860439958E0,-1.491710594E-2,1.197214664E-2,4.307819188E-2,4.713367119E-2
1.870476958E0,-2.508155388E-2,2.083253302E-2,2.975589573E-2,4.414172751E-2
1.880513958E0,3.945413330E-3,2.471785707E-2,2.795846164E-2,3.752618182E-2
1.890550958E0,-1.637225408E-2,2.078722623E-2,3.125102878E-2,4.094858090E-2
1.900587958E0,-6.772172078E-3,1.604555917E-2,3.948332369E-2,4.315385422E-2
1.910624958E0,-6.963933343E-3,1.860639295E-2,3.229826510E-2,3.791928473E-2
1.920660958E0,-2.795927477E-2,2.333179744E-2,3.499266207E-2,5.050326936E-2
1.930697958E0,-5.436549252E-3,2.423291733E-3,2.631071627E-2,2.697558528E-2
1.940734958E0,7.347483281E-4,-5.919488152E-3,2.885600924E-2,2.946607311E-2
1.950771958E0,-1.506840264E-2,9.885257101E-3,3.170009494E-2,3.646465529E-2
1.960808958E0,-1.338522223E-2,8.526592590E-3,2.900452852E-2,3.306251095E-2
1.970845958E0,-1.158718515E-2,1.790171210E-2,2.885483980E-2,3.587946398E-2
1.980882958E0,-1.516262504E-2,8.538149977E-3,3.020379245E-2,3.485791563E-2
1.990918958E0,-1.662847633E-4,2.467614541E-2,3.993355930E-2,4.694282651E-2
2.000955958E0,-1.152821050E-2,2.104922261E-2,4.696775973E-2,5.274409790E-2
2.010992958E0,-2.052790222E-2,1.972385068E-2,2.750939548E-2,3.958777456E-2
2.021029958E0,-1.244028934E-2,1.590400631E-2,3.080196261E-2,3.683013870E-2
2.031066958E0,-2.433792053E-2,1.112955373E-2,2.646215916E-2,3.763571720E-2
2.041103958E0,4.042664403E-4,8.427253878E-3,4.622107029E-2,4.698477815E-2
2.051140958E0,-1.783549695E-2,1.234675216E-2,3.544289768E-2,4.155413621E-2
2.061176958E0,-2.807078300E-2,1.805150589E-2,3.798702121E-2,5.056520052E-2
2.071213958E0,-2.305616974E-2,-3.088846486E-3,2.331635714E-2,3.293600531E-2
2.081250958E0,5.652549053E-3,4.826077097E-3,2.780643404E-2,2.878263547E-2
2.091287958E0,1.084320461E-2,2.772177732E-2,2.077164888E-2,3.629784320E-2
2.101324958E0,-8.803165890E-4,1.183846010E-2,4.217830539E-2,4.381704623E-2
2.111361958E0,1.481122565E-2,1.189976451E-2,2.361690402E-2,3.031064097E-2
2.121398958E0,-4.208688783E-3,1.783674862E-4,1.762877047E-2,1.812507723E-2
2.131435958E0,-1.230345079E-2,1.534814623E-2,4.487036347E-2,4.899275469E-2
2.141471958E0,-1.802046083E-2,2.264523839E-2,2.675744355E-2,3.941452290E-2
2.151508958E0,-2.163174233E-2,-2.537741843E-3,1.777553558E-2,2.811302323E-2
2.161545958E0,-1.762012755E-3,-9.485280141E-4,3.079728484E-2,3.086222850E-2
2.171582958E0,-9.800609518E-3,8.915496385E-3,6.013744354E-2,6.157962438E-2
2.181619958E0,6.413591579E-3,1.251095386E-2,2.540790617E-2,2.903824753E-2
2.191656958E0,-2.736574127E-2,8.570090393E-3,3.034880340E-2,4.175380357E-2
2.201693958E0,-1.084811079E-2,2.088660149E-2,4.576791108E-2,5.146487456E-2
2.211729958E0,8.435618137E-3,3.408904342E-2,3.424421847E-2,4.904986272E-2
2.221766958E0,-6.754580182E-3,2.762797519E-2,4.023293674E-2,4.927086934E-2
2.231803958E0,3.089403799E-3,6.824733065E-3,2.810873508E-2,2.908990178E-2
2.241840958E0,2.653987231E-3,1.785925127E-2,4.981243014E-2,5.298372109E-2
2.251877958E0,-9.051430444E-3,1.264432062E-2,4.457332492E-2,4.720792869E-2
2.261914958E0,-2.488515139E-2,4.052038221E-3,2.511437595E-2,3.558681853E-2
2.271951958E0,-2.850058533E-2,1.319725709E-3,1.703118503E-2,3.322779414E-2
2.281987958E0,-2.087241742E-2,1.667635497E-2,2.182063937E-2,3.449491161E-2
2.292024958E0,-1.429870807E-2,1.121496876E-2,2.002437472E-2,2.704078696E-2
2.302061958E0,4.024615693E-3,9.233205761E-3,2.152184665E-2,2.376214434E-2
2.312098958E0,7.097939649E-3,1.973497866E-2,2.122188449E-2,2.983652981E-2
2.322135958E0,9.720525504E-3,4.154385965E-2,3.469386935E-2,5.499132169E-2
2.332172958E0,-8.076128578E-3,1.591944204E-2,4.172923923E-2,4.538702341E-2
2.342209958E0,-2.038649553E-2,1.143625846E-2,4.726889133E-2,5.273277250E-2
2.352245958E0,-1.109019009E-2,2.487134648E-2,3.574285984E-2,4.493471065E-2
2.362282958E0,-8.723863028E-4,1.913604105E-2,3.559434056E-2,4.042160567E-2
2.372319958E0,-7.374910377E-3,1.057409108E-2,3.035348117E-2,3.297778835E-2
2.382356958E0,-2.193631374E-2,2.521892691E-2,2.765966892E-2,4.338494462E-2
2.392393958E0,-7.213842426E-3,1.938339198E-2,1.658445776E-2,2.651036866E-2
2.402430958E0,-1.211372692E-2,1.387701418E-2,1.254227757E-2,2.228503151E-2
2.412467958E0,-1.589387875E-2,1.217406287E-2,3.350045264E-2,3.902695883E-2
2.422504958E0,-1.228997936E-2,1.852588410E-2,2.781286597E-2,3.560628439E-2
2.432540958E0,1.048201571E-2,1.704185163E-2,5.026500463E-2,5.410053652E-2
2.442577958E0,-3.060021540E-3,1.840786171E-2,4.128368139E-2,4.530513717E-2
2.452614958E0,-1.050481071E-2,8.622614834E-3,3.724208593E-2,3.964433754E-2
2.462651958E0,-1.842120067E-2,7.196954023E-3,3.364897192E-2,3.903063018E-2
2.472688958E0,-8.847919931E-3,1.478967775E-2,3.933655858E-2,4.294630480E-2
2.482725958E0,-1.816203197E-2,1.796600863E-2,2.182297826E-2,3.359879836E-2
2.492762958E0,-1.155157652E-2,1.063886270E-2,3.529496312E-2,3.863105928E-2
2.502798958E0,-1.447944185E-2,2.087155861E-2,4.322846532E-2,5.013956929E-2
2.512835958E0,-8.245213609E-3,2.370411890E-2,3.200239599E-2,4.066967112E-2
2.522872958E0,-1.183068970E-2,3.326256232E-2,3.215208471E-2,4.775060023E-2
2.532909958E0,9.801810938E-3,2.931682466E-2,2.900862157E-2,4.239164813E-2
2.542946958E0,4.441846507E-3,1.469635528E-2,3.394776464E-2,3.725806735E-2
2.552983958E0,-1.797927907E-2,2.669840494E-2,3.170184910E-2,4.517816440E-2
2.563020042E0,-1.243463399E-2,6.928480030E-3,3.514468968E-2,3.791797952E-2
2.573056042E0,-1.234855658E-2,1.294524210E-2,3.798819065E-2,4.199010326E-2
2.583093042E0,8.868138506E-3,1.266934945E-2,3.439566135E-2,3.771230324E-2
2.593130042E0,-1.257673960E-2,1.618518429E-2,2.616278172E-2,3.323591005E-2
2.603167042E0,-2.159839950E-2,1.039480540E-2,2.062429905E-2,3.162126739E-2
2.613204042E0,-8.776625013E-4,1.632027324E-2,3.394542575E-2,3.767510504E-2
2.623241042E0,5.799615663E-4,1.818826678E-2,3.170067966E-2,3.655246223E-2
2.633278042E0,1.847237294E-2,1.782870870E-2,2.810815036E-2,3.806782806E-2
2.643314042E0,-2.346369327E-2,1.055926748E-2,1.164297581E-2,2.824184691E-2
2.653351042E0,-1.691141304E-2,1.818967834E-2,1.762993991E-2,3.045775879E-2
2.663388042E0,1.717344139E-2,2.043505483E-2,4.352550387E-2,5.105867255E-2
2.673425042E0,-6.223858567E-4,1.368053860E-2,3.170009494E-2,3.453173207E-2
2.683462042E0,-3.397045000E-3,-8.625511033E-4,2.915421724E-2,2.936413275E-2
2.693499042E0,-2.586349564E-2,4.470507000E-3,2.151950777E-2,3.394105263E-2
2.703536042E0,-2.422788324E-2,2.256218966E-2,3.379398286E-2,4.730830800E-2
2.713573042E0,-6.149512134E-3,1.390633249E-2,2.945300996E-2,3.314637806E-2
2.723609042E0,1.924688690E-3,1.610388058E-2,2.870398164E-2,3.296904546E-2
2.733646042E0,1.233296553E-3,-9.296844481E-4,2.526055634E-2,2.530772689E-2
2.743683042E0,-5.778922001E-4,2.078787948E-2,3.663631439E-2,4.212706285E-2
2.753720042E0,1.253716126E-3,8.182310360E-3,3.289468110E-2,3.392023071E-2
2.763757042E0,-3.943599779E-3,7.902278979E-3,2.076872528E-2,2.256851661E-2
2.773794042E0,-1.695829583E-4,2.353606170E-2,3.453833342E-2,4.179559108E-2
2.783831042E0,7.443190324E-3,1.499038343E-2,3.438630581E-2,3.824304780E-2
2.793867042E0,-9.050452863E-3,1.409699283E-2,2.166159511E-2,2.738358279E-2
2.803904042E0,-1.408806669E-2,1.487243869E-3,1.986533046E-2,2.439911621E-2
2.813941042E0,-2.068906153E-2,1.190062788E-2,4.366642177E-2,4.976362729E-2
2.823978042E0,-2.720685689E-2,-3.880130081E-4,3.528385341E-2,4.455686173E-2
2.834015042E0,-1.372931260E-2,5.559687959E-3,3.408517420E-2,3.716454298E-2
2.844052042E0,2.228469816E-3,1.214151490E-2,2.674984217E-2,2.946076234E-2
2.854089042E0,1.443901383E-3,1.080838170E-2,3.378462732E-2,3.550080294E-2
2.864125042E0,3.263929482E-3,1.777665478E-2,1.926482141E-2,2.641582924E-2
2.874162042E0,2.560217078E-3,3.130507898E-3,1.911513269E-2,1.953824682E-2
2.884199042E0,3.636049940E-3,1.403028432E-2,2.420454919E-2,2.821223031E-2
2.894236042E0,-9.623393202E-3,1.941726472E-2,2.645046473E-2,3.419454562E-2
2.904273042E0,-1.042288574E-2,1.985474608E-2,2.719832361E-2,3.525047938E-2
2.914310042E0,-1.280012151E-2,1.533843437E-3,3.318587244E-2,3.560193697E-2
2.924347042E0,-1.075365085E-2,5.313972426E-3,4.231805384E-2,4.398519058E-2
2.934384042E0,3.369426043E-3,2.163800981E-2,2.510326624E-2,3.331261738E-2
2.944420042E0,-1.167517204E-2,2.372397659E-2,3.004299402E-2,4.002147170E-2
2.954457042E0,-1.817144690E-2,6.860067607E-3,2.375665247E-2,3.068616214E-2
2.964494042E0,-1.642021495E-2,7.795032822E-3,2.839758754E-2,3.371659790E-2
2.974531042E0,2.156617586E-2,3.936268833E-2,2.764914393E-2,5.271618664E-2
2.984568042E0,1.943518552E-3,2.223416086E-2,3.378579676E-2,4.049216265E-2
2.994605042E0,-2.297950726E-2,7.368245465E-3,2.196155727E-2,3.262910960E-2
3.004642042E0,-1.238119135E-2,1.678361940E-2,2.211124599E-2,3.039557499E-2
3.014678042E0,-1.402535987E-2,-1.400759895E-3,2.794852138E-2,3.130164045E-2
3.024715042E0,-1.268431010E-2,8.315471560E-3,3.423603237E-2,3.744522269E-2
3.034752042E0,-1.655138444E-2,1.448456730E-2,3.049439907E-2,3.759866210E-2
3.044789042E0,-8.911878420E-3,7.737350953E-3,3.827821255E-2,4.005633199E-2
3.054826042E0,-2.782310774E-3,1.267997950E-2,2.630194545E-2,2.933113479E-2
3.064863042E0,4.903086754E-3,2.463675893E-2,4.187015712E-2,4.882745342E-2
3.074900042E0,-9.549138132E-3,2.939270598E-2,3.917751431E-2,4.989984802E-2
3.084936042E0,-2.228955409E-2,5.607831557E-3,1.552786589E-2,2.773781922E-2
3.094973042E0,-1.340108737E-4,9.956095205E-3,2.585755706E-2,2.770839309E-2
3.105010042E0,-2.548780746E-2,-4.995212378E-4,2.525763273E-2,3.588629072E-2
3.115047042E0,-1.291403258E-2,1.577120599E-2,3.588611662E-2,4.127125564E-2
3.125084042E0,-1.684871079E-2,2.667519424E-2,3.573701262E-2,4.767157554E-2
3.135121042E0,-2.107095780E-2,9.448785293E-3,4.531709075E-2,5.086161146E-2
3.145158042E0,-2.067609259E-2,1.914208927E-2,3.319288909E-2,4.353950244E-2
3.155195042E0,7.184405350E-3,2.089493377E-3,2.226561248E-2,2.348912859E-2
3.165231042E0,-1.266018576E-2,2.248066668E-2,2.421098113E-2,3.538124200E-2
3.175268042E0,-1.569840359E-3,1.901754357E-2,2.989915252E-2,3.546957405E-2
3.185305042E0,7.776691751E-3,1.540189950E-2,3.573759735E-2,3.968464825E-2
3.195342042E0,-4.860205650E-3,1.755695935E-2,3.873254120E-2,4.280278226E-2
3.205379042E0,-1.590154865E-3,1.412926672E-2,3.633869112E-2,3.902134342E-2
3.215416042E0,6.857943423E-3,2.365157618E-3,4.367226899E-2,4.427067243E-2
3.225453042E0,-3.139986782E-3,1.323352353E-2,3.723623872E-2,3.964244109E-2
3.235489042E0,-8.284029071E-3,1.497051203E-2,3.005059540E-2,3.458004702E-2
3.245526042E0,-1.388314462E-2,6.795565509E-3,2.166744232E-2,2.661577487E-2
3.255563042E0,-7.341850768E-3,1.013832734E-2,4.142635345E-2,4.327621996E-2
3.265600042E0,-1.968569303E-2,6.310100430E-3,4.037911713E-2,4.536316763E-2
3.275637042E0,-4.305400816E-3,-8.132883115E-4,2.181654632E-2,2.225218208E-2
3.285674042E0,-1.275492436E-3,6.936455998E-3,2.466004729E-2,2.564876674E-2
3.295711042E0,4.685291676E-3,2.845746668E-2,4.262386322E-2,5.146428940E-2
3.305747042E0,-1.117796685E-2,9.146543629E-3,3.034938812E-2,3.361088459E-2
3.315784042E0,-2.142451792E-3,4.798444435E-3,3.199596405E-2,3.242463391E-2
3.325821042E0,-3.322981792E-3,2.700111712E-3,3.259238005E-2,3.287242079E-2
3.335858042E0,-1.808938032E-2,5.613733591E-3,3.049732268E-2,3.590022807E-2
3.345895042E0,-2.256418593E-2,1.426351514E-2,4.860965788E-2,5.545709324E-2
3.355932042E0,-7.990206485E-3,1.244305763E-2,4.142459929E-2,4.398488956E-2
3.365969042E0,-2.448781481E-2,6.811983394E-3,4.816000700E-2,5.445587633E-2
3.376006042E0,4.758761027E-3,1.565394647E-2,4.037619352E-2,4.356522524E-2
3.386042042E0,4.784397413E-3,1.804462628E-2,2.331109464E-2,2.986479749E-2
3.396079042E0,-1.864449578E-2,1.046316757E-2,2.181479216E-2,3.054472549E-2
3.406116042E0,-8.718952280E-3,2.296247268E-2,1.462973356E-2,2.858888568E-2
3.416153042E0,-1.689608237E-2,1.668953862E-2,3.004708707E-2,3.829942219E-2
3.426190042E0,1.881496953E-3,1.927823803E-2,2.376074553E-2,3.065556263E-2
3.436227042E0,-2.881311444E-3,1.253906617E-2,2.420864224E-2,2.741511436E-2
3.446264042E0,-2.076100512E-2,4.852330182E-3,4.082409024E-2,4.605616990E-2
3.456300042E0,-6.413221559E-3,1.751256620E-2,3.303793788E-2,3.793843335E-2
3.466337042E0,-7.244896623E-3,2.515846304E-2,3.228890955E-2,4.156934531E-2
3.476374042E0,-3.528584512E-3,8.575430545E-3,3.198953211E-2,3.330644206E-2
3.486411042E0,-1.780940375E-2,3.844142295E-3,3.962365687E-2,4.361176992E-2
3.496448042E0,-1.255931673E-3,1.781247811E-2,3.947396815E-2,4.332500320E-2
3.506485042E0,-1.909696064E-3,1.261266800E-2,2.195980310E-2,2.539604862E-2
3.516522042E0,-1.750587844E-3,4.669938167E-3,3.348583460E-2,3.385519161E-2
3.526559042E0,-1.366965730E-2,1.658760063E-2,3.662637413E-2,4.246762658E-2
3.536595042E0,2.045885939E-3,7.215793021E-3,3.393022299E-2,3.474929280E-2
3.546632042E0,2.305730721E-3,1.949514232E-2,4.111586630E-2,4.556195156E-2
3.556669042E0,1.951310880E-2,2.149520071E-2,2.599730551E-2,3.897005212E-2
3.566705917E0,-4.356015776E-3,1.349949419E-2,2.794325888E-2,3.133746853E-2
3.576742917E0,4.380295426E-4,1.088158153E-2,4.201399863E-2,4.340249725E-2
3.586779917E0,-1.925027189E-2,1.260797196E-2,2.360228598E-2,3.296364404E-2
3.596816917E0,-1.752310032E-3,1.206075480E-2,2.809294760E-2,3.062264035E-2
3.606852917E0,-1.853649588E-3,1.325733723E-2,3.902022421E-2,4.125252604E-2
3.616889917E0,-1.485110549E-3,1.053081255E-2,2.704571128E-2,2.906155648E-2
3.626926917E0,-1.156258116E-2,1.578609355E-2,2.959041953E-2,3.547515977E-2
3.636963917E0,-9.280047440E-3,1.510072222E-2,2.884256065E-2,3.385327749E-2
3.647000917E0,2.532940730E-3,-1.550380094E-3,4.321209311E-2,4.331402150E-2
3.657037917E0,-1.659888393E-2,5.074793897E-3,2.150722861E-2,2.763760777E-2
3.667074917E0,1.526175819E-2,4.133209451E-3,2.240594566E-2,2.742318516E-2
3.677110917E0,1.365964394E-4,1.614635512E-2,3.228657067E-2,3.609911478E-2
3.687147917E0,-1.771121621E-3,1.218305297E-2,4.276302695E-2,4.449988905E-2
3.697184917E0,-1.573015671E-2,6.652171682E-3,2.644578695E-2,3.148124625E-2
3.707221917E0,-5.344642899E-3,1.787055284E-5,2.659664512E-2,2.712834419E-2
3.717258917E0,-6.127014058E-4,1.316182205E-2,3.018917441E-2,3.293926554E-2
3.727295917E0,1.203039039E-2,1.252598760E-2,3.078675985E-2,3.534763416E-2
3.737332917E0,-5.873528123E-4,1.172057932E-2,2.075820029E-2,2.384575103E-2
3.747369917E0,2.895696508E-4,-6.694742152E-4,3.916874349E-2,3.917553462E-2
3.757405917E0,-1.359949985E-2,2.044705532E-2,3.512714803E-2,4.285959632E-2
3.767442917E0,-2.268635163E-2,1.838707211E-2,3.467632771E-2,4.533434321E-2
3.777479917E0,-9.228491443E-3,5.921488996E-3,4.305831134E-2,4.443250231E-2
3.787516917E0,-1.264860097E-2,-1.570306309E-3,3.766951740E-2,3.976739254E-2
3.797553917E0,1.630550902E-4,1.611236818E-3,3.317944050E-2,3.321893952E-2
3.807590917E0,-2.530958159E-3,1.178906484E-2,3.931609333E-2,4.112350901E-2
3.817627917E0,4.406365785E-3,1.105249839E-2,3.991484821E-2,4.165055687E-2
3.827663917E0,-1.968844305E-3,4.697712441E-3,4.066329181E-2,4.098107064E-2
3.837700917E0,-8.935824595E-4,1.601502118E-2,2.733924150E-2,3.169721627E-2
3.847737917E0,4.370748019E-3,1.184759638E-2,2.973367631E-2,3.230418681E-2
3.857774917E0,-4.317163769E-4,7.257934087E-3,3.617146075E-2,3.689496658E-2
3.867811917E0,-8.150991211E-3,6.271846849E-3,3.811741412E-2,3.948052659E-2
3.877848917E0,-1.101761609E-3,-4.964605859E-3,3.572356403E-2,3.608371124E-2
3.887885917E0,-7.270839075E-3,-1.037181853E-3,4.620060503E-2,4.678073057E-2
3.897921917E0,1.452005259E-3,1.459798501E-2,4.470313311E-2,4.704869387E-2
3.907958917E0,-4.581211237E-3,1.392036124E-2,4.440258622E-2,4.675846037E-2
3.917995917E0,-4.184007137E-3,1.753605099E-2,4.080947220E-2,4.461425805E-2
3.928032917E0,-5.630562608E-3,1.263647256E-2,3.646791458E-2,3.900374941E-2
3.938069917E0,6.236923439E-4,1.260233031E-2,4.574919999E-2,4.745731788E-2
3.948106917E0,-2.669057515E-3,1.378289228E-2,5.398207963E-2,5.577774564E-2
3.958143917E0,-2.463061935E-3,1.845974204E-2,2.374320388E-2,3.017562726E-2
3.968180917E0,-5.457178960E-3,1.242490386E-2,1.715631545E-2,2.187460166E-2
3.978216917E0,-9.925041008E-3,1.585257822E-3,2.553946853E-2,2.744601855E-2
3.988253917E0,-1.719937928E-2,9.275401644E-3,4.065919876E-2,4.511121997E-2
3.998290917E0,1.328676060E-2,2.386358343E-3,3.631939530E-2,3.874701522E-2
4.008327917E0,1.056995235E-2,1.581352978E-2,4.140822709E-2,4.556789316E-2
4.018364917E0,-1.488878806E-2,1.596982860E-2,2.569208086E-2,3.371638257E-2
4.028401917E0,8.540698998E-3,8.444795525E-3,3.617029130E-2,3.811230882E-2
4.038438917E0,8.270196752E-3,1.321986937E-3,2.853616655E-2,2.973981515E-2
4.048474917E0,-5.171177024E-4,1.432608948E-3,2.823678911E-2,2.827783652E-2
4.058511917E0,-1.234101915E-2,9.502716721E-3,3.916348100E-2,4.214713066E-2
4.068548917E0,-5.501878182E-3,3.216950758E-3,4.006161332E-2,4.056540765E-2
4.078585917E0,-9.822394964E-3,1.542338345E-2,3.422316849E-2,3.880187446E-2
4.088622917E0,-8.007547134E-3,1.359798322E-2,1.820589066E-2,2.409316113E-2
4.098659917E0,1.195799455E-2,1.623852643E-2,4.544806838E-2,4.972132635E-2
4.108696917E0,-9.347135103E-3,1.922939551E-2,4.320156813E-2,4.820284302E-2
4.118733917E0,-9.071964221E-3,1.393557770E-2,3.092650831E-2,3.511338458E-2
4.128769917E0,-6.708177044E-3,1.757538265E-2,3.002837598E-2,3.543440530E-2
4.138806917E0,-5.542201130E-3,2.101807248E-2,1.206631422E-2,2.486103986E-2
4.148843917E0,1.261590681E-2,1.061184217E-2,2.209545851E-2,2.756776352E-2
4.158880917E0,-3.053050563E-3,8.337074281E-3,2.478868604E-2,2.633072123E-2
4.168917917E0,3.137337263E-3,5.497328318E-3,2.613588452E-2,2.689141059E-2
4.178954917E0,-6.727765216E-3,2.539894806E-2,3.182405591E-2,4.126911584E-2
4.188991917E0,-5.065712440E-3,3.939068187E-3,2.314152539E-2,2.401474335E-2
4.199027917E0,-5.738663008E-3,5.500658490E-3,3.930673778E-2,4.010248286E-2
4.209064917E0,6.471140971E-3,3.438149099E-3,4.529487133E-2,4.588378694E-2
4.219101917E0,-2.014638053E-2,1.296878171E-2,3.721051097E-2,4.425706807E-2
4.229138917E0,1.256991480E-3,1.364528629E-2,3.571420848E-2,3.825282412E-2
4.239175917E0,2.501484537E-3,8.630677597E-3,3.616385937E-2,3.726353103E-2
4.249212917E0,-9.650381757E-3,1.519035364E-2,3.421849072E-2,3.866240834E-2
4.259249917E0,-2.530583572E-3,2.549835986E-2,2.179491162E-2,3.363909008E-2
4.269285917E0,-4.003647943E-3,2.803739905E-4,3.062654614E-2,3.088839807E-2
4.279322917E0,-1.086015240E-3,3.445394165E-3,3.137440503E-2,3.158169503E-2
4.289359917E0,-6.698780386E-3,5.934933024E-3,1.610557079E-2,1.842515941E-2
4.299396917E0,1.198594698E-2,1.790629394E-2,3.601300120E-2,4.196706499E-2
4.309433917E0,5.490160910E-3,1.254034525E-2,2.583358347E-2,2.923655522E-2
4.319470917E0,-3.824942415E-3,9.963970673E-3,3.227078319E-2,3.398991532E-2
4.329507917E0,7.707831650E-3,9.358089496E-3,3.002428293E-2,3.237965524E-2
4.339544917E0,4.697040925E-3,1.974458089E-2,1.999513865E-2,2.849063420E-2
4.349580917E0,6.712137619E-3,9.944862155E-3,2.897821605E-2,3.136383395E-2
4.359617917E0,1.144503385E-2,5.973935779E-3,4.080596387E-2,4.279957238E-2
4.369654917E0,-9.348692838E-3,1.049134841E-2,3.736253858E-2,3.991773714E-2
4.379691917E0,6.468413793E-3,-1.347207623E-3,2.359176099E-2,2.449952106E-2
4.389728917E0,-1.119179917E-2,6.928498303E-3,3.362324417E-2,3.610793549E-2
4.399765917E0,-1.431506657E-2,-3.730825083E-3,1.057468951E-2,1.818417567E-2
4.409802917E0,-3.122331389E-2,3.190591236E-2,-1.826559073E-1,1.880320798E-1
4.419838917E0,7.437455028E-2,-1.618986206E-2,2.946914828E-1,3.043628680E-1
4.429875917E0,-3.945259383E-2,5.453185951E-2,3.408517420E-2,7.544554302E-2
4.439912917E0,-8.733253291E-2,3.591673228E-2,-1.064473915E-1,1.422955731E-1
4.449949917E0,8.870611696E-2,-9.235700877E-2,3.402056247E-1,3.635085409E-1
4.459986917E0,7.505513420E-2,-8.343317097E-2,7.088462591E-2,1.327365714E-1
4.470023917E0,-2.768755740E-2,-2.123599090E-2,2.672610247E-1,2.695292627E-1
4.480060917E0,7.058777008E-1,-1.114191986E0,-8.225979924E-2,1.321534632E0
4.490097917E0,1.226948742E0,-1.179288161E0,-1.265538027E0,2.120780582E0
4.500133917E0,4.584466309E-1,9.095900895E-1,7.045912403E-1,1.238537953E0
4.510170917E0,4.840078438E-3,1.394661798E0,1.361611873E-1,1.401301119E0
4.520207917E0,-9.733094642E-1,1.367354131E0,2.379232049E-2,1.678557329E0
4.530244917E0,-2.161368448E0,8.184494660E-1,7.828895509E-2,2.312466704E0
4.540281917E0,-1.538882641E0,-5.300178661E-1,7.929216188E-1,1.810470495E0
4.550318917E0,1.058418027E0,-6.052496045E-1,3.971732926E-1,1.282311362E0
4.560355917E0,1.729506074E-1,-3.174559359E-1,-8.003966993E-1,8.782511372E-1
4.570392292E0,-8.067511609E-1,-7.919038378E-1,1.881920511E-1,1.146025904E0
4.580429292E0,-1.050595549E-1,-1.845402748E0,1.023863248E0,2.113017928E0
4.590466292E0,2.986549448E-2,-9.852338373E-1,9.823322296E-4,9.856868807E-1
4.600503292E0,4.733923334E-1,1.607806147E-1,5.816225410E-3,4.999845356E-1
4.610540292E0,5.125091463E-1,1.226401881E0,3.126985681E-1,1.365469734E0
4.620577292E0,-1.450672642E-1,1.347021754E0,1.225015653E0,1.826520043E0
4.630614292E0,-1.727041290E-1,4.123635184E-1,4.637005734E-1,6.441184745E-1
4.640650292E0,1.468354622E-1,1.076344128E-1,-9.704612124E-1,9.873908975E-1
4.650687292E0,3.129499253E-1,5.953208131E-1,-1.042623455E0,1.240728897E0
4.660724292E0,3.988292972E-1,2.335241618E-1,-2.874321645E-1,5.442569170E-1
4.670761292E0,-4.558385169E-1,-7.913829971E-2,5.015525240E-1,6.823536900E-1
4.680798292E0,-9.792492121E-1,3.586505934E-1,6.084279317E-1,1.207370621E0
4.690835292E0,-4.478937588E-1,2.136408877E-1,2.844383901E-1,5.719759137E-1
4.700872292E0,-5.782462855E-1,1.620917980E-1,-1.470594617E0,1.588487030E0
4.710909292E0,9.102231967E-1,3.029232661E-1,-1.301531732E-1,9.680953577E-1
4.720945292E0,1.293487718E0,1.205009551E-1,7.487593532E-2,1.301244543E0
4.730982292E0,1.250604092E0,9.028758779E-2,5.526934415E-1,1.370267304E0
4.741019292E0,-1.124502893E-1,3.726289837E-1,1.156088675E0,1.219851815E0
4.751056292E0,-1.497792941E0,6.867836912E-1,1.172425795E0,2.022285286E0
4.761093292E0,-2.122105418E0,1.631010640E-1,7.446107537E-1,2.254856656E0
4.771130292E0,-1.748329175E0,-9.578334924E-1,1.136195862E-1,1.996749687E0
4.781167292E0,-5.203280796E-1,-7.478917725E-1,-1.606583896E0,1.846942129E0
4.791203292E0,9.557545879E-1,-5.566458304E-1,-1.898306748E0,2.197018416E0
4.801240292E0,1.997630915E0,-1.003722587E0,-1.033783050E0,2.463066320E0
4.811277292E0,1.175841008E0,-5.785125166E-1,-4.260287172E-1,1.377962001E0
4.821314292E0,2.809119344E-1,4.402322618E-1,9.673423076E-1,1.099303006E0
4.831351292E0,-6.441592433E-1,1.178751898E0,1.315111890E0,1.879871392E0
4.841388292E0,-6.616986244E-1,1.026569193E0,1.703664633E0,2.096225789E0
4.851425292E0,-1.291748902E0,5.844966667E-1,1.880327729E0,2.354970052E0
4.861462292E0,-8.678320527E-1,2.062679873E-1,2.163334136E0,2.340019987E0
4.871498292E0,-2.593558815E-1,-2.207175536E-1,1.840377213E0,1.871622290E0
4.881535292E0,7.738892242E-2,-3.833645082E-1,9.199067706E-1,9.995928461E-1
4.891572292E0,6.910603447E-1,-2.176744433E-1,-9.856242120E-2,7.312052476E-1
4.901609292E0,1.206552485E0,1.558241310E-1,-6.322179133E-1,1.371039587E0
4.911646292E0,8.689731368E-1,1.638955544E-1,-8.301894325E-1,1.212926444E0
4.921683292E0,6.284186849E-1,1.024761088E-1,-2.171509713E-1,6.727302139E-1
4.931720292E0,3.438291442E-1,-9.377384394E-2,-7.147285581E-2,3.634836769E-1
4.941756292E0,-3.479268730E-1,-2.464310864E-1,4.876285493E-1,6.477368226E-1
4.951793292E0,-1.924819193E0,3.905501880E-1,1.070001873E0,2.236596160E0
4.961830292E0,-2.830817192E0,5.967056530E-1,1.617144552E0,3.314323477E0
4.971867292E0,-2.054614224E0,6.336481422E-2,2.474372680E0,3.216826832E0
4.981904292E0,4.962999701E-2,-4.038094804E-1,3.438025979E0,3.462015001E0
4.991941292E0,2.665848819E0,-2.859876099E-1,4.092055761E0,4.892183479E0
5.001978292E0,4.351746395E0,9.864974571E-3,4.552459674E0,6.297831618E0
5.012015292E0,4.339549396E0,9.788408937E-2,5.227706662E0,6.794864767E0
5.022051292E0,3.278166611E0,-5.127650716E-1,6.211059231E0,7.041772584E0
5.032088292E0,3.036115857E0,-8.833818457E-1,7.145239055E0,7.813629383E0
5.042125292E0,4.032934271E0,-4.800405445E-1,7.413784713E0,8.453354454E0
5.052162292E0,4.785869121E0,-9.446518949E-1,7.270477644E0,8.755384378E0
5.062199292E0,4.003009098E0,-2.568461688E0,6.684933960E0,8.204231794E0
5.072236292E0,2.627425303E0,-3.240977150E0,5.730135099E0,7.088141143E0
5.082273292E0,2.029068908E0,-2.346279334E0,4.271244269E0,5.278794839E0
5.092309292E0,1.993145370E0,-1.573256814E0,3.577736426E0,4.387250095E0
5.102346292E0,2.477593618E0,-1.385896821E0,3.864431841E0,4.795103085E0
5.112383292E0,3.055073407E0,-1.417479387E0,4.589411153E0,5.692575522E0
5.122420292E0,3.304258057E0,-1.437411376E0,5.737975046E0,6.775590779E0
5.132457292E0,3.517213066E0,-1.515676065E0,6.603088143E0,7.633402565E0
5.142494292E0,3.653163461E0,-1.977820110E0,6.495442073E0,7.710262212E0
5.152531292E0,3.269045832E0,-2.862495067E0,5.327269542E0,6.874615585E0
5.162567292E0,2.305447204E0,-3.723198195E0,3.690205865E0,5.726684113E0
5.172604292E0,1.109002801E0,-4.553020422E0,2.258008744E0,5.201777164E0
5.182641292E0,5.788227479E-1,-4.263100267E0,5.812670302E-1,4.341305221E0
5.192678292E0,4.065526651E-1,-3.858175905E0,-7.585423297E-1,3.952997957E0
5.202715292E0,-2.062655023E-1,-3.876911554E0,-1.639715974E0,4.214458106E0
5.212752292E0,-5.015145171E-1,-3.007166292E0,-2.239968914E0,3.783123928E0
5.222789292E0,-1.158859670E-1,-1.685321333E0,-2.476299922E0,2.997632208E0
5.232826292E0,2.796523710E-1,-1.244597978E0,-2.312395450E0,2.640909369E0
5.242862292E0,1.126914138E-1,-1.525388875E0,-1.900076115E0,2.439221150E0
5.252899292E0,-7.317651518E-2,-1.751687230E0,-1.177550295E0,2.111962986E0
5.262936292E0,1.329940429E-1,-1.772455956E0,-4.692735547E-1,1.838343058E0
5.272973292E0,-1.492999174E-1,-2.282422623E0,5.550469458E-2,2.287973834E0
5.283010292E0,-8.587122235E-1,-2.563634520E0,1.833283371E-1,2.709837248E0
5.293047292E0,-1.295159729E0,-2.202426866E0,-7.811909348E-2,2.556213100E0
5.303084292E0,-1.296814198E0,-2.203695711E0,-4.209460250E-1,2.591369794E0
5.313120292E0,-1.497247542E0,-2.769103923E0,-1.008676567E0,3.305618725E0
5.323157292E0,-1.887998837E0,-2.970359239E0,-1.566326986E0,3.852395858E0
5.333194292E0,-2.231090502E0,-2.529359896E0,-2.090731013E0,3.968196376E0
5.343231292E0,-2.374047323E0,-2.439581162E0,-2.360564228E0,4.142453429E0
5.353268292E0,-2.551087272E0,-2.626135992E0,-1.979848509E0,4.162263403E0
5.363305292E0,-3.230161848E0,-2.930360191E0,-1.312260788E0,4.554446705E0
5.373342292E0,-4.194737545E0,-2.995625643E0,-6.534824824E-1,5.195828656E0
5.383379292E0,-4.369286873E0,-2.435048985E0,-2.233037040E-1,5.006994695E0
5.393415292E0,-4.245572069E0,-2.026960695E0,-3.830370641E-1,4.720187416E0
5.403452292E0,-4.526096333E0,-2.391322922E0,-1.010939147E0,5.217851214E0
5.413489292E0,-4.952166565E0,-2.811145404E0,-1.664289483E0,5.932651317E0
5.423526292E0,-5.101724893E0,-3.010926636E0,-1.979704667E0,6.245999253E0
5.433563292E0,-4.953548262E0,-2.983908407E0,-1.888771693E0,6.083486523E0
5.443600292E0,-4.741519452E0,-2.771260377E0,-1.635918646E0,5.730455532E0
5.453637292E0,-5.126928731E0,-2.780872030E0,-1.241529359E0,5.963224179E0
5.463673292E0,-5.959855830E0,-2.914080373E0,-8.820127201E-1,6.692510170E0
5.473710292E0,-7.272906577E0,-2.969528350E0,-8.588390350E-1,7.902586487E0
5.483747292E0,-8.670937833E0,-3.027095357E0,-8.269706865E-1,9.221298700E0
5.493784292E0,-9.322794204E0,-2.908543645E0,-5.324157362E-1,9.780469540E0
5.503821292E0,-9.179580106E0,-2.711762618E0,1.866138875E-2,9.571765546E0
5.513858292E0,-8.658261069E0,-2.718291619E0,6.398087686E-1,9.097469391E0
5.523895292E0,-8.020888835E0,-2.801495159E0,1.084527453E0,8.565000445E0
5.533931292E0,-7.420984390E0,-3.052415555E0,1.308335552E0,8.130190155E0
5.543968292E0,-7.042926230E0,-3.454558396E0,1.288320533E0,7.949625990E0
5.554005292E0,-6.638828080E0,-3.769336234E0,1.318075406E0,7.747209607E0
5.564042708E0,-6.143166625E0,-3.933337770E0,1.348664968E0,7.418122363E0
5.574079708E0,-5.759253064E0,-3.937742477E0,1.491302531E0,7.134339136E0
5.584116708E0,-5.304018089E0,-3.845148309E0,1.660108724E0,6.758234561E0
5.594153708E0,-4.804082905E0,-3.887955775E0,1.792582072E0,6.434964114E0
5.604190708E0,-4.144451783E0,-3.872755938E0,1.818677611E0,5.956702728E0
5.614226708E0,-3.339121788E0,-3.806843784E0,1.841239092E0,5.388130966E0
5.624263708E0,-2.799459159E0,-3.828664423E0,1.972942362E0,5.136939207E0
5.634300708E0,-2.289234629E0,-4.030583982E0,2.291172397E0,5.170655024E0
5.644337708E0,-1.971953014E0,-4.210381186E0,2.616167659E0,5.334814115E0
5.654374708E0,-2.014418125E0,-4.239647670E0,2.939135692E0,5.538141508E0
5.664411708E0,-2.008030626E0,-4.107557314E0,3.168518454E0,5.562708268E0
5.674448708E0,-1.872721086E0,-4.020906841E0,3.083982918E0,5.402381579E0
5.684484708E0,-1.491139102E0,-4.087092644E0,2.744742669E0,5.144067886E0
5.694521708E0,-7.232742637E-1,-4.284952481E0,2.192115301E0,4.867166827E0
5.704558708E0,2.205382633E-1,-4.506830342E0,1.768883307E0,4.846555995E0
5.714595708E0,1.255904739E0,-4.443780400E0,1.675841242E0,4.912527336E0
5.724632708E0,2.130101486E0,-4.248103913E0,1.856800872E0,5.102100418E0
5.734669708E0,2.624208750E0,-4.066299945E0,2.206716968E0,5.318915922E0
5.744706708E0,3.326752295E0,-3.959720407E0,2.375666417E0,5.691261500E0
5.754743708E0,4.145576495E0,-4.124558094E0,2.483130054E0,6.353244747E0
5.764779708E0,4.976735396E0,-4.279684140E0,2.125246543E0,6.899294486E0
5.774816708E0,6.268661907E0,-4.125963764E0,1.485453562E0,7.650246491E0
5.784853708E0,7.503952287E0,-3.993285179E0,8.009562778E-1,8.537983216E0
5.794890708E0,7.899579576E0,-3.940239823E0,2.958539093E-1,8.832687975E0
5.804927708E0,7.771484622E0,-3.772249902E0,-2.338394364E-1,8.641789366E0
5.814964708E0,7.501484762E0,-3.696232590E0,-7.095806694E-1,8.392729813E0
5.825001708E0,7.238819649E0,-3.698427050E0,-1.191468422E0,8.215745222E0
5.835037708E0,7.270640781E0,-3.615348056E0,-1.738419313E0,8.303918391E0
5.845074708E0,7.929757056E0,-3.659712051E0,-2.221671807E0,9.011679359E0
5.855111708E0,8.604167892E0,-3.776373943E0,-2.498839184E0,9.723008924E0
5.865148708E0,9.106649539E0,-3.340586223E0,-2.373196553E0,9.986122572E0
5.875185708E0,9.206407131E0,-2.694857149E0,-1.936725293E0,9.786270596E0
5.885222708E0,9.120304542E0,-2.816166408E0,-1.424510372E0,9.650905552E0
5.895259708E0,8.900587812E0,-3.254432178E0,-1.127033275E0,9.543688815E0
5.905295708E0,8.140397737E0,-3.115679505E0,-1.152814819E0,8.792184945E0
5.915332708E0,7.331729566E0,-3.130092891E0,-1.200710605E0,8.061851270E0
5.925369708E0,7.269560800E0,-3.493634169E0,-1.213798939E0,8.156304420E0
5.935406708E0,7.131862380E0,-3.245331572E0,-1.330278983E0,7.947658787E0
5.945443708E0,7.010552536E0,-3.144432603E0,-1.365045358E0,7.803758843E0
5.955480708E0,7.002514368E0,-3.294545832E0,-1.336996264E0,7.853457756E0
5.965517708E0,6.976005431E0,-3.190418615E0,-1.294267151E0,7.779366952E0
5.975554708E0,7.006326753E0,-3.021367425E0,-1.192663447E0,7.722675817E0
5.985590708E0,6.858019729E0,-3.006224306E0,-9.255018251E-1,7.544956780E0
5.995627708E0,6.945556056E0,-3.158492233E0,-5.752490028E-1,7.651649072E0
6.005664708E0,7.157825187E0,-3.303591474E0,-2.499451534E-1,7.887372859E0
6.015701708E0,6.742583413E0,-3.109158690E0,1.202876779E-1,7.425884996E0
6.025738708E0,6.303964471E0,-3.037357221E0,5.525221181E-1,7.019315325E0
6.035775708E0,6.417953017E0,-3.324330963E0,7.602597300E-1,7.267688225E0
6.045812708E0,6.253728118E0,-3.534008608E0,7.082722087E-1,7.218031708E0
6.055848708E0,5.654326533E0,-3.811733226E0,6.275312237E-1,6.847956933E0
6.065885708E0,5.016190068E0,-4.069813537E0,5.085263519E-1,6.479517272E0
6.075922708E0,4.706902766E0,-4.085535530E0,3.064186585E-1,6.240226487E0
6.085959708E0,4.586965848E0,-4.074156849E0,2.575044338E-1,6.140465638E0
6.095996708E0,4.507767066E0,-4.050301378E0,4.007938886E-1,6.073346764E0
6.106033708E0,4.461330233E0,-3.898574903E0,6.610474639E-1,5.961487857E0
6.116070708E0,4.270156687E0,-4.003844081E0,1.037865429E0,5.944928107E0
6.126106708E0,3.962484970E0,-4.140234479E0,1.499854084E0,5.923883097E0
6.136143708E0,3.604233084E0,-4.325421646E0,2.074201666E0,6.000173421E0
6.146180708E0,3.110929227E0,-4.614435482E0,2.656980640E0,6.166882648E0
6.156217708E0,2.471681206E0,-4.727208976E0,3.072631134E0,6.156035638E0
6.166254708E0,2.041777832E0,-4.791977999E0,3.427132616E0,6.235154194E0
6.176291708E0,1.764784409E0,-4.964578450E0,3.710120312E0,6.444105518E0
6.186328708E0,8.959176913E-1,-5.290259006E0,3.817458819E0,6.585020934E0
6.196365708E0,-1.071766270E0,-5.617288515E0,3.752807325E0,6.840042106E0
6.206401708E0,-2.591695600E0,-5.029700645E0,3.840894459E0,6.838658122E0
6.216438708E0,-1.491125507E0,-4.718356876E0,3.536843923E0,6.082401814E0
6.226475708E0,-6.599022867E-1,-4.643132447E0,2.965449332E0,5.548697116E0
6.236512708E0,-6.661083752E-1,-4.220246608E0,2.599089696E0,5.000944816E0
6.246549708E0,-6.254875488E-1,-4.086212053E0,2.425536150E0,4.792868581E0
6.256586708E0,-8.681631513E-1,-4.030336061E0,2.397772400E0,4.769342565E0
6.266623708E0,-1.819616381E0,-3.701115015E0,2.406575968E0,4.775025028E0
6.276659708E0,-2.781816355E0,-3.229647000E0,2.532180008E0,4.957928758E0
6.286696708E0,-3.209286411E0,-3.065211602E0,2.915995921E0,5.310185839E0
6.296733708E0,-3.524229725E0,-3.247202681E0,3.288579333E0,5.811994015E0
6.306770708E0,-4.344760727E0,-3.422070681E0,3.415482624E0,6.500233463E0
6.316807708E0,-5.087065338E0,-2.991076509E0,3.120294127E0,6.675403200E0
6.326844708E0,-5.223800722E0,-2.399166961E0,2.677002676E0,6.341170193E0
6.336881708E0,-5.314661776E0,-2.047624170E0,2.351330305E0,6.161748838E0
6.346917708E0,-5.365788660E0,-1.854619861E0,1.920960031E0,5.993445604E0
6.356954708E0,-5.199837663E0,-1.629409672E0,1.437825651E0,5.635657034E0
6.366991708E0,-5.422960396E0,-1.586831417E0,1.037234076E0,5.744770485E0
6.377028708E0,-6.260561174E0,-1.661628415E0,9.211341012E-1,6.542486014E0
6.387065708E0,-7.385136280E0,-1.334717605E0,8.383750228E-1,7.551462219E0
6.397102708E0,-8.124922496E0,-8.829447663E-1,7.839069664E-1,8.210265962E0
6.407139708E0,-8.112653283E0,-8.624672323E-1,8.408132386E-1,8.201582770E0
6.417176708E0,-7.805885546E0,-7.650467724E-1,7.640825665E-1,7.880416733E0
6.427212708E0,-7.806754442E0,-3.519544351E-1,5.694124583E-1,7.835401547E0
6.437249708E0,-7.852769691E0,-8.642243207E-2,4.570371596E-1,7.866533138E0
6.447286708E0,-7.677366085E0,3.054293096E-2,5.076388907E-1,7.694191323E0
6.457323708E0,-7.410440106E0,1.474194163E-1,4.547519215E-1,7.425843680E0
6.467360708E0,-6.898222260E0,2.271269059E-1,4.176513382E-1,6.914585282E0
6.477397708E0,-6.387736360E0,1.478655589E-1,3.643563795E-1,6.399827779E0
6.487434708E0,-6.145880903E0,2.295739657E-1,1.956116561E-1,6.153277192E0
6.497470708E0,-5.921703333E0,1.368798101E-1,1.323914874E-1,5.924764464E0
6.507507708E0,-5.816365743E0,-1.614948338E-1,1.036676983E-1,5.819530739E0
6.517544708E0,-6.119970721E0,-3.454821521E-1,-7.015606284E-2,6.130115938E0
6.527581708E0,-6.695687574E0,-5.353938693E-1,-1.657311416E-1,6.719103028E0
6.537618708E0,-7.029394019E0,-8.254835933E-1,-2.283420304E-1,7.081380057E0
6.547655708E0,-7.172940239E0,-1.119242445E0,-2.942598852E-1,7.265697778E0
6.557692708E0,-7.206005659E0,-1.349321610E0,-4.289141719E-1,7.343783339E0
6.567729042E0,-7.115822883E0,-1.463011363E0,-6.922694027E-1,7.297573191E0
6.577766042E0,-6.924746400E0,-1.489292843E0,-8.307138547E-1,7.131633150E0
6.587803042E0,-6.774892788E0,-1.469704671E0,-8.370290668E-1,6.982823338E0
6.597840042E0,-6.693321206E0,-1.497578348E0,-6.900999396E-1,6.893440912E0
6.607877042E0,-6.212892333E0,-1.468526457E0,-6.206269777E-1,6.414185759E0
6.617914042E0,-5.275278440E0,-1.396097581E0,-3.646043015E-1,5.469057265E0
6.627951042E0,-4.519631359E0,-1.276867592E0,7.478574201E-2,4.697132250E0
6.637988042E0,-4.377316854E0,-1.206578212E0,6.725562461E-1,4.590105198E0
6.648024042E0,-4.641056685E0,-1.192674703E0,1.283310639E0,4.960722357E0
6.658061042E0,-5.094291328E0,-1.205160847E0,1.991827115E0,5.601034909E0
6.668098042E0,-5.457232096E0,-1.631787735E0,2.433729414E0,6.194122393E0
6.678135042E0,-5.099255614E0,-2.501256423E0,2.439357798E0,6.181355674E0
6.688172042E0,-4.268380303E0,-2.717315719E0,1.774479092E0,5.362056618E0
6.698209042E0,-3.527021186E0,-2.088778628E0,9.876846246E-1,4.216443468E0
6.708246042E0,-3.078139211E0,-1.778390880E0,7.841395395E-1,3.640396948E0
6.718282042E0,-2.860480409E0,-2.018514977E0,1.116162132E0,3.674584165E0
6.728319042E0,-3.178442056E0,-2.316099662E0,1.559694635E0,4.230775213E0
6.738356042E0,-4.057525906E0,-2.444446630E0,1.892977595E0,5.101195936E0
6.748393042E0,-4.884062875E0,-2.525951554E0,2.114730910E0,5.891229773E0
6.758430042E0,-5.128005788E0,-2.709389818E0,2.257422999E0,6.223599854E0
6.768467042E0,-4.520236838E0,-3.293105662E0,2.382005968E0,6.078736580E0
6.778504042E0,-4.002683993E0,-3.509080759E0,2.480805202E0,5.872777994E0
6.788540042E0,-3.953708007E0,-3.351798259E0,2.599537593E0,5.798616583E0
6.798577042E0,-3.639169028E0,-3.421517535E0,2.991629655E0,5.822386233E0
6.808614042E0,-2.849739951E0,-3.743489202E0,3.512745209E0,5.871465583E0
6.818651042E0,-2.167672185E0,-4.197244247E0,3.867410413E0,6.105122871E0
6.828688042E0,-1.850265439E0,-4.248878084E0,3.752960522E0,5.963317856E0
6.838725042E0,-1.663969055E0,-3.976448706E0,3.597513463E0,5.614538311E0
6.848762042E0,-1.179800888E0,-4.107004167E0,3.510358375E0,5.530102105E0
6.858798042E0,-2.246140650E-1,-4.687071349E0,3.436337303E0,5.816141622E0
6.868835042E0,2.788920137E-1,-4.980492232E0,3.149502139E0,5.899359910E0
6.878872042E0,-1.060597211E-2,-4.867957304E0,2.772477182E0,5.602120181E0
6.888909042E0,-3.579870075E-1,-4.850140253E0,2.691128379E0,5.558253964E0
6.898946042E0,-2.252288997E-2,-5.173434561E0,2.127517455E0,5.593859397E0
6.908983042E0,3.417229772E-1,-5.143493308E0,1.426153293E0,5.348477468E0
6.919020042E0,1.116248671E0,-4.979835005E0,1.402576296E0,5.292635264E0
6.929057042E0,2.491147172E0,-5.290177145E0,2.223019151E0,6.255685622E0
6.939093042E0,3.613163536E0,-5.473503728E0,2.963159562E0,7.196840167E0
6.949130042E0,4.672337535E0,-4.877751390E0,3.129076645E0,7.444079347E0
6.959167042E0,5.830265159E0,-4.076940708E0,3.152184842E0,7.781369201E0
6.969204042E0,6.991965991E0,-3.551725087E0,3.348003416E0,8.527101875E0
6.979241042E0,7.711781042E0,-3.273718050E0,3.499821693E0,9.079512575E0
6.989278042E0,8.191127011E0,-3.264901618E0,3.272628129E0,9.405543001E0
6.999315042E0,8.280791139E0,-3.327408353E0,2.487682697E0,9.264540649E0
7.009351042E0,8.369690452E0,-3.224937068E0,1.344865447E0,9.069762975E0
7.019388042E0,8.713934163E0,-3.072335265E0,2.415098504E-1,9.242846942E0
7.029425042E0,9.273699228E0,-2.767142183E0,-7.199957299E-1,9.704481803E0
7.039462042E0,9.880299904E0,-2.569689896E0,-9.151138079E-1,1.024993003E1
7.049499042E0,1.020734871E1,-2.512273747E0,-1.023590183E0,1.056168660E1
7.059536042E0,9.898401715E0,-2.176323141E0,-9.595432913E-1,1.018015040E1
7.069573042E0,9.394150116E0,-2.251471556E0,-7.933046114E-1,9.692704100E0
7.079609042E0,9.357988011E0,-2.467081202E0,-8.392052543E-1,9.714046259E0
7.089646042E0,9.629862489E0,-2.464213142E0,-1.142778658E0,1.000562547E1
7.099683042E0,9.708110513E0,-2.372558622E0,-1.493817419E0,1.010484709E1
7.109720042E0,9.478032517E0,-2.437481427E0,-1.567570689E0,9.911190341E0
7.119757042E0,9.091468413E0,-2.517539164E0,-1.352638736E0,9.530080424E0
7.129794042E0,8.549803990E0,-2.472657691E0,-9.415935087E-1,8.949848192E0
7.139831042E0,7.944697861E0,-2.604889550E0,-5.314943612E-1,8.377718062E0
7.149868042E0,7.485267509E0,-2.823069046E0,-2.445118475E-1,8.003670069E0
7.159904042E0,7.352493614E0,-2.758041576E0,-1.504710782E-1,7.854208886E0
7.169941042E0,7.493299245E0,-2.705991417E0,-1.657685272E-1,7.968651223E0
7.179978042E0,7.469209886E0,-2.776797105E0,-1.908308629E-1,7.970954453E0
7.190015042E0,7.131479387E0,-2.887419409E0,-1.165174663E-1,7.694723219E0
7.200052042E0,6.681846045E0,-3.096310603E0,3.872961760E-2,7.364489521E0
7.210089042E0,6.114957318E0,-3.235344527E0,2.469431929E-1,6.922509527E0
7.220126042E0,5.405577793E0,-3.365247440E0,5.021085942E-1,6.387274430E0
7.230162042E0,4.790895680E0,-3.325650095E0,7.238911450E-1,5.876788950E0
7.240199042E0,4.388962753E0,-3.362668818E0,1.005419303E0,5.619733410E0
7.250236042E0,4.029814489E0,-3.581542379E0,1.357356269E0,5.559610298E0
7.260273042E0,3.614103184E0,-3.846284423E0,1.747491853E0,5.559619903E0
7.270310042E0,3.209143154E0,-3.945304681E0,2.117843968E0,5.509019140E0
7.280347042E0,3.058439357E0,-3.836038932E0,2.326235079E0,5.429605476E0
7.290384042E0,3.186341937E0,-3.894745561E0,2.420702695E0,5.584050453E0
7.300420042E0,3.060188259E0,-3.952786193E0,2.304629763E0,5.504597099E0
7.310457042E0,2.580915965E0,-3.875201243E0,2.196487849E0,5.148093896E0
7.320494042E0,2.021371341E0,-3.828105429E0,2.137531397E0,4.827978226E0
7.330531042E0,1.708368718E0,-3.871187714E0,2.424938564E0,4.876981140E0
7.340568042E0,1.519979031E0,-4.124535874E0,2.778399242E0,5.200157188E0
7.350605042E0,1.420963158E0,-4.344689391E0,3.007555132E0,5.471823286E0
7.360642042E0,1.527117897E0,-4.319083849E0,2.985649123E0,5.468150972E0
7.370678042E0,1.651067466E0,-4.220013304E0,2.990476584E0,5.429317293E0
7.380715042E0,1.070777798E0,-4.201439039E0,3.155042961E0,5.362177839E0
7.390752042E0,3.325726694E-1,-4.279018727E0,3.380768874E0,5.463534023E0
7.400789042E0,-2.654752851E-2,-4.344512805E0,3.460241890E0,5.554166924E0
7.410826042E0,-1.858309454E-1,-4.442794560E0,3.292185895E0,5.532761029E0
7.420863042E0,-2.336282788E-1,-4.374447625E0,2.912627925E0,5.260587004E0
7.430900042E0,-2.200656621E-1,-4.311773660E0,2.515343535E0,4.996676304E0
7.440937042E0,-5.626202595E-1,-4.270389406E0,2.390606053E0,4.926232286E0
7.450973042E0,-1.239724031E0,-4.162066813E0,2.460642833E0,4.991440571E0
7.461010042E0,-2.190052549E0,-3.995386083E0,2.528346573E0,5.210755849E0
7.471047042E0,-3.148432391E0,-3.864704322E0,2.587336793E0,5.616304630E0
7.481084042E0,-3.730355186E0,-3.762351735E0,2.505806726E0,5.860879435E0
7.491121042E0,-4.138355184E0,-3.517577348E0,2.356032636E0,5.920322948E0
7.501158042E0,-4.573531285E0,-3.156548034E0,2.222712611E0,5.985101107E0
7.511195042E0,-4.964094885E0,-2.793159369E0,2.101837800E0,6.071383650E0
7.521231042E0,-5.403603773E0,-2.460521795E0,2.017117492E0,6.270714809E0
7.531268042E0,-5.730544404E0,-2.286336749E0,1.875642940E0,6.448605379E0
7.541305042E0,-5.935344887E0,-2.009208548E0,1.603043407E0,6.467997069E0
7.551342042E0,-6.020183893E0,-1.642881072E0,1.267092801E0,6.367668057E0
7.561379042E0,-6.122446432E0,-1.272690926E0,1.157994282E0,6.359641756E0
7.571415667E0,-6.290656208E0,-8.619801593E-1,1.274772534E0,6.476141625E0
7.581452667E0,-6.251320235E0,-4.560337043E-1,1.521859496E0,6.450040910E0
7.591488667E0,-6.206564476E0,-1.650674826E-1,1.692768347E0,6.435383015E0
7.601525667E0,-6.160716459E0,1.804977000E-2,1.763764070E0,6.408245998E0
7.611562667E0,-6.237622547E0,2.680118072E-1,1.850409281E0,6.511818477E0
7.621599667E0,-6.353277549E0,5.246168661E-1,2.013948301E0,6.685457818E0
7.631636667E0,-6.374100069E0,6.606938535E-1,2.159461525E0,6.762317808E0
7.641673667E0,-6.584598078E0,8.095674723E-1,2.184516259E0,6.984586074E0
7.651710667E0,-6.894384733E0,9.358989054E-1,2.173028235E0,7.289067109E0
7.661747667E0,-6.816036136E0,9.574803936E-1,2.030482473E0,7.176209054E0
7.671783667E0,-6.652794739E0,1.008831226E0,1.837941847E0,6.975345763E0
7.681820667E0,-6.865513521E0,9.733017898E-1,1.722405544E0,7.144877405E0
7.691857667E0,-7.072787375E0,9.645596176E-1,1.673287178E0,7.331751939E0
7.701894667E0,-6.799973835E0,8.656504565E-1,1.616344653E0,7.042837845E0
7.711931667E0,-6.562447071E0,7.120142806E-1,1.448103302E0,6.757934527E0
7.721968667E0,-6.648578897E0,5.746362877E-1,1.246805302E0,6.788838757E0
7.732005667E0,-6.721165062E0,3.294397312E-1,7.913300067E-1,6.775602815E0
7.742041667E0,-6.692257597E0,3.739879131E-2,2.646467346E-1,6.697592725E0
7.752078667E0,-6.753093199E0,-2.029282039E-1,-1.523550510E-1,6.757859104E0
7.762115667E0,-7.106103641E0,-3.877399796E-1,-2.855218975E-1,7.122399455E0
7.772152667E0,-7.400876400E0,-5.718693852E-1,5.629697403E-2,7.423151314E0
7.782189667E0,-7.472118291E0,-7.243396264E-1,5.586798209E-1,7.527904276E0
7.792226667E0,-7.436528628E0,-9.541965973E-1,8.768145454E-1,7.548592778E0
7.802263667E0,-7.425565099E0,-1.355315591E0,1.020483558E0,7.616907776E0
7.812299667E0,-7.640861918E0,-1.764494387E0,1.155242583E0,7.926587962E0
7.822336667E0,-8.292829971E0,-2.161643121E0,1.294689320E0,8.667176608E0
7.832373667E0,-9.088786880E0,-2.465051633E0,1.692126907E0,9.567957983E0
7.842410667E0,-9.515416691E0,-2.822286104E0,1.951801754E0,1.011523523E1
7.852447667E0,-9.474207269E0,-3.043833597E0,1.879316161E0,1.012706056E1
7.862484667E0,-8.984931559E0,-3.343822657E0,1.760471503E0,9.747276799E0
7.872521667E0,-8.385445189E0,-3.646720707E0,1.952223923E0,9.350157281E0
7.882558667E0,-7.700888849E0,-3.828641034E0,2.310455929E0,8.905076520E0
7.892594667E0,-6.432051238E0,-4.076341369E0,2.714006195E0,8.084161782E0
7.902631667E0,-4.478873050E0,-4.364410295E0,3.048970960E0,6.957341801E0
7.912668667E0,-2.944232125E0,-4.066802221E0,3.109769139E0,5.905763897E0
7.922705667E0,-2.348505662E0,-3.776138885E0,3.282864264E0,5.527377452E0
7.932742667E0,-2.503582445E0,-3.781373897E0,3.578873709E0,5.777114387E0
7.942779667E0,-3.152724247E0,-3.952392091E0,4.013201380E0,6.454987121E0
7.952816667E0,-3.988070339E0,-4.200042139E0,4.213904718E0,7.162545077E0
7.962852667E0,-4.727569165E0,-4.278095452E0,4.127737809E0,7.595408503E0
7.972889667E0,-5.094521123E0,-4.509279156E0,4.393271567E0,8.098677610E0
7.982926667E0,-4.362396806E0,-5.375689750E0,4.774276139E0,8.409652718E0
7.992963667E0,-2.296145453E0,-6.176765896E0,4.705729229E0,8.097444564E0
8.003000667E0,-5.459340602E-2,-6.276248084E0,4.152450482E0,7.525763447E0
8.013037667E0,1.247281558E0,-5.796293421E0,3.659488102E0,6.967394195E0
8.023074667E0,1.457730450E0,-4.977785556E0,3.677463613E0,6.358228191E0
8.033110667E0,1.364186987E0,-4.575360294E0,4.049323139E0,6.260347102E0
8.043147667E0,1.681560404E0,-5.018487439E0,4.397357601E0,6.881105684E0
8.053184667E0,2.094569126E0,-5.438013468E0,4.442993950E0,7.327987823E0
8.063221667E0,2.178285466E0,-5.317414060E0,3.910099765E0,6.950446031E0
8.073258667E0,2.234863710E0,-5.355577083E0,3.289332454E0,6.670571916E0
8.083295667E0,2.852618535E0,-5.619438536E0,3.239915296E0,7.086083057E0
8.093332667E0,4.070593556E0,-5.983031854E0,3.157995805E0,7.895526554E0
8.103368667E0,5.940825482E0,-6.012664374E0,2.494797589E0,8.813033262E0
8.113405667E0,7.887965836E0,-5.644351183E0,1.791545945E0,9.863485296E0
8.123442667E0,9.319991634E0,-5.040262470E0,1.012051288E0,1.064381218E1
8.133479667E0,1.001374974E1,-4.420540642E0,5.206957233E-1,1.095844366E1
8.143516667E0,9.977853681E0,-4.172409952E0,3.896724844E-1,1.082212611E1
8.153553667E0,9.638366094E0,-4.251436241E0,2.718136851E-1,1.053786951E1
8.163590667E0,9.537943089E0,-4.423733806E0,-1.569497931E-1,1.051505646E1
8.173627667E0,9.842728035E0,-4.406245369E0,-8.295070624E-1,1.081583910E1
8.183663667E0,1.033355033E1,-4.282159851E0,-1.482607137E0,1.128349589E1
8.193700667E0,1.058000813E1,-3.966132171E0,-1.945796079E0,1.146529105E1
8.203737667E0,1.038685589E1,-3.619239378E0,-1.907463487E0,1.116351584E1
8.213774667E0,1.013731661E1,-3.479802873E0,-1.400975329E0,1.080911411E1
8.223811667E0,1.017738991E1,-3.549783812E0,-8.797258741E-1,1.081453412E1
8.233848667E0,1.028276960E1,-3.541387210E0,-9.018564159E-1,1.091284194E1
8.243885667E0,1.020297499E1,-3.521911012E0,-1.186041037E0,1.085869464E1
8.253921667E0,9.912875912E0,-3.520070308E0,-1.247492934E0,1.059302801E1
8.263958667E0,9.675236882E0,-3.477794647E0,-9.547228467E-1,1.032553921E1
8.273995667E0,9.583439105E0,-3.295943901E0,-4.438925457E-1,1.014409148E1
8.284032667E0,9.309439164E0,-3.174718841E0,4.837284565E-2,9.835997011E0
8.294069667E0,8.907861748E0,-3.241478841E0,3.185563087E-1,9.484654139E0
8.304106667E0,8.696284928E0,-3.283728483E0,2.999317575E-1,9.300441030E0
8.314143667E0,8.390366791E0,-3.367322032E0,9.357766986E-2,9.041342231E0
8.324179667E0,7.786625987E0,-3.506278773E0,-1.224639019E-2,8.539653686E0
8.334216667E0,7.191752486E0,-3.547046730E0,1.553581810E-1,8.020410245E0
8.344253667E0,6.908122181E0,-3.661084977E0,6.394795704E-1,7.844401150E0
8.354290667E0,6.670196638E0,-3.908904009E0,1.162959738E0,7.818153816E0
8.364327667E0,5.931379305E0,-4.258611944E0,1.615793846E0,7.478490884E0
8.374364667E0,5.206035127E0,-4.306741546E0,1.783605427E0,6.987994906E0
8.384401667E0,5.057546255E0,-4.141867606E0,1.705023526E0,6.755808361E0
8.394438667E0,4.833875054E0,-4.245210711E0,1.674106958E0,6.647615822E0
8.404474667E0,4.541412529E0,-4.268256342E0,1.805971173E0,6.488757342E0
8.414511667E0,4.393556911E0,-4.393503701E0,2.105899276E0,6.560566200E0
8.424548667E0,4.194917055E0,-4.640840923E0,2.570933014E0,6.763462880E0
8.434585667E0,3.811920921E0,-4.831554294E0,2.885929538E0,6.797297058E0
8.444622667E0,3.293492748E0,-5.000091514E0,3.015607917E0,6.703872071E0
8.454659667E0,2.590377345E0,-5.149252231E0,3.032330954E0,6.513054916E0
8.464696667E0,1.909620525E0,-5.370804986E0,2.889874070E0,6.390897346E0
8.474732667E0,1.288899992E0,-5.527014522E0,2.636472116E0,6.257806160E0
8.484769667E0,6.752914274E-1,-5.498008824E0,2.428220022E0,6.048170964E0
8.494806667E0,2.624970058E-1,-5.533340625E0,2.413883818E0,6.042648280E0
8.504843667E0,-1.537610140E-1,-5.604589532E0,2.503067890E0,6.140066379E0
8.514880667E0,-1.812753797E-1,-5.696559218E0,2.580221901E0,6.256292252E0
8.524917667E0,1.587945896E-1,-5.712763606E0,2.631554607E0,6.291737709E0
8.534954667E0,2.201520547E-1,-5.631098469E0,2.810143776E0,6.297193417E0
8.544990667E0,2.027229667E-2,-5.734216456E0,3.073696496E0,6.506094026E0
8.555027667E0,-3.293590397E-1,-5.761544588E0,3.214775777E0,6.605956154E0
8.565064667E0,-9.430848411E-1,-5.569990388E0,3.278950138E0,6.531899872E0
8.575101417E0,-1.316873072E0,-5.410741469E0,3.304990128E0,6.475587825E0
8.585138417E0,-1.535288503E0,-5.231610848E0,3.252608432E0,6.348726208E0
8.595175417E0,-2.003882319E0,-4.963431226E0,3.147576066E0,6.209543379E0
8.605212417E0,-2.399851086E0,-4.626293635E0,2.932527169E0,5.980099801E0
8.615248417E0,-2.809489473E0,-4.437845476E0,2.802686822E0,5.953381979E0
8.625285417E0,-3.628740519E0,-4.210819727E0,2.656486550E0,6.160818234E0
8.635322417E0,-4.681270911E0,-3.875818124E0,2.541319790E0,6.587455484E0
8.645359417E0,-5.479338664E0,-3.501277065E0,2.511641078E0,6.970683911E0
8.655396417E0,-6.092546110E0,-2.872719508E0,2.599544610E0,7.220060087E0
8.665433417E0,-6.538506231E0,-2.069823709E0,2.869462609E0,7.434382933E0
8.675470417E0,-6.705386935E0,-1.562343278E0,3.170990072E0,7.580125890E0
8.685506417E0,-6.925568519E0,-1.159810427E0,3.238616045E0,7.732870969E0
8.695543417E0,-7.394818100E0,-9.955545384E-1,3.195485812E0,8.116994095E0
8.705580417E0,-7.924832531E0,-8.063123274E-1,2.967578303E0,8.500566522E0
8.715617417E0,-8.351788031E0,-1.845474815E-1,2.598023164E0,8.748493897E0
8.725654417E0,-8.411519678E0,4.063113213E-2,2.297205700E0,8.719659868E0
8.735691417E0,-8.538589615E0,-2.081199467E-2,2.230004674E0,8.825013688E0
8.745728417E0,-9.086961379E0,-1.203848147E-1,2.167197976E0,9.342596356E0
8.755765417E0,-9.346649675E0,2.380617839E-1,1.875124876E0,9.535860048E0
8.765801417E0,-9.008001748E0,4.212556350E-1,1.591005160E0,9.157120138E0
8.775838417E0,-8.878081294E0,4.379412496E-1,1.503913806E0,9.015202535E0
8.785875417E0,-8.982119633E0,5.868704170E-1,1.698041950E0,9.160034741E0
8.795912417E0,-8.888398706E0,6.498864448E-1,2.012076023E0,9.136434418E0
8.805949417E0,-8.622383723E0,6.072497177E-1,2.183113512E0,8.915168978E0
8.815986417E0,-8.284754966E0,4.059739369E-1,2.096619598E0,8.555570900E0
8.826023417E0,-7.880764990E0,2.270988393E-1,1.615343610E0,8.047817449E0
8.836059417E0,-7.857737485E0,1.079951495E-1,1.022392016E0,7.924707362E0
8.846096417E0,-7.919129741E0,-7.821820378E-2,6.647212695E-1,7.947363608E0
8.856133417E0,-7.831113943E0,-3.755497044E-1,6.920571488E-1,7.870598850E0
8.866170417E0,-7.682795810E0,-6.632941103E-1,8.046387812E-1,7.753241522E0
8.876207417E0,-7.962685651E0,-7.081252974E-1,9.146213993E-1,8.046262270E0
8.886244417E0,-8.187942617E0,-8.491157001E-1,1.139797162E0,8.310387436E0
8.896281417E0,-8.210429839E0,-1.197446616E0,1.353342741E0,8.406936012E0
8.906317417E0,-8.481673402E0,-1.465612789E0,1.439997307E0,8.726992425E0
8.916354417E0,-9.115964738E0,-1.618553147E0,1.480009804E0,9.376084279E0
8.926391417E0,-9.727479415E0,-1.979109421E0,1.699637656E0,1.007122128E1
8.936428417E0,-1.006520640E1,-2.502087312E0,2.013319141E0,1.056514434E1
8.946465417E0,-1.026891989E1,-2.936594492E0,2.266387219E0,1.091837048E1
8.956502417E0,-1.047097978E1,-3.431616846E0,2.603466922E0,1.132234303E1
8.966539417E0,-1.049363540E1,-4.065637456E0,2.878296583E0,1.161595382E1
8.976575417E0,-9.648885235E0,-4.681966730E0,2.846535677E0,1.109615087E1
8.986612417E0,-8.173967772E0,-5.044846103E0,2.566947552E0,9.942506780E0
8.996649417E0,-6.566680455E0,-5.202350212E0,2.410791811E0,8.717663510E0
9.006686417E0,-4.889791977E0,-5.212844794E0,2.559447913E0,7.591744862E0
9.016723417E0,-3.776716005E0,-5.039505256E0,2.972121005E0,6.963741830E0
9.026760417E0,-3.189005636E0,-5.000333589E0,3.541809379E0,6.907785942E0
9.036797417E0,-2.803733766E0,-5.008008644E0,4.014302995E0,7.003977595E0
9.046833417E0,-2.893731478E0,-4.789074857E0,4.197106837E0,6.994614046E0
9.056870417E0,-3.089759967E0,-4.812265499E0,4.316095337E0,7.164718755E0
9.066907417E0,-3.321865777E0,-5.242303067E0,4.744527844E0,7.811982985E0
9.076944417E0,-3.705722621E0,-5.839295599E0,5.372412386E0,8.757429308E0
9.086981417E0,-3.417858347E0,-6.520748237E0,5.647171880E0,9.278602454E0
9.097018417E0,-2.144154976E0,-7.075331499E0,5.311463349E0,9.103260915E0
9.107055417E0,-2.041765845E-1,-7.314510686E0,4.550911331E0,8.617107902E0
9.117092417E0,1.695561562E0,-6.927430272E0,3.710659425E0,8.039478376E0
9.127128417E0,2.786944363E0,-6.481849051E0,3.445035621E0,7.851732065E0
9.137165417E0,2.757670278E0,-6.205521918E0,3.767654575E0,7.765852731E0
9.147202417E0,2.782670633E0,-6.097182367E0,4.324102514E0,7.976010984E0
9.157239417E0,3.640700998E0,-6.300752596E0,4.738670104E0,8.683846002E0
9.167276417E0,4.958482727E0,-6.024259402E0,4.482848572E0,8.998565642E0
9.177313417E0,5.444944757E0,-5.532643052E0,3.886958824E0,8.681360000E0
9.187350417E0,5.492603658E0,-5.320738202E0,3.474044827E0,8.399281959E0
9.197386417E0,6.475985463E0,-5.515749861E0,3.246898041E0,9.105176062E0
9.207423417E0,8.240205615E0,-5.502385465E0,2.612628924E0,1.024710029E1
9.217460417E0,9.455264044E0,-4.990400923E0,1.541973333E0,1.080202765E1
9.227497417E0,9.499093603E0,-4.643079237E0,7.372222120E-1,1.059879525E1
9.237534417E0,9.237572206E0,-4.512295150E0,4.984049678E-1,1.029281085E1
9.247571417E0,9.622147672E0,-4.559634792E0,4.762469441E-1,1.065846173E1
9.257608417E0,1.044787392E1,-4.618096424E0,1.946228371E-1,1.142465589E1
9.267644417E0,1.167109624E1,-4.553799856E0,-4.401678693E-1,1.253576197E1
9.277681417E0,1.305505734E1,-4.503705297E0,-1.085153763E0,1.385263304E1
9.287718417E0,1.417358993E1,-4.345456838E0,-1.572688172E0,1.490795072E1
9.297755417E0,1.457810499E1,-4.110372164E0,-1.833015568E0,1.525700660E1
9.307792417E0,1.427010875E1,-4.060550086E0,-1.749531362E0,1.493937518E1
9.317829417E0,1.370178979E1,-4.142898470E0,-1.513124925E0,1.439417237E1
9.327866417E0,1.311884110E1,-4.232789471E0,-1.439025500E0,1.385970032E1
9.337902417E0,1.241960533E1,-4.452162384E0,-1.471634837E0,1.327531753E1
9.347939417E0,1.198729261E1,-4.611160457E0,-1.554316220E0,1.293730589E1
9.357976417E0,1.169300108E1,-4.707647701E0,-1.563821454E0,1.270172266E1
9.368013417E0,1.085476178E1,-4.742456760E0,-1.438714428E0,1.193258768E1
9.378050417E0,9.707484861E0,-4.541205538E0,-1.085771813E0,1.077203372E1
9.388087417E0,8.646133359E0,-4.525467172E0,-4.158644656E-1,9.767723299E0
9.398124417E0,7.908404778E0,-4.672716435E0,1.296783976E-1,9.186618611E0
9.408161417E0,7.395200508E0,-4.662229453E0,3.319499775E-1,8.748460711E0
9.418197417E0,6.806408696E0,-4.772578107E0,4.946815339E-1,8.327629371E0
9.428234417E0,6.245571252E0,-4.919326263E0,7.796396685E-1,7.988414684E0
9.438271417E0,5.752267980E0,-4.928464876E0,1.276053075E0,7.681579551E0
9.448308417E0,5.250168157E0,-5.077084726E0,1.933095342E0,7.554992561E0
9.458345417E0,4.758295698E0,-5.191227638E0,2.408171089E0,7.442412938E0
9.468382417E0,4.122857139E0,-5.082827861E0,2.543426542E0,7.021546028E0
9.478419417E0,3.464152508E0,-4.990054184E0,2.470609996E0,6.557812677E0
9.488455417E0,2.787929619E0,-5.118287716E0,2.398502133E0,6.302557670E0
9.498492417E0,2.258097621E0,-5.191878433E0,2.361355941E0,6.134379220E0
9.508529417E0,1.978714734E0,-5.135252827E0,2.521172040E0,6.053300096E0
9.518566417E0,1.849811110E0,-5.171519598E0,2.829831351E0,6.178540408E0
9.528603417E0,2.021988223E0,-5.209112517E0,3.156854428E0,6.417867205E0
9.538640417E0,2.025979824E0,-5.172478541E0,3.529954734E0,6.581770957E0
9.548677417E0,1.853247811E0,-5.229354408E0,3.915441781E0,6.790534538E0
9.558713417E0,1.385515875E0,-5.155790588E0,4.208795421E0,6.798219599E0
9.568749917E0,4.823298025E-1,-5.144272158E0,4.329953238E0,6.741266432E0
9.578786917E0,-5.117006591E-1,-5.220015235E0,4.312964737E0,6.790586237E0
9.588823917E0,-7.273079655E-1,-5.203920189E0,4.080285316E0,6.652705500E0
9.598860917E0,-1.807250105E-1,-5.217271721E0,3.771449418E0,6.440218665E0
9.608897917E0,4.024221919E-1,-5.228545738E0,3.515714425E0,6.313468308E0
9.618934917E0,4.161860991E-1,-5.247760858E0,3.472818081E0,6.306557723E0
9.628970917E0,-2.650254149E-1,-5.382303536E0,3.518629847E0,6.435851600E0
9.639007917E0,-1.320291062E0,-5.275921633E0,3.448014193E0,6.439512360E0
9.649044917E0,-2.137969938E0,-5.101436625E0,3.210880362E0,6.395726995E0
9.659081917E0,-2.730552938E0,-5.034827483E0,2.923634723E0,6.430633494E0
9.669118917E0,-2.917900944E0,-4.884187421E0,2.589047688E0,6.250807997E0
9.679155917E0,-2.924827263E0,-4.649236940E0,2.289990674E0,5.950972688E0
9.689192917E0,-3.332411231E0,-4.406827167E0,2.291577024E0,5.981338942E0
9.699228917E0,-4.231025950E0,-4.205763055E0,2.568467828E0,6.495155922E0
9.709265917E0,-5.129803807E0,-3.809506606E0,2.782298166E0,6.969104014E0
9.719302917E0,-5.650545723E0,-3.397919927E0,2.730384831E0,7.136492705E0
9.729339917E0,-5.651613425E0,-3.178094439E0,2.464859260E0,6.936609383E0
9.739376917E0,-5.407605023E0,-2.903474109E0,1.953253618E0,6.441083269E0
9.749413917E0,-5.419291268E0,-2.585261031E0,1.583818347E0,6.209732120E0
9.759450917E0,-5.878864877E0,-2.329850559E0,1.527199173E0,6.505504836E0
9.769487917E0,-6.367514350E0,-2.006427028E0,1.637828493E0,6.874115986E0
9.779523917E0,-6.532461964E0,-1.577330276E0,1.680423705E0,6.927110072E0
9.789560917E0,-6.553672739E0,-1.396742529E0,1.864220989E0,6.955345855E0
9.799597917E0,-6.455899692E0,-8.498132730E-1,1.797700871E0,6.755187033E0
9.809634917E0,-6.125208657E0,-3.532759058E-1,1.599305721E0,6.340407222E0
9.819671917E0,-5.697091899E0,-1.199515361E-1,1.531718924E0,5.900627707E0
9.829708917E0,-5.781770107E0,1.220308059E-1,1.586817238E0,5.996811322E0
9.839745917E0,-6.233497921E0,2.736853606E-1,1.873001752E0,6.514563345E0
9.849781917E0,-6.548747045E0,3.551832676E-1,2.231647741E0,6.927661557E0
9.859818917E0,-6.734340008E0,6.067111892E-1,2.372158526E0,7.165652091E0
9.869855917E0,-6.675794177E0,8.646225160E-1,2.416085295E0,7.152011475E0
9.879892917E0,-6.356814530E0,9.396797150E-1,2.352121287E0,6.842847615E0
9.889929917E0,-6.029391503E0,9.703384209E-1,2.072096229E0,6.448930247E0
9.899966917E0,-6.052675116E0,9.755453664E-1,1.735143119E0,6.371599992E0
9.910003917E0,-6.244371988E0,1.083187929E0,1.508637772E0,6.514711470E0
9.920039917E0,-6.354003189E0,1.147049464E0,1.442004364E0,6.615773241E0
9.930076917E0,-6.218677568E0,1.098288363E0,1.403977728E0,6.469106699E0
9.940113917E0,-6.207648550E0,9.953949094E-1,1.270534911E0,6.414044785E0
9.950150917E0,-6.487989796E0,8.721449590E-1,1.143500496E0,6.645467765E0
9.960187917E0,-7.013653314E0,7.250307673E-1,1.041471261E0,7.127528661E0
9.970224917E0,-7.359537755E0,6.753727037E-1,9.090531689E-1,7.446160213E0
9.980261917E0,-7.288113431E0,5.376368612E-1,9.137973073E-1,7.364826970E0
9.990297917E0,-7.400907975E0,5.138895643E-1,1.159489123E0,7.508790606E0
1.000033492E1,-7.456685734E0,5.978590894E-1,1.503821128E0,7.630273627E0
1.001037192E1,-7.175024772E0,4.080222166E-1,1.816329807E0,7.412591758E0
1.002040892E1,-6.847388906E0,1.856917816E-1,1.865162829E0,7.099299166E0
1.003044592E1,-6.431699821E0,6.079934835E-3,1.738811077E0,6.662601857E0
1.004048292E1,-6.157979377E0,-2.286214542E-1,1.662017255E0,6.382419536E0
1.005051992E1,-6.148378834E0,-5.207723218E-1,1.671207177E0,6.392706745E0
1.006055592E1,-6.527486569E0,-7.026733536E-1,1.676583838E0,6.775895816E0
1.007059292E1,-7.195694679E0,-9.616208071E-1,1.779334036E0,7.474541197E0
1.008062992E1,-8.066660255E0,-1.241326461E0,2.095900975E0,8.426428659E0
1.009066692E1,-8.637905157E0,-1.546088603E0,2.505473435E0,9.125852980E0
1.010070392E1,-8.109124489E0,-2.187158031E0,2.734560328E0,8.832857998E0
1.011074092E1,-7.028839703E0,-2.693647944E0,2.505645343E0,7.933384234E0
1.012077792E1,-6.100502416E0,-2.790655006E0,2.214177430E0,7.064450919E0
1.013081392E1,-5.105924363E0,-2.878545089E0,2.073574113E0,6.217410638E0
1.014085092E1,-4.566773073E0,-2.770763363E0,2.140010762E0,5.754319419E0
1.015088792E1,-4.669358379E0,-2.899485138E0,2.534778510E0,6.052687323E0
1.016092492E1,-5.015431100E0,-3.254501175E0,2.985715781E0,6.682875559E0
1.017096192E1,-5.399798405E0,-3.583502950E0,3.350479712E0,7.295548678E0
1.018099892E1,-6.170267885E0,-3.736732160E0,3.671081377E0,8.093961421E0
1.019103592E1,-6.374218767E0,-3.998257066E0,3.927736137E0,8.487864020E0
1.020107292E1,-5.264937054E0,-4.542427021E0,3.947921895E0,7.996204894E0
1.021110892E1,-3.794969258E0,-4.880828195E0,3.781624158E0,7.247410352E0
1.022114592E1,-2.331950148E0,-5.290384136E0,3.740098987E0,6.885818487E0
1.023118292E1,-8.598023638E-1,-5.605277749E0,3.829690610E0,6.842874317E0
1.024121992E1,4.056611109E-1,-5.522173612E0,3.961824235E0,6.808451631E0
1.025125692E1,8.886168578E-1,-5.274273888E0,4.064845158E0,6.717929080E0
1.026129392E1,5.834296229E-1,-5.027089278E0,4.173851291E0,6.559958181E0
1.027133092E1,2.396118808E-1,-5.020447426E0,4.241063865E0,6.576391786E0
1.028136692E1,9.262398899E-2,-5.262088290E0,4.239658195E0,6.758169426E0
1.029140392E1,4.552165559E-1,-5.590524055E0,3.969087646E0,6.871305412E0
1.030144092E1,1.313218270E0,-6.047929516E0,3.600216047E0,7.159856789E0
1.031147792E1,2.938224111E0,-6.365216979E0,3.184117071E0,7.699853871E0
1.032151492E1,4.827964688E0,-6.192938710E0,2.646660304E0,8.286527841E0
1.033155192E1,5.781712219E0,-5.495140765E0,2.345721656E0,8.314275573E0
1.034158892E1,5.782457739E0,-4.934585742E0,2.599874393E0,8.034071247E0
1.035162492E1,5.679491780E0,-4.792331171E0,3.106686487E0,8.054474897E0
1.036166192E1,5.739712839E0,-4.880619450E0,3.321033134E0,8.233711846E0
1.037169892E1,6.421520988E0,-4.937914562E0,2.859727580E0,8.590516506E0
1.038173592E1,7.792297202E0,-4.955595372E0,1.753085300E0,9.399528139E0
1.039177292E1,9.104536355E0,-4.846428441E0,4.596244794E-1,1.032432591E1
1.040180992E1,1.026689441E1,-4.629189761E0,-6.366249597E-1,1.128023981E1
1.041184692E1,1.105414716E1,-4.395039765E0,-1.342924172E0,1.197138209E1
1.042188292E1,1.133444630E1,-4.073020735E0,-1.671400867E0,1.215947169E1
1.043191992E1,1.134082445E1,-3.780015589E0,-1.704215441E0,1.207506386E1
1.044195692E1,1.119740394E1,-3.472723356E0,-1.610990943E0,1.183372107E1
1.045199392E1,1.073462489E1,-3.214710873E0,-1.380199587E0,1.129032721E1
1.046203092E1,1.019204070E1,-3.090349367E0,-1.110179261E0,1.070796203E1
1.047206792E1,9.949121633E0,-3.145875111E0,-9.767381984E-1,1.048024661E1
1.048210492E1,9.899195766E0,-3.161676042E0,-1.093349805E0,1.044919547E1
1.049214092E1,9.792771179E0,-3.088832014E0,-1.335838516E0,1.035488846E1
1.050217792E1,9.417318538E0,-2.953497038E0,-1.433407495E0,9.973148463E0
1.051221492E1,8.865694553E0,-2.875196974E0,-1.286152385E0,9.408585733E0
1.052225192E1,8.369175897E0,-2.870180063E0,-1.104426185E0,8.916321886E0
1.053228892E1,7.959547450E0,-2.823730366E0,-9.126427746E-1,8.494749297E0
1.054232592E1,7.718636318E0,-2.770463986E0,-6.558611298E-1,8.226966095E0
1.055236292E1,7.373575750E0,-2.630529590E0,-3.258869630E-1,7.835528545E0
1.056239892E1,6.690857774E0,-2.646532250E0,1.661866397E-1,7.197175050E0
1.057243671E1,5.970165641E0,-2.669954442E0,6.319600511E-1,6.570457214E0
1.058247371E1,5.504786916E0,-2.707532743E0,9.580054736E-1,6.208960222E0
1.059251071E1,5.406013995E0,-2.784822409E0,9.763107669E-1,6.159010138E0
1.060254771E1,5.352072262E0,-2.834642440E0,7.809307337E-1,6.106531591E0
1.061258471E1,5.177280859E0,-2.746440700E0,8.365131962E-1,5.920044590E0
1.062262171E1,4.725392831E0,-2.767268482E0,1.182618077E0,5.602293974E0
1.063265771E1,4.189480314E0,-2.888422206E0,1.774572648E0,5.389233361E0
1.064269471E1,3.712234080E0,-2.915835122E0,2.320859295E0,5.260148686E0
1.065273171E1,3.266966854E0,-2.921151996E0,2.560397501E0,5.075611960E0
1.066276871E1,2.956551624E0,-2.848230200E0,2.422524834E0,4.766785012E0
1.067280571E1,2.934729815E0,-2.823765450E0,2.046750011E0,4.558012287E0
1.068284271E1,2.985238941E0,-3.001806149E0,1.741379174E0,4.577651485E0
1.069287971E1,2.790636880E0,-3.160193188E0,1.648804886E0,4.526923098E0
1.070291671E1,2.587408129E0,-3.230549226E0,1.924384160E0,4.564469687E0
1.071295271E1,2.461149494E0,-3.358894440E0,2.383330947E0,4.797884439E0
1.072298971E1,2.272613626E0,-3.495119947E0,2.627097859E0,4.927705277E0
1.073302671E1,2.163843721E0,-3.496943108E0,2.235267752E0,4.680518420E0
1.074306371E1,2.114399081E0,-3.410296143E0,1.619685752E0,4.327145155E0
1.075310071E1,2.013350131E0,-3.427516778E0,1.255213598E0,4.168574240E0
1.076313771E1,1.784520954E0,-3.628265140E0,1.289873554E0,4.244124968E0
1.077317471E1,1.201537474E0,-3.827911302E0,1.669275988E0,4.345466553E0
1.078321071E1,2.419555910E-1,-3.846752785E0,2.201176146E0,4.438606304E0
1.079324771E1,-7.793159520E-1,-3.665697845E0,2.776445103E0,4.664045610E0
1.080328471E1,-1.566014160E0,-3.326085128E0,3.378573829E0,4.992995468E0
1.081332171E1,-1.989481797E0,-3.040871982E0,3.677139677E0,5.169748198E0
1.082335871E1,-2.347362823E0,-2.937535309E0,3.561205763E0,5.178939312E0
1.083339571E1,-2.787670003E0,-3.034106169E0,3.088848971E0,5.149552626E0
1.084343271E1,-3.135812638E0,-3.107633151E0,2.381899549E0,5.016388159E0
1.085346871E1,-3.509400017E0,-3.115303529E0,1.727385617E0,5.000486539E0
1.086350571E1,-3.883465113E0,-3.081566849E0,1.378914953E0,5.145751838E0
1.087354271E1,-4.448654639E0,-2.817571494E0,1.267448312E0,5.416240619E0
1.088357971E1,-5.090115831E0,-2.451621163E0,1.230238971E0,5.782146092E0
1.089361671E1,-5.328441324E0,-2.320209669E0,1.269129971E0,5.948642765E0
1.090365371E1,-5.463840619E0,-2.377698324E0,1.374805530E0,6.115316335E0
1.091369071E1,-5.655022352E0,-2.115990400E0,1.320181426E0,6.180580246E0
1.092372671E1,-5.949967604E0,-1.757958369E0,1.154882394E0,6.310807037E0
1.093376371E1,-6.224576240E0,-1.695103140E0,1.165473456E0,6.555688552E0
1.094380071E1,-6.562276332E0,-1.854397082E0,1.316862547E0,6.945241980E0
1.095383771E1,-7.011179942E0,-1.841029762E0,1.262964082E0,7.358064490E0
1.096387471E1,-7.114987900E0,-1.547169753E0,9.362637717E-1,7.341210862E0
1.097391171E1,-6.724971600E0,-1.284325131E0,4.899662662E-1,6.864022217E0
1.098394871E1,-6.213140255E0,-1.099635562E0,1.834364740E-1,6.312365574E0
1.099398471E1,-5.858058729E0,-8.972745377E-1,1.900029703E-1,5.929422805E0
1.100402171E1,-5.510078062E0,-6.308683759E-1,3.669695367E-1,5.558203109E0
1.101405871E1,-5.264068158E0,-3.748866302E-1,5.733791729E-1,5.308457142E0
1.102409571E1,-4.934828986E0,-1.975206989E-1,7.853255010E-1,5.000828700E0
1.103413271E1,-4.381465746E0,-1.325364983E-1,9.152295828E-1,4.477996560E0
1.104416971E1,-4.021771644E0,-1.403565645E-2,8.283300179E-1,4.106211730E0
1.105420671E1,-3.658366606E0,-4.842488587E-2,5.837105451E-1,3.704957381E0
1.106424271E1,-3.318329381E0,-2.549684232E-1,3.477210510E-1,3.346226040E0
1.107427971E1,-3.530323986E0,-4.068036568E-1,9.771921616E-2,3.555028228E0
1.108431671E1,-4.181920449E0,-6.525387418E-1,-9.182467461E-3,4.232534674E0
1.109435371E1,-4.838368639E0,-9.665470862E-1,-1.556575584E-1,4.936421136E0
1.110439071E1,-5.203716706E0,-1.043369560E0,-4.412929102E-1,5.325601095E0
1.111442771E1,-5.192527474E0,-1.042205964E0,-5.543096119E-1,5.325015867E0
1.112446471E1,-5.062497677E0,-1.158398325E0,-4.002851808E-1,5.208742424E0
1.113450071E1,-5.095698752E0,-1.146196355E0,-2.834671676E-2,5.223094427E0
1.114453771E1,-4.987786049E0,-1.053908581E0,2.578475557E-1,5.104431244E0
1.115457471E1,-4.694022519E0,-1.026221430E0,3.528414577E-1,4.817828860E0
1.116461171E1,-4.545996746E0,-8.533140010E-1,5.396722770E-1,4.656766836E0
1.117464871E1,-4.655487614E0,-7.380466694E-1,9.177906632E-1,4.802147177E0
1.118468571E1,-4.801393771E0,-8.840838039E-1,1.370847550E0,5.070917996E0
1.119472271E1,-5.024629354E0,-1.023714729E0,1.497860768E0,5.342141788E0
1.120475871E1,-5.282830703E0,-9.997165865E-1,1.299143144E0,5.531320494E0
1.121479571E1,-5.724627607E0,-1.126442707E0,1.105115572E0,5.938140689E0
1.122483271E1,-6.522825168E0,-1.291841142E0,1.102737510E0,6.740336173E0
1.123486971E1,-7.239537102E0,-1.529516425E0,1.278208358E0,7.508936979E0
1.124490671E1,-7.831426184E0,-1.824662236E0,1.462245963E0,8.173052772E0
1.125494371E1,-8.135758556E0,-1.952198195E0,1.636049770E0,8.525157120E0
1.126498071E1,-8.195028858E0,-2.118277831E0,1.974609404E0,8.691644335E0
1.127501671E1,-7.675494976E0,-2.394609641E0,2.266157423E0,8.353612867E0
1.128505371E1,-6.462369052E0,-2.644832464E0,2.256876138E0,7.338313323E0
1.129509071E1,-5.477778627E0,-2.643147882E0,2.235872355E0,6.480078287E0
1.130512771E1,-4.943019181E0,-2.520507211E0,2.533966332E0,6.099785291E0
1.131516471E1,-4.705317585E0,-2.577170239E0,3.270714920E0,6.283263173E0
1.132520171E1,-4.829696633E0,-2.732745937E0,4.011856520E0,6.847544280E0
1.133523871E1,-5.156097566E0,-2.961725825E0,4.475392202E0,7.442197078E0
1.134527471E1,-5.499758311E0,-3.099404950E0,4.637391651E0,7.833202017E0
1.135531171E1,-5.270628734E0,-3.448479046E0,4.560998948E0,7.776518911E0
1.136534871E1,-4.366592768E0,-4.167465547E0,4.362121110E0,7.447348660E0
1.137538571E1,-3.311196363E0,-4.833021360E0,3.935014751E0,7.057369050E0
1.138542271E1,-1.612707685E0,-5.285049722E0,3.369370311E0,6.471880170E0
1.139545971E1,5.184454224E-1,-5.384914318E0,2.766608917E0,6.076200520E0
1.140549671E1,2.078062728E0,-4.917842824E0,2.319001050E0,5.820763577E0
1.141553271E1,2.651507061E0,-4.230255287E0,2.335272682E0,5.511719150E0
1.142556971E1,2.593460874E0,-3.706262319E0,2.853617824E0,5.348416062E0
1.143560671E1,2.397945478E0,-3.591093221E0,3.548969879E0,5.589389970E0
1.144564371E1,2.369327450E0,-3.715494488E0,3.867783465E0,5.863306302E0
1.145568071E1,2.731247880E0,-3.883546974E0,3.747278198E0,6.048449882E0
1.146571771E1,3.429216564E0,-4.080971779E0,3.358562318E0,6.300301401E0
1.147575471E1,4.277487926E0,-4.274621036E0,2.785587809E0,6.657986738E0
1.148579071E1,4.892352473E0,-4.180954489E0,2.108708278E0,6.772159460E0
1.149582771E1,5.585466213E0,-3.864735312E0,1.393321323E0,6.933610615E0
1.150586471E1,6.233525988E0,-3.565404063E0,9.532329762E-1,7.244142840E0
1.151590171E1,6.774742514E0,-3.354654039E0,7.542557359E-1,7.597350958E0
1.152593871E1,7.086193871E0,-3.126368800E0,6.796851714E-1,7.774978932E0
1.153597571E1,6.930432817E0,-3.053502553E0,7.227966193E-1,7.607707396E0
1.154601271E1,6.451371608E0,-3.100221221E0,7.206365848E-1,7.193808750E0
1.155604971E1,6.140002697E0,-3.184700623E0,6.108457553E-1,6.943708211E0
1.156608571E1,6.295221130E0,-3.254471354E0,2.994417608E-1,7.093028848E0
1.157612304E1,6.725193794E0,-3.242221438E0,-1.277697750E-1,7.467031306E0
1.158616004E1,7.332067536E0,-3.124006525E0,-4.912408861E-1,7.984982700E0
1.159619704E1,7.708010758E0,-2.952956171E0,-6.584140241E-1,8.280512606E0
1.160623404E1,7.672072601E0,-2.891072164E0,-6.516979122E-1,8.224579407E0
1.161627104E1,7.638812469E0,-2.926166568E0,-6.493683815E-1,8.205826345E0
1.162630704E1,7.951226277E0,-3.002637039E0,-9.019575727E-1,8.547008597E0
1.163634404E1,8.170360624E0,-3.023978791E0,-1.343002524E0,8.814924630E0
1.164638104E1,8.231645876E0,-3.029789754E0,-1.692060249E0,8.933235006E0
1.165641804E1,8.370832413E0,-3.089689216E0,-1.772561206E0,9.097196709E0
1.166645504E1,8.191440421E0,-3.095266875E0,-1.618054379E0,8.904969016E0
1.167649204E1,7.736894249E0,-3.119411783E0,-1.313941863E0,8.444921889E0
1.168652904E1,7.378130731E0,-3.153777623E0,-1.016665837E0,8.088061313E0
1.169656504E1,7.460830241E0,-3.212484838E0,-9.345055139E-1,8.176634226E0
1.170660204E1,7.803945440E0,-3.298338336E0,-1.092193226E0,8.542452005E0
1.171663904E1,8.000552804E0,-3.313438185E0,-1.384289714E0,8.769491193E0
1.172667604E1,7.648230579E0,-3.368541761E0,-1.499806137E0,8.490696263E0
1.173671304E1,6.955670570E0,-3.505626808E0,-1.246983057E0,7.888329299E0
1.174675004E1,6.241057202E0,-3.636864055E0,-8.295409032E-1,7.270881189E0
1.175678704E1,5.661950133E0,-3.895146096E0,-5.002818509E-1,6.890582294E0
1.176682404E1,5.262977652E0,-4.130359116E0,-5.485120976E-1,6.712649679E0
1.177686004E1,5.018390375E0,-4.222614731E0,-7.873871561E-1,6.605656338E0
1.178689704E1,4.671980270E0,-4.263994306E0,-8.237088903E-1,6.378678815E0
1.179693404E1,4.194168026E0,-4.352214172E0,-3.645423210E-1,6.055221279E0
1.180697104E1,3.882591539E0,-4.295082198E0,3.614211503E-1,5.801109669E0
1.181700804E1,3.907888348E0,-4.158563161E0,1.039537952E0,5.800506707E0
1.182704504E1,3.874628801E0,-4.045693188E0,1.461194926E0,5.789254902E0
1.183708204E1,3.644761305E0,-4.011487561E0,1.612823460E0,5.654866659E0
1.184711804E1,3.422284105E0,-4.042708769E0,1.626839236E0,5.540950152E0
1.185715504E1,3.157098842E0,-4.208000200E0,1.638242476E0,5.509843663E0
1.186719204E1,2.858619240E0,-4.353202937E0,1.593146410E0,5.446117447E0
1.187722904E1,2.291016861E0,-4.288841465E0,1.751674951E0,5.168296092E0
1.188726604E1,1.618345571E0,-4.217145830E0,2.243481921E0,5.043468297E0
1.189730304E1,1.109287561E0,-4.159421532E0,2.857571712E0,5.166916146E0
1.190734004E1,9.118595400E-1,-4.045655181E0,3.321490971E0,5.313296146E0
1.191737604E1,9.115399897E-1,-3.849343101E0,3.570608085E0,5.328938878E0
1.192741304E1,7.331627825E-1,-3.587908242E0,3.687960534E0,5.197274875E0
1.193745004E1,5.450128314E-1,-3.309101890E0,4.037790091E0,5.248899230E0
1.194748704E1,7.298664147E-1,-3.010807938E0,4.705367872E0,5.633662772E0
1.195752404E1,9.836389361E-1,-3.013415211E0,5.455424137E0,6.309506265E0
1.196756104E1,8.631111570E-1,-3.089586890E0,5.598951062E0,6.452810319E0
1.197759804E1,4.195451783E-1,-3.102481170E0,4.973093165E0,5.876483914E0
1.198763404E1,-2.979989603E-2,-3.282606987E0,3.912894734E0,5.107557328E0
1.199767104E1,-7.816227517E-1,-3.335768117E0,2.830786786E0,4.444281369E0
1.200770804E1,-1.848306037E0,-3.320170670E0,2.119991065E0,4.351336645E0
1.201774504E1,-2.841670501E0,-3.237022678E0,1.833902006E0,4.681517235E0
1.202778204E1,-3.618471346E0,-3.026142261E0,1.835187224E0,5.061500174E0
1.203781904E1,-4.103174826E0,-2.829618512E0,2.044747925E0,5.387372147E0
1.204785604E1,-4.362589764E0,-2.621420798E0,2.323329159E0,5.594809633E0
1.205789204E1,-4.459672255E0,-2.372321225E0,2.396454438E0,5.591026604E0
1.206792904E1,-4.604471242E0,-2.127387793E0,2.332703415E0,5.582870181E0
1.207796604E1,-4.916920134E0,-1.950904207E0,2.229207698E0,5.740339518E0
1.208800304E1,-5.728471566E0,-1.725812132E0,2.020557409E0,6.314781567E0
1.209804004E1,-6.637760963E0,-1.680225484E0,1.849291878E0,7.092454351E0
1.210807704E1,-7.382907906E0,-1.784308847E0,1.685192694E0,7.780164627E0
1.211811404E1,-7.776678119E0,-1.704611297E0,1.359394024E0,8.076532323E0
1.212815004E1,-7.693132517E0,-1.302286023E0,7.077300256E-1,7.834610303E0
1.213818704E1,-7.509601282E0,-1.083424156E0,2.930361360E-1,7.593009251E0
1.214822404E1,-7.465560054E0,-9.634316897E-1,1.120782419E-1,7.528303200E0
1.215826104E1,-7.642490952E0,-6.401970237E-1,3.001112670E-1,7.675127813E0
1.216829804E1,-7.869055941E0,-4.810048234E-1,8.978364551E-1,7.934703355E0
1.217833504E1,-7.917860895E0,-3.597318166E-1,1.414460762E0,8.051250051E0
1.218837204E1,-7.641729645E0,-1.767461264E-1,1.460578337E0,7.782066578E0
1.219840804E1,-7.125581301E0,-2.168498397E-2,1.095530159E0,7.209338766E0
1.220844504E1,-6.492869883E0,6.431995690E-2,6.264280003E-1,6.523335681E0
1.221848204E1,-6.126716069E0,5.651216984E-2,3.069834630E-1,6.134662359E0
1.222851904E1,-6.132584335E0,8.006943226E-2,2.559993605E-1,6.138447475E0
1.223855604E1,-6.263311704E0,4.210112214E-2,4.124584991E-1,6.277019040E0
1.224859304E1,-6.175885305E0,-4.581995130E-2,1.858677097E-1,6.178851477E0
1.225863004E1,-5.875527871E0,9.182525933E-2,-6.390484113E-2,5.876592845E0
1.226866604E1,-5.477233082E0,1.651154298E-1,-2.237729430E-1,5.484288438E0
1.227870304E1,-4.921491487E0,2.266170287E-1,-2.629311615E-1,4.933717314E0
1.228874004E1,-4.268954792E0,2.911036313E-1,-1.567673600E-1,4.281739406E0
1.229877704E1,-3.818680010E0,2.654185671E-1,6.750325419E-2,3.828488047E0
1.230881404E1,-3.658584415E0,3.285579711E-1,2.835630254E-1,3.684236454E0
1.231885104E1,-3.653084816E0,2.954580528E-1,5.749344957E-1,3.709834742E0
1.232888804E1,-3.820483584E0,1.868963081E-1,7.965907466E-1,3.907119382E0
1.233892404E1,-4.172988827E0,1.243936658E-2,8.612814170E-1,4.260961883E0
1.234896104E1,-4.505838362E0,-2.433307099E-1,8.076911008E-1,4.584119773E0
1.235899804E1,-4.895663751E0,-2.984015411E-1,6.042548104E-1,4.941830725E0
1.236903504E1,-5.309843670E0,-3.318487841E-1,5.747262983E-1,5.351156299E0
1.237907204E1,-5.383201084E0,-4.320513493E-1,8.480415666E-1,5.466689745E0
1.238910904E1,-5.092004482E0,-5.688083678E-1,1.208775596E0,5.264331965E0
1.239914604E1,-4.765552093E0,-7.269077235E-1,1.489012177E0,5.045397789E0
1.240918204E1,-4.804767029E0,-8.739862472E-1,1.737851549E0,5.183605519E0
1.241921904E1,-5.292955742E0,-1.026562908E0,1.911460059E0,5.720392596E0
1.242925604E1,-6.118282630E0,-1.236055781E0,2.081481303E0,6.579800958E0
1.243929304E1,-6.384011099E0,-1.634114342E0,2.110454841E0,6.919533730E0
1.244933004E1,-6.009308656E0,-1.981793877E0,1.818661823E0,6.583830825E0
1.245936704E1,-5.714162260E0,-2.078323222E0,1.615181642E0,6.291255001E0
1.246940404E1,-5.348370389E0,-2.249274758E0,1.811237029E0,6.078230197E0
1.247944004E1,-4.698416702E0,-2.499435600E0,2.161137922E0,5.743937233E0
1.248947704E1,-4.421815627E0,-2.625141381E0,2.429603473E0,5.687424175E0
1.249951404E1,-4.639470336E0,-2.643109290E0,2.609342204E0,5.943010891E0
1.250955104E1,-4.716878700E0,-2.701022453E0,2.730869565E0,6.082936424E0
1.251958804E1,-4.881491269E0,-3.016387351E0,2.999703491E0,6.475011251E0
1.252962504E1,-5.321475536E0,-3.408626763E0,3.371530273E0,7.162684879E0
1.253966204E1,-5.681461122E0,-3.936366627E0,3.665522429E0,7.823684387E0
1.254969804E1,-5.375043633E0,-4.707031989E0,3.725728869E0,8.057809864E0
1.255973504E1,-4.440367673E0,-5.248278921E0,3.186702125E0,7.577358850E0
1.256977204E1,-3.641402372E0,-5.053942031E0,2.489245073E0,6.708090810E0
1.257980817E1,-3.048582998E0,-4.842277502E0,2.405407695E0,6.207052109E0
1.258984517E1,-2.489291558E0,-5.017410382E0,3.014946012E0,6.360886641E0
1.259988217E1,-1.808344996E0,-5.180363511E0,3.834462522E0,6.693980921E0
1.260991917E1,-6.848498708E-1,-5.402562384E0,4.381053225E0,6.989300896E0
1.261995517E1,7.853857273E-1,-5.561945204E0,4.397489748E0,7.133721418E0
1.262999217E1,1.843278601E0,-5.229367272E0,4.052857196E0,6.868013506E0
1.264002917E1,2.539222979E0,-4.945196684E0,3.759880117E0,6.711134187E0
1.265006617E1,3.383132318E0,-5.030419267E0,3.580217400E0,7.040501326E0
1.266010317E1,4.472214240E0,-4.974332190E0,3.136183351E0,7.387849955E0
1.267014017E1,5.349167950E0,-4.625739319E0,2.418496102E0,7.473967179E0
1.268017717E1,5.325887845E0,-4.242787040E0,1.957674698E0,7.085112097E0
1.269021317E1,4.696575998E0,-4.024220458E0,2.112940493E0,6.535800940E0
1.270025017E1,5.353560963E0,-4.374009669E0,2.410140431E0,7.321294453E0
1.271028717E1,7.067975702E0,-4.439230097E0,1.924772415E0,8.565500174E0
1.272032417E1,8.314545946E0,-3.894746731E0,8.305034280E-1,9.219027190E0
1.273036117E1,8.713847040E0,-3.297486981E0,1.282002032E-1,9.317777950E0
1.274039817E1,8.355128546E0,-3.021238201E0,2.126106083E-1,8.887139954E0
1.275043517E1,7.685279122E0,-2.899811413E0,7.817411578E-1,8.251275092E0
1.276047117E1,7.290646445E0,-2.952527570E0,1.163513469E0,7.951396621E0
1.277050817E1,7.437353085E0,-3.154692712E0,9.321034777E-1,8.132350455E0
1.278054517E1,8.115644719E0,-3.294177457E0,1.307460809E-1,8.759702556E0
1.279058217E1,9.090440472E0,-3.313805391E0,-8.390701836E-1,9.711923235E0
1.280061917E1,9.663759382E0,-3.228099242E0,-1.554820835E0,1.030661622E1
1.281065617E1,9.805904610E0,-3.083192375E0,-1.875390340E0,1.044887216E1
1.282069317E1,9.774391041E0,-2.983031909E0,-1.690387945E0,1.035831120E1
1.283072917E1,9.828488896E0,-3.092855483E0,-1.313948879E0,1.038707903E1
1.284076617E1,9.892853876E0,-3.112362379E0,-1.100243672E0,1.042908882E1
1.285080317E1,9.700097489E0,-3.047229660E0,-1.096323114E0,1.022640818E1
1.286084017E1,9.315317370E0,-3.066727200E0,-1.147699674E0,9.874065422E0
1.287087717E1,9.012933875E0,-3.121315051E0,-1.208773257E0,9.614401566E0
1.288091417E1,8.823947772E0,-3.149102774E0,-1.324799557E0,9.462240561E0
1.289095117E1,8.432443355E0,-3.059138099E0,-1.299114493E0,9.063780961E0
1.290098717E1,7.897157074E0,-3.031609992E0,-9.567798972E-1,8.513000457E0
1.291102417E1,7.461612014E0,-3.174878470E0,-4.670679849E-1,8.122417106E0
1.292106117E1,7.131924945E0,-3.148395261E0,-2.210867321E-1,7.799078502E0
1.293109817E1,6.726866682E0,-3.102467721E0,-1.874395509E-1,7.410207481E0
1.294113517E1,6.179727511E0,-3.185227457E0,-1.854842055E-1,6.954790468E0
1.295117217E1,5.479463795E0,-3.330586315E0,-7.883040726E-2,6.412764062E0
1.296120917E1,4.974909310E0,-3.524943670E0,1.043026328E-1,6.098018495E0
1.297124517E1,4.687642622E0,-3.653249123E0,4.429774565E-1,5.959568066E0
1.298128217E1,4.437881144E0,-3.602844370E0,8.353700656E-1,5.776947269E0
1.299131917E1,3.977605870E0,-3.585086376E0,1.312061983E0,5.513229491E0
1.300135617E1,3.520557089E0,-3.718322201E0,1.816704175E0,5.433291477E0
1.301139317E1,3.475034761E0,-3.742279413E0,2.062369094E0,5.507620909E0
1.302143017E1,3.634756134E0,-3.720304992E0,2.003606915E0,5.573738607E0
1.303146717E1,3.418441315E0,-4.011557727E0,1.941734018E0,5.616820045E0
1.304150317E1,2.808722903E0,-4.252557737E0,2.016938567E0,5.480986484E0
1.305154017E1,2.242830541E0,-4.204774291E0,2.125644153E0,5.218120231E0
1.306157717E1,2.082227700E0,-4.079192471E0,2.263615054E0,5.108760762E0
1.307161417E1,2.222872532E0,-3.993301551E0,2.311133037E0,5.121421237E0
1.308165117E1,2.201916988E0,-3.981677871E0,2.198751891E0,5.053385694E0
1.309168817E1,2.022106044E0,-3.962269208E0,2.048366182E0,4.897376251E0
1.310172517E1,1.884650868E0,-3.997779933E0,2.035779465E0,4.866061171E0
1.311176117E1,1.707049879E0,-4.219392330E0,2.254906211E0,5.079556373E0
1.312179817E1,1.212711942E0,-4.261623260E0,2.554937956E0,5.114666267E0
1.313183517E1,7.047757199E-1,-4.106456283E0,2.919921741E0,5.087792743E0
1.314187217E1,3.609670410E-1,-3.895195797E0,3.299705999E0,5.117705266E0
1.315190917E1,-2.560203373E-3,-3.818871506E0,3.610215370E0,5.255229886E0
1.316194617E1,-5.365225281E-1,-3.864120185E0,3.702871519E0,5.378711622E0
1.317198317E1,-1.226400712E0,-3.764700562E0,3.589992190E0,5.344630291E0
1.318201917E1,-1.856385866E0,-3.726488423E0,3.454270713E0,5.409701527E0
1.319205617E1,-2.542904678E0,-3.767274506E0,3.335695027E0,5.637870407E0
1.320209317E1,-3.148445547E0,-3.561670616E0,3.271997799E0,5.770977087E0
1.321213017E1,-3.852092755E0,-3.165713544E0,3.258825191E0,5.956534434E0
1.322216717E1,-4.710927112E0,-2.869093065E0,3.385890450E0,6.472154464E0
1.323220417E1,-5.398871037E0,-2.745030352E0,3.490027022E0,6.990228088E0
1.324224117E1,-5.685462956E0,-2.707586537E0,3.284507332E0,7.102358925E0
1.325227717E1,-5.858040018E0,-2.568014669E0,2.762549195E0,6.967281410E0
1.326231417E1,-6.184046264E0,-2.199302114E0,2.167354097E0,6.912075070E0
1.327235117E1,-6.756070601E0,-2.003146155E0,1.996093243E0,7.324033910E0
1.328238817E1,-7.343653209E0,-1.932053953E0,2.239718653E0,7.916970037E0
1.329242517E1,-7.681992402E0,-1.538268537E0,2.357300313E0,8.181451101E0
1.330246217E1,-7.689372758E0,-1.457307404E0,2.128580625E0,8.110552001E0
1.331249917E1,-7.460592844E0,-1.393173974E0,1.417268010E0,7.720753067E0
1.332253517E1,-7.087731689E0,-9.862516183E-1,6.136464255E-1,7.182283390E0
1.333257217E1,-7.074014121E0,-7.945372045E-1,2.291037033E-1,7.122180401E0
1.334260917E1,-7.399619249E0,-5.526145041E-1,3.446043389E-1,7.428223204E0
1.335264617E1,-7.474911506E0,-2.739859074E-1,7.290839110E-1,7.515379807E0
1.336268317E1,-7.234461719E0,-1.540080589E-1,9.783625549E-1,7.301941395E0
1.337272017E1,-6.852126321E0,2.714452922E-1,9.045252313E-1,6.916898406E0
1.338275717E1,-6.417846013E0,7.304178071E-1,8.516101223E-1,6.515174396E0
1.339279317E1,-5.996683348E0,8.692745608E-1,1.013654594E0,6.143561270E0
1.340283017E1,-5.721985250E0,7.749806070E-1,1.223814635E0,5.902493745E0
1.341286717E1,-5.664924611E0,7.006081170E-1,1.251769442E0,5.843727348E0
1.342290417E1,-5.809196472E0,7.522811311E-1,1.134523559E0,5.966559666E0
1.343294117E1,-5.989015310E0,6.373617089E-1,1.225664109E0,6.146282359E0
1.344297817E1,-6.163509673E0,4.900516355E-1,1.277393841E0,6.313536024E0
1.345301517E1,-5.967613916E0,4.645437419E-1,1.125481863E0,6.090560414E0
1.346305117E1,-5.616911370E0,3.295777255E-1,9.406692101E-1,5.704662424E0
1.347308817E1,-5.599346334E0,2.878765529E-1,8.817342465E-1,5.675650408E0
1.348312517E1,-5.619180089E0,2.058342701E-1,1.089827954E0,5.727589160E0
1.349316217E1,-5.588395668E0,2.277841330E-2,1.466807960E0,5.777734036E0
1.350319917E1,-5.795562519E0,-1.321494126E-1,1.735715561E0,6.051340090E0
1.351323617E1,-6.118727603E0,-3.330802077E-1,1.769285742E0,6.378098615E0
1.352327317E1,-6.529078766E0,-5.605749035E-1,1.722376308E0,6.775669258E0
1.353330917E1,-7.245524066E0,-8.109743124E-1,1.665737107E0,7.478634798E0
1.354334617E1,-8.324654612E0,-1.179182253E0,1.745340663E0,8.586999431E0
1.355338317E1,-9.455072840E0,-1.553719220E0,1.966938441E0,9.781681484E0
1.356342017E1,-9.717344436E0,-2.123735037E0,2.199100385E0,1.018690708E1
1.357345796E1,-9.007689507E0,-2.798116638E0,2.043112459E0,9.651022510E0
1.358349496E1,-7.285443592E0,-3.385695153E0,1.447930809E0,8.163156475E0
1.359353196E1,-5.206480685E0,-3.612616822E0,7.380104166E-1,6.379898181E0
1.360356796E1,-3.746224822E0,-3.112881027E0,4.697278468E-1,4.893349871E0
1.361360496E1,-2.855203297E0,-2.561347674E0,9.545667261E-1,3.952706086E0
1.362364196E1,-2.381572543E0,-2.487443545E0,1.930196292E0,3.947774170E0
1.363367896E1,-2.474640774E0,-2.627880802E0,2.769819038E0,4.549890325E0
1.364371596E1,-2.947021247E0,-2.737962238E0,3.098687496E0,5.077719532E0
1.365375296E1,-3.878276294E0,-2.814420429E0,3.196918965E0,5.760406256E0
1.366378996E1,-5.205573782E0,-2.965070432E0,3.346014778E0,6.861884286E0
1.367382596E1,-5.653292161E0,-3.361884706E0,3.520005696E0,7.460055036E0
1.368386296E1,-4.537147278E0,-4.074916987E0,3.417133877E0,6.990526290E0
1.369389996E1,-3.060775027E0,-4.514510660E0,2.939528625E0,6.195964719E0
1.370393696E1,-1.451086844E0,-4.598680744E0,2.511105473E0,5.436834402E0
1.371397396E1,2.335886639E-1,-4.486311877E0,2.436811920E0,5.110734806E0
1.372401096E1,1.654923705E0,-3.936820956E0,2.563921033E0,4.981066429E0
1.373404796E1,2.616579596E0,-3.452033569E0,2.611393408E0,5.057904711E0
1.374408396E1,2.742381563E0,-3.116228558E0,2.704346595E0,4.954293852E0
1.375412096E1,2.210305989E0,-2.962493564E0,2.948325176E0,4.728048438E0
1.376415796E1,1.967554153E0,-3.077529931E0,3.214946516E0,4.866039552E0
1.377419496E1,1.776647825E0,-3.096169685E0,3.429297255E0,4.950032715E0
1.378423196E1,1.526168894E0,-3.178320726E0,3.600026597E0,5.038958784E0
1.379426896E1,2.245671703E0,-3.563633527E0,3.452130632E0,5.446074845E0
1.380430596E1,3.989010279E0,-3.768826357E0,2.742388580E0,6.134896107E0
1.381434196E1,5.847193433E0,-3.595462845E0,1.677365026E0,7.066157198E0
1.382437896E1,7.156162823E0,-3.310158482E0,8.083974445E-1,7.925990283E0
1.383441596E1,7.774226967E0,-2.956828782E0,2.145343606E-1,8.320304463E0
1.384445296E1,7.978575459E0,-2.745139110E0,-9.405011575E-2,8.438145561E0
1.385448996E1,7.954852136E0,-2.671902734E0,-2.507777238E-1,8.395333596E0
1.386452696E1,7.654540894E0,-2.554522803E0,-3.381035507E-1,8.076626589E0
1.387456396E1,7.307115127E0,-2.607893849E0,-2.682094431E-1,7.763180928E0
1.388459996E1,7.309756315E0,-2.627341104E0,-2.643380016E-1,7.772086801E0
1.389463696E1,7.662162740E0,-2.600272003E0,-4.417594814E-1,8.103413094E0
1.390467396E1,7.852707126E0,-2.529380946E0,-7.552959555E-1,8.284518643E0
1.391471096E1,7.824965011E0,-2.485689965E0,-9.625721490E-1,8.266515419E0
1.392474796E1,7.752844284E0,-2.444878739E0,-9.333173597E-1,8.182610087E0
1.393478496E1,7.852603045E0,-2.458710912E0,-8.312419313E-1,8.270404892E0
1.394482196E1,7.994920766E0,-2.513936110E0,-7.762605625E-1,8.416722241E0
1.395485796E1,8.175034888E0,-2.611115080E0,-7.955516964E-1,8.618701752E0
1.396489496E1,8.396762475E0,-2.673414824E0,-9.187273872E-1,8.859843503E0
1.397493196E1,8.289649671E0,-2.716678957E0,-1.078603127E0,8.789881736E0
1.398496896E1,7.757288752E0,-2.839410844E0,-1.063469363E0,8.328790417E0
1.399500596E1,7.260677125E0,-2.952547451E0,-8.659989506E-1,7.885741750E0
1.400504296E1,7.020179976E0,-3.047417940E0,-6.688092041E-1,7.682251542E0
1.401507896E1,6.789541817E0,-3.026863807E0,-5.694381130E-1,7.455470633E0
1.402511596E1,6.578042180E0,-3.053266910E0,-4.722842860E-1,7.267470687E0
1.403515296E1,6.577030612E0,-3.110507643E0,-3.684400749E-1,7.284801820E0
1.404518996E1,6.356907501E0,-3.099958681E0,-3.302144873E-1,7.080187738E0
1.405522696E1,5.828101104E0,-3.152438026E0,-3.478473508E-1,6.635180915E0
1.406526396E1,5.255337680E0,-3.279052464E0,-3.375960124E-1,6.203606230E0
1.407530096E1,4.719226942E0,-3.330873413E0,-3.209770560E-1,5.785226607E0
1.408533796E1,4.376343293E0,-3.362149585E0,-2.481488156E-1,5.524310661E0
1.409537396E1,4.149154991E0,-3.359785556E0,-9.271582682E-2,5.339685603E0
1.410541096E1,4.027315974E0,-3.427078237E0,1.576491201E-1,5.290462403E0
1.411544796E1,3.947546504E0,-3.615139310E0,4.804271185E-1,5.374306081E0
1.412548496E1,3.911242311E0,-3.799864547E0,6.793564117E-1,5.495299093E0
1.413552196E1,3.554308972E0,-3.787012952E0,7.044830668E-1,5.241266618E0
1.414555896E1,2.919908878E0,-3.555708210E0,6.193663180E-1,4.642471687E0
1.415559496E1,2.448300530E0,-3.678393320E0,7.660694504E-1,4.484597563E0
1.416563196E1,2.194415011E0,-3.794477507E0,9.620821524E-1,4.487662962E0
1.417566896E1,2.173837489E0,-4.013201380E0,1.110930043E0,4.697395055E0
1.418570596E1,2.256738144E0,-4.268916492E0,1.135777348E0,4.960494456E0
1.419574296E1,2.171274070E0,-4.315234042E0,1.025396973E0,4.938331183E0
1.420577996E1,2.204758151E0,-4.248697405E0,8.938100624E-1,4.869423433E0
1.421581696E1,2.352535124E0,-4.201356593E0,8.237861466E-1,4.885124599E0
1.422585296E1,2.266374647E0,-4.263648736E0,8.129068172E-1,4.896526532E0
1.423588996E1,1.745059704E0,-4.374762790E0,7.134257984E-1,4.763691763E0
1.424592696E1,7.497738451E-1,-4.367483591E0,7.417263222E-1,4.493020329E0
1.425596396E1,-1.000826973E-1,-4.319534084E0,1.192254288E0,4.482171520E0
1.426600096E1,-4.347746900E-1,-4.273279100E0,1.801855756E0,4.657963875E0
1.427603796E1,-3.166954324E-1,-4.012941763E0,2.159177935E0,4.567936837E0
1.428607496E1,-1.175894071E-1,-3.448321171E0,2.272166607E0,4.131281552E0
1.429611096E1,9.121773362E-2,-3.198477248E0,2.412782788E0,4.007505229E0
1.430614796E1,-3.078892332E-1,-3.220974410E0,2.564001725E0,4.128386704E0
1.431618496E1,-1.561897720E0,-3.075009781E0,2.754219836E0,4.413721394E0
1.432622196E1,-2.448050123E0,-2.891630573E0,3.048841152E0,4.863117225E0
1.433625896E1,-2.806753560E0,-2.652843150E0,3.257949863E0,5.052690337E0
1.434629596E1,-3.020991741E0,-2.243025253E0,3.261360544E0,4.979359998E0
1.435633296E1,-3.745190742E0,-2.046366434E0,3.301084773E0,5.395482365E0
1.436636896E1,-4.441104422E0,-1.791898533E0,3.149515003E0,5.731819396E0
1.437640596E1,-4.532969735E0,-1.412076852E0,2.872414868E0,5.549102885E0
1.438644296E1,-4.680368393E0,-1.502922703E0,2.764150162E0,5.639605577E0
1.439647996E1,-5.232907761E0,-1.279210571E0,2.612320191E0,5.986979213E0
1.440651696E1,-5.980319915E0,-1.022393843E0,2.595994765E0,6.599144208E0
1.441655396E1,-6.797234999E0,-7.994646531E-1,2.663058236E0,7.343938080E0
1.442659096E1,-7.426141049E0,-5.648796237E-1,2.693965448E0,7.919855410E0
1.443662696E1,-7.562293466E0,-5.160302299E-1,2.582884723E0,8.007862583E0
1.444666396E1,-7.284696318E0,-3.243731189E-1,2.184002143E0,7.611956629E0
1.445670096E1,-7.082004926E0,1.437537968E-2,1.712198060E0,7.286056726E0
1.446673796E1,-7.312746581E0,1.421224236E-2,1.520084281E0,7.469077638E0
1.447677496E1,-7.504818259E0,-1.362015331E-1,1.464822684E0,7.647650192E0
1.448681196E1,-7.263765625E0,-1.911624366E-1,1.234288898E0,7.370366559E0
1.449684896E1,-6.848301072E0,-3.218459523E-1,8.291397111E-1,6.905815307E0
1.450688496E1,-6.711696081E0,-2.062617016E-1,3.695557237E-1,6.725026365E0
1.451692196E1,-6.739701905E0,-3.873780370E-3,1.182938504E-1,6.740741073E0
1.452695896E1,-6.769497562E0,1.040161192E-1,1.503488714E-1,6.771965843E0
1.453699596E1,-6.783582335E0,7.650146127E-2,3.764794117E-1,6.794452040E0
1.454703296E1,-6.866239160E0,1.139622331E-2,6.581244408E-1,6.897716858E0
1.455706996E1,-6.846332315E0,4.150353670E-3,9.205680907E-1,6.907946800E0
1.456710696E1,-6.834320379E0,3.282334507E-2,1.058382286E0,6.915864768E0
1.457714292E1,-6.792943727E0,3.728652477E-2,1.097099478E0,6.881068379E0
1.458717992E1,-6.525109676E0,-1.456459558E-1,1.015168292E0,6.605212766E0
1.459721692E1,-6.213499859E0,-2.943611151E-1,8.068125567E-1,6.272573273E0
1.460725392E1,-6.034661014E0,-2.101612097E-1,5.593709618E-1,6.064173246E0
1.461729092E1,-5.880113842E0,-2.180438411E-1,5.567840074E-1,5.910439099E0
1.462732792E1,-5.531453728E0,-2.129216802E-1,6.938450812E-1,5.578865206E0
1.463736492E1,-4.995566354E0,-1.435631776E-1,8.819910854E-1,5.074859787E0
1.464740092E1,-4.352138743E0,-2.247172683E-1,1.052280570E0,4.483180109E0
1.465743792E1,-4.113445460E0,-4.102196002E-1,1.184200845E0,4.300121547E0
1.466747492E1,-4.583770344E0,-5.213172823E-1,1.411768119E0,4.824501166E0
1.467751192E1,-5.751687351E0,-6.369237524E-1,1.833747055E0,6.070437177E0
1.468754892E1,-7.240581415E0,-5.924509996E-1,2.307898795E0,7.622559561E0
1.469758592E1,-7.987483692E0,-8.211724412E-1,2.740294107E0,8.484305022E0
1.470762292E1,-7.336036041E0,-1.488666022E0,2.877827636E0,8.019690968E0
1.471765892E1,-5.839345300E0,-2.022096396E0,2.474404839E0,6.656538641E0
1.472769592E1,-4.785980802E0,-2.090965487E0,1.960764951E0,5.578740727E0
1.473773292E1,-4.197182851E0,-2.239971253E0,2.051096247E0,5.180811800E0
1.474776992E1,-3.707863871E0,-2.610946096E0,2.435928991E0,5.147722220E0
1.475780692E1,-3.320328252E0,-2.885675184E0,2.387262030E0,5.005069527E0
1.476784392E1,-3.492210957E0,-2.734509457E0,1.883816763E0,4.818904951E0
1.477788092E1,-4.119724785E0,-2.556992083E0,1.721362985E0,5.145233847E0
1.478791692E1,-4.636004691E0,-2.720808261E0,2.189792787E0,5.804354360E0
1.479795392E1,-4.418865414E0,-3.207077917E0,2.739367908E0,6.108670629E0
1.480799092E1,-3.280537657E0,-3.701068237E0,2.835062270E0,5.700650094E0
1.481802792E1,-1.963615761E0,-3.735319473E0,2.585160459E0,4.948884018E0
1.482806492E1,-1.111425010E0,-3.488677484E0,2.652975297E0,4.521549963E0
1.483810192E1,-6.865943876E-1,-3.415535249E0,3.322430034E0,4.814128604E0
1.484813892E1,-2.846842656E-1,-3.423343620E0,4.023947393E0,5.290791934E0
1.485817492E1,-9.124550790E-2,-3.363361713E0,4.215595733E0,5.393679184E0
1.486821192E1,3.156327009E-3,-3.276507171E0,3.953075631E0,5.134424617E0
1.487824892E1,5.575746971E-1,-3.315820341E0,3.506224394E0,4.857897032E0
1.488828592E1,1.461132653E0,-3.666241636E0,3.082838033E0,5.008006260E0
1.489832292E1,2.483739919E0,-3.922623916E0,2.551445414E0,5.297718006E0
1.490835992E1,3.375018137E0,-3.737889909E0,2.035312858E0,5.431856664E0
1.491839592E1,3.635940195E0,-3.414430709E0,1.904445155E0,5.339036385E0
1.492843292E1,2.881427767E0,-3.110759658E0,2.319105130E0,4.832980470E0
1.493846992E1,1.819014410E0,-2.930877085E0,3.035466231E0,4.594878579E0
1.494850692E1,1.316931544E0,-3.011145322E0,3.542180092E0,4.832012484E0
1.495854392E1,1.392819632E0,-3.315474771E0,3.560205889E0,5.060374043E0
1.496858092E1,2.725103626E0,-3.855088575E0,3.028580550E0,5.608939101E0
1.497861792E1,4.731717179E0,-4.093805248E0,1.835699440E0,6.520596699E0
1.498865392E1,6.247707240E0,-3.891368794E0,4.942780761E-1,7.377052777E0
1.499869092E1,7.110310712E0,-3.509787102E0,-1.874067334E-1,7.931597898E0
1.500872792E1,7.503210860E0,-3.215713670E0,-1.615913129E-1,8.164869832E0
1.501876492E1,7.819162819E0,-3.289500854E0,3.446579140E-2,8.483001294E0
1.502880192E1,8.401498135E0,-3.494781978E0,-1.842937124E-1,9.101243660E0
1.503883892E1,9.013471234E0,-3.568662132E0,-9.128228688E-1,9.737107306E0
1.504887592E1,9.370350779E0,-3.489569185E0,-1.639452850E0,1.013254028E1
1.505891192E1,9.315817891E0,-3.466124189E0,-1.951310588E0,1.012946656E1
1.506894892E1,9.301296331E0,-3.564314142E0,-2.021875956E0,1.016397713E1
1.507898592E1,9.522120523E0,-3.769335650E0,-2.129344271E0,1.046005629E1
1.508902292E1,9.826014354E0,-3.818859227E0,-2.434605181E0,1.081949843E1
1.509905992E1,9.994180276E0,-3.771826563E0,-2.590805361E0,1.099193283E1
1.510909692E1,1.002061671E1,-3.847682492E0,-2.437144042E0,1.100713818E1
1.511913392E1,1.001486656E1,-3.938103250E0,-2.191575018E0,1.098222247E1
1.512916992E1,1.002671185E1,-3.855392046E0,-2.122990833E0,1.095016385E1
1.513920692E1,9.817835269E0,-3.806357880E0,-2.123211712E0,1.074180048E1
1.514924392E1,9.304894123E0,-3.907029977E0,-2.035633139E0,1.029513187E1
1.515928092E1,8.585837456E0,-4.047895249E0,-1.837227902E0,9.668374586E0
1.516931792E1,7.890723383E0,-4.260325763E0,-1.622015283E0,9.112893322E0
1.517935492E1,7.252718480E0,-4.388597887E0,-1.457653559E0,8.601538855E0
1.518939192E1,6.606105307E0,-4.446170157E0,-1.269361521E0,8.063518777E0
1.519942792E1,6.221391846E0,-4.551652758E0,-8.782436780E-1,7.758516049E0
1.520946492E1,6.133457324E0,-4.665003957E0,-3.786236588E-1,7.715239241E0
1.521950192E1,6.200201536E0,-4.533006572E0,-6.044032931E-2,7.680774747E0
1.522953892E1,5.959233686E0,-4.357023507E0,1.669181994E-1,7.384035594E0
1.523957592E1,5.444122054E0,-4.471966903E0,5.340694018E-1,7.065563180E0
1.524961292E1,5.254966967E0,-4.639162188E0,8.480276064E-1,7.060853662E0
1.525964992E1,5.045942456E0,-4.688628463E0,1.071365443E0,6.970838977E0
1.526968592E1,4.610192158E0,-4.769760919E0,1.389305456E0,6.777511387E0
1.527972292E1,4.380347466E0,-4.843091435E0,1.932493225E0,6.810103423E0
1.528975992E1,4.599570106E0,-4.811323512E0,2.430862963E0,7.086181894E0
1.529979692E1,4.839717591E0,-4.579456269E0,2.708734345E0,7.192463266E0
1.530983392E1,4.744548309E0,-4.442448404E0,2.899015607E0,7.116907894E0
1.531987092E1,3.995484901E0,-4.629431836E0,3.097557814E0,6.854954641E0
1.532990792E1,2.690014192E0,-4.867823988E0,3.332818197E0,6.483792398E0
1.533994392E1,1.570127968E0,-4.780892263E0,3.472316390E0,6.113854249E0
1.534998092E1,9.781049851E-1,-4.481344083E0,3.929706649E0,6.040010637E0
1.536001792E1,9.723998567E-1,-4.197845340E0,4.710824493E0,6.384303751E0
1.537005492E1,9.836273879E-1,-3.954937969E0,5.383640209E0,6.752232155E0
1.538009192E1,7.555365685E-1,-3.753831173E0,5.624446092E0,6.804151513E0
1.539012892E1,4.172630100E-1,-3.725386223E0,5.442816371E0,6.608847174E0
1.540016592E1,-7.295424789E-2,-3.746536771E0,4.917281492E0,6.182355325E0
1.541020192E1,-5.888947231E-1,-3.802697523E0,4.337742898E0,5.798561796E0
1.542023892E1,-7.410844441E-1,-3.886096360E0,3.911134722E0,5.563086004E0
1.543027592E1,-5.815465271E-1,-3.814885460E0,3.590603224E0,5.271051029E0
1.544031292E1,-9.302789272E-1,-3.673594510E0,3.445588768E0,5.121796312E0
1.545034992E1,-1.949998034E0,-3.451607307E0,3.498966830E0,5.287613281E0
1.546038692E1,-3.122143309E0,-3.407174315E0,3.700982283E0,5.920632189E0
1.547042392E1,-3.942125258E0,-3.410060501E0,3.674555207E0,6.377399167E0
1.548045992E1,-4.586411239E0,-3.234192626E0,3.376243129E0,6.549365440E0
1.549049692E1,-5.116343517E0,-3.014691074E0,3.106750807E0,6.702032067E0
1.550053392E1,-5.573265413E0,-2.833351375E0,2.911716928E0,6.896902410E0
1.551057092E1,-6.276666160E0,-2.584319630E0,2.686348865E0,7.300117551E0
1.552060792E1,-6.955889255E0,-2.409749837E0,2.317262088E0,7.717576899E0
1.553064492E1,-7.461724280E0,-2.292737111E0,1.933529205E0,8.041921902E0
1.554068092E1,-7.990051789E0,-2.135476831E0,1.579356337E0,8.419949841E0
1.555071792E1,-8.665747844E0,-2.097802636E0,1.528635249E0,9.046142124E0
1.556075492E1,-9.382836338E0,-1.966757178E0,1.658860928E0,9.729212256E0
1.557079192E1,-1.001152078E1,-1.567005263E0,1.773832390E0,1.028749411E1
1.558082829E1,-9.965651711E0,-1.269951505E0,2.005345877E0,1.024443278E1
1.559086529E1,-9.176159484E0,-1.065928702E0,2.180571728E0,9.491733242E0
1.560090229E1,-8.211223891E0,-9.166282368E-1,2.169780107E0,8.542385546E0
1.561093829E1,-7.653427584E0,-1.011572401E0,1.945511320E0,7.961359608E0
1.562097529E1,-7.738915631E0,-1.162612998E0,1.642162449E0,7.996197949E0
1.563101229E1,-8.202420323E0,-1.147866320E0,1.380505396E0,8.396611899E0
1.564104929E1,-8.456209363E0,-1.080813375E0,1.204695994E0,8.609699575E0
1.565108629E1,-8.455273808E0,-9.458157831E-1,9.464127839E-1,8.560485957E0
1.566112329E1,-8.315684983E0,-1.005494805E0,7.710056698E-1,8.411663705E0
1.567116029E1,-8.173385389E0,-1.166267508E0,6.398654866E-1,8.280932101E0
1.568119629E1,-7.950442750E0,-1.243138513E0,4.713931704E-1,8.060840205E0
1.569123329E1,-7.392336541E0,-1.117313449E0,1.400629978E-1,7.477609680E0
1.570127029E1,-6.651433507E0,-9.573008841E-1,-1.543056822E-1,6.721741064E0
1.571130729E1,-6.007207752E0,-8.338152909E-1,-1.220501018E-1,6.066027460E0
1.572134429E1,-5.780569088E0,-7.079399407E-1,2.102588217E-1,5.827552378E0
1.573138129E1,-5.878022293E0,-8.392888695E-1,5.964195414E-1,5.967517755E0
1.574141829E1,-6.190319742E0,-1.134321245E0,6.831968629E-1,6.330363429E0
1.575145429E1,-6.770378737E0,-1.330937964E0,5.340437837E-1,6.920594402E0
1.576149129E1,-7.459738566E0,-1.461910917E0,4.248435231E-1,7.613499525E0
1.577152829E1,-8.004029558E0,-1.791497998E0,5.379205243E-1,8.219690550E0
1.578156529E1,-8.142388129E0,-2.054565400E0,8.582356755E-1,8.441344200E0
1.579160229E1,-7.744002709E0,-2.131360976E0,1.022334274E0,8.096755210E0
1.580163929E1,-7.591457623E0,-2.074348869E0,1.196133404E0,7.960143667E0
1.581167629E1,-7.708417724E0,-1.957377074E0,1.714665585E0,8.135791718E0
1.582171229E1,-7.484013281E0,-2.209219576E0,2.403935366E0,8.165170615E0
1.583174929E1,-6.688146420E0,-2.693341550E0,2.687858616E0,7.694801829E0
1.584178629E1,-5.922007973E0,-2.865858386E0,2.264300348E0,6.957756735E0
1.585182329E1,-5.714151735E0,-2.721565475E0,1.854048149E0,6.595145429E0
1.586186029E1,-5.762802324E0,-2.720276164E0,2.286899836E0,6.770502485E0
1.587189729E1,-5.698868283E0,-2.926094062E0,3.327514772E0,7.218828210E0
1.588193429E1,-5.570213166E0,-2.927234854E0,4.345485781E0,7.647171064E0
1.589197029E1,-5.153779730E0,-3.006851712E0,5.210907612E0,7.921878620E0
1.590200729E1,-4.219264861E0,-3.484436499E0,5.627771988E0,7.849542103E0
1.591204429E1,-3.039102615E0,-3.831286315E0,5.424548500E0,7.303466708E0
1.592208129E1,-1.161738839E0,-4.141233768E0,4.863864838E0,6.492814137E0
1.593211829E1,1.106440551E0,-4.256614535E0,4.137302685E0,6.038232482E0
1.594215529E1,2.679773086E0,-3.925588455E0,3.574231020E0,5.946978720E0
1.595219129E1,3.412000314E0,-3.445945448E0,3.516018480E0,5.989880811E0
1.596222829E1,3.384048869E0,-3.123859760E0,3.860756282E0,6.009636063E0
1.597226529E1,2.854039993E0,-2.988342935E0,4.172350895E0,5.872329161E0
1.598230229E1,1.853399254E0,-2.875763569E0,4.252869394E0,5.458205106E0
1.599233929E1,4.379722399E-1,-2.886947538E0,4.404850223E0,5.284788667E0
1.600237629E1,-3.097398770E-1,-3.505002326E0,4.702306269E0,5.873045577E0
1.601241329E1,5.442447996E-1,-4.473052731E0,4.545405593E0,6.400399608E0
1.602244929E1,3.399677015E0,-5.446187875E0,3.568409532E0,7.345223807E0
1.603248629E1,6.046111032E0,-4.975000527E0,1.988825300E0,8.078459935E0
1.604252329E1,7.233040261E0,-3.587943326E0,1.156141592E0,8.156400683E0
1.605256029E1,7.532383788E0,-2.614796487E0,1.983838356E0,8.216421412E0
1.606259729E1,7.055368520E0,-2.581938059E0,3.427271487E0,8.257773243E0
1.607263429E1,6.010737131E0,-3.017731041E0,3.962527070E0,7.806233553E0
1.608267129E1,4.646260707E0,-3.120787632E0,3.287344693E0,6.491046845E0
1.609270729E1,3.408062507E0,-3.555752649E0,2.323443911E0,5.445792739E0
1.610274429E1,2.911978884E0,-4.354519145E0,1.501215316E0,5.449321557E0
1.611278129E1,3.886245464E0,-4.938185872E0,5.336686483E-1,6.306614444E0
1.612281829E1,5.576186682E0,-4.653984879E0,-7.665850286E-1,7.303498187E0
1.613285529E1,6.907246268E0,-3.674312548E0,-1.502552282E0,7.966698631E0
1.614289229E1,7.755381975E0,-3.032368376E0,-1.007742182E0,8.387893171E0
1.615292929E1,8.039205823E0,-2.848421111E0,1.484020409E-1,8.530202592E0
1.616296529E1,7.804247156E0,-3.004163162E0,9.280674371E-1,8.413832608E0
1.617300229E1,7.371122843E0,-3.294501978E0,7.489531884E-1,8.108521821E0
1.618303929E1,6.945381809E0,-3.657980105E0,-1.985807991E-1,7.852297833E0
1.619307629E1,6.672575870E0,-3.980333888E0,-1.332407370E0,7.882996638E0
1.620311329E1,6.554397794E0,-4.230610213E0,-2.063968892E0,8.069582443E0
1.621315029E1,6.640652411E0,-4.338058940E0,-2.385772598E0,8.283050809E0
1.622318729E1,6.930066197E0,-4.294996244E0,-2.441798426E0,8.510886545E0
1.623322329E1,7.327062904E0,-4.255957016E0,-2.448653702E0,8.820143189E0
1.624326029E1,7.633548220E0,-4.198968883E0,-2.558753849E0,9.080177276E0
1.625329729E1,7.755745672E0,-4.167076999E0,-2.691327769E0,9.206485041E0
1.626333429E1,7.745618294E0,-4.256087701E0,-2.723271985E0,9.247977919E0
1.627337129E1,7.518762699E0,-4.400403416E0,-2.663261426E0,9.109791665E0
1.628340829E1,7.123989689E0,-4.325239505E0,-2.508849617E0,8.703634428E0
1.629344529E1,6.692620125E0,-4.162927523E0,-2.042308466E0,8.141999359E0
1.630348129E1,6.228376345E0,-4.117646100E0,-1.355870784E0,7.588548404E0
1.631351829E1,5.779276854E0,-4.095868438E0,-7.956777039E-1,7.128063006E0
1.632355529E1,5.518862919E0,-4.093580714E0,-4.802446854E-1,6.888097411E0
1.633359229E1,5.305855869E0,-4.120915863E0,-3.093685788E-1,6.725307649E0
1.634362929E1,5.076709335E0,-4.247016331E0,-1.070189568E-1,6.619786888E0
1.635366629E1,4.806902432E0,-4.324782545E0,3.119463238E-1,6.473589851E0
1.636370329E1,4.597463354E0,-4.338848607E0,8.612901878E-1,6.379976278E0
1.637373929E1,4.491156296E0,-4.478352063E0,1.454896013E0,6.507137963E0
1.638377629E1,4.625914151E0,-4.407775585E0,1.781702450E0,6.633402668E0
1.639381329E1,4.585991117E0,-4.089340898E0,1.767089381E0,6.393483275E0
1.640385029E1,4.001378310E0,-4.090296333E0,1.555835035E0,5.929770242E0
1.641388729E1,3.470106727E0,-4.310588429E0,1.171876742E0,5.656510267E0
1.642392429E1,3.185166062E0,-4.421573845E0,7.286940479E-1,5.497871690E0
1.643396129E1,3.054560899E0,-4.498122668E0,5.505457592E-1,5.465029776E0
1.644399729E1,3.307354742E0,-4.483308163E0,7.913797081E-1,5.627159969E0
1.645403429E1,3.764855513E0,-4.248064737E0,1.328610188E0,5.829699484E0
1.646407129E1,4.103347319E0,-4.013965026E0,2.132976269E0,6.123639622E0
