"Time (s)","Linear Acceleration x (m/s^2)","Linear Acceleration y (m/s^2)","Linear Acceleration z (m/s^2)","Absolute acceleration (m/s^2)"
6.353625000E-3,-2.106142867E-2,3.940484310E-3,4.769924641E-2,5.229081470E-2
1.638962500E-2,-9.241245682E-3,-3.880262556E-3,3.497570515E-2,3.638347166E-2
2.642662500E-2,2.687889661E-2,-1.338344980E-2,1.521796346E-2,3.366271265E-2
3.646362500E-2,3.068722928E-2,8.733259686E-3,1.447068930E-2,3.503393661E-2
4.650062500E-2,2.273347196E-2,2.197166199E-2,3.033710897E-2,4.381671894E-2
5.653762500E-2,2.603409272E-2,3.391964318E-2,6.132384360E-2,7.475914640E-2
6.657462500E-2,4.599557333E-2,4.306515898E-2,2.958925009E-2,6.961123763E-2
7.661162500E-2,3.032868076E-2,3.701620982E-3,3.288123250E-2,4.488548011E-2
8.664862500E-2,-1.043193979E-2,4.022687939E-3,4.051477253E-2,4.202920627E-2
9.668562500E-2,-4.987928940E-2,-1.859931691E-2,2.060558796E-2,5.708299533E-2
1.067226250E-1,-3.405073045E-2,-2.220027442E-2,3.841913044E-2,5.593151180E-2
1.167596250E-1,-2.912324070E-2,-2.578272640E-2,2.958749592E-2,4.887056420E-2
1.267966250E-1,-2.185588255E-2,-2.249351685E-2,2.404959798E-2,3.952241219E-2
1.368336250E-1,5.393773215E-3,3.433265761E-3,3.842146933E-2,3.894983195E-2
1.468706250E-1,3.996818578E-2,2.301118273E-2,3.558089197E-2,5.824920839E-2
1.569076250E-1,4.489782255E-2,2.688238667E-2,3.977276087E-2,6.572936703E-2
1.669446250E-1,6.402591961E-2,1.003786486E-2,5.264657557E-2,8.349694026E-2
1.769806250E-1,2.303087597E-2,7.747748033E-3,3.603054285E-2,4.345858794E-2
1.870176250E-1,-6.789393956E-3,-1.404126612E-3,2.285735071E-2,2.388568448E-2
1.970546250E-1,4.061073996E-5,-6.022134195E-3,4.066855431E-2,4.111203059E-2
2.070916250E-1,-3.207883006E-3,-7.918139552E-3,2.824263632E-2,2.950650697E-2
2.171286250E-1,-1.949412363E-2,-1.988885636E-2,4.171579063E-2,5.015769783E-2
2.271656250E-1,-3.316252925E-2,-6.955185360E-3,2.779649377E-2,4.382662451E-2
2.372026250E-1,6.745836767E-3,-3.859527782E-3,1.118279994E-2,1.361827018E-2
2.472396250E-1,1.356284968E-2,2.693222961E-3,3.199070156E-2,3.485124571E-2
2.572766250E-1,9.132793536E-3,1.152403522E-2,5.145140469E-2,5.351129180E-2
2.673136250E-1,5.067781806E-3,4.271952915E-3,4.007506192E-2,4.061948525E-2
2.773506250E-1,1.906714898E-2,2.278093034E-2,4.785887539E-2,5.632937876E-2
2.873876250E-1,2.454286544E-2,1.693469227E-2,3.962599576E-2,4.959189032E-2
2.974246250E-1,4.263670882E-3,1.639122098E-2,3.662988245E-2,4.035590791E-2
3.074616250E-1,2.073354148E-3,-7.516645971E-3,2.869521081E-2,2.973573419E-2
3.174986250E-1,-1.631838660E-2,-2.871329607E-2,3.812501550E-2,5.044065740E-2
3.275346250E-1,-3.150649271E-2,-1.003213185E-2,2.689894617E-2,4.262459451E-2
3.375716250E-1,-1.938552987E-2,-2.637997380E-2,2.615050256E-2,4.189929081E-2
3.476086250E-1,-4.823689332E-2,-2.366159411E-2,2.749828577E-2,6.035581689E-2
3.576456250E-1,-3.350452742E-2,-1.914924297E-2,9.386535287E-3,3.971591505E-2
3.676826250E-1,6.052768123E-3,-8.189381836E-3,3.528443813E-2,3.672456332E-2
3.777196250E-1,2.407481410E-3,-1.847080607E-3,3.094404995E-2,3.109247338E-2
3.877566250E-1,5.736826616E-3,8.236936145E-3,4.845821500E-2,4.948693663E-2
3.977936250E-1,2.474850013E-2,2.595097546E-2,4.741097867E-2,5.944528817E-2
4.078306250E-1,2.436924881E-2,1.693049415E-2,1.358191252E-2,3.263388220E-2
4.178676250E-1,2.921253408E-2,1.334880504E-2,1.942035735E-2,3.753282594E-2
4.279046250E-1,6.380993351E-3,6.235690042E-4,1.478000700E-2,1.611069587E-2
4.379416250E-1,-2.165534133E-2,-1.682493364E-2,3.423895597E-2,4.386728059E-2
4.479786250E-1,-2.944981227E-2,-3.121794176E-2,3.184569061E-2,5.344155069E-2
4.580156250E-1,-4.027935358E-2,-3.284439047E-2,1.657744110E-2,5.455265222E-2
4.680526250E-1,-4.165739613E-2,-1.358940426E-2,3.633693695E-2,5.692436691E-2
4.780896250E-1,-7.258770056E-3,-7.952327491E-3,5.100818574E-2,5.213218073E-2
4.881256250E-1,3.619893353E-2,8.867658852E-3,4.202686250E-2,5.617165952E-2
4.981626250E-1,4.854633437E-2,2.679879889E-2,4.232507050E-2,6.975911263E-2
5.081996250E-1,5.444851384E-2,3.247094982E-2,9.393551946E-3,6.408776842E-2
5.182366250E-1,4.743224335E-2,2.566315998E-2,2.780351043E-2,6.067495926E-2
5.282736250E-1,2.057778628E-2,2.301356273E-2,4.771035612E-2,5.682734763E-2
5.383106250E-1,-5.500521446E-3,-5.140611618E-3,2.046525478E-2,2.180615228E-2
5.483476250E-1,-2.448598756E-2,-3.615070313E-2,4.800622523E-2,6.489248481E-2
5.583846250E-1,-2.662637912E-2,-3.009945163E-2,4.441428065E-2,5.989632192E-2
5.684216250E-1,-3.043611878E-2,-1.407055702E-2,2.480564296E-2,4.170920550E-2
5.784586250E-1,-1.582475826E-3,2.442272343E-3,2.315965176E-2,2.334177357E-2
5.884956250E-1,1.939278407E-2,1.571929825E-2,3.019619107E-2,3.917890206E-2
5.985326250E-1,4.607908345E-2,3.046904134E-2,2.346136808E-2,6.001733253E-2
6.085696250E-1,4.290489502E-2,2.692764320E-2,4.741331756E-2,6.938263953E-2
6.186066250E-1,3.792619189E-2,3.547050293E-2,2.795436859E-2,5.897456514E-2
6.286436250E-1,1.939348756E-2,3.139744671E-3,3.139603972E-2,3.703615351E-2
6.386796250E-1,-3.239544765E-3,-2.762583730E-2,3.678366423E-2,4.611636901E-2
6.487166250E-1,-3.321996444E-2,-3.523553622E-2,2.046642423E-2,5.257360147E-2
6.587536250E-1,-4.942562312E-2,-4.265488087E-2,5.175019741E-2,8.330914725E-2
6.687906250E-1,-4.679472326E-2,-2.356792902E-2,2.375957608E-2,5.753008655E-2
6.788276250E-1,-2.611602683E-2,-2.261084032E-2,1.867249846E-2,3.926778777E-2
6.888649583E-1,-1.699833099E-2,-3.646848560E-2,8.045768738E-3,4.103203740E-2
6.989019583E-1,5.054388028E-3,-1.999319262E-2,-1.365617216E-2,2.473389632E-2
7.089389583E-1,-2.351841498E-3,-3.042558465E-2,3.798643649E-2,4.872593474E-2
7.189759583E-1,-9.218263384E-3,1.643835502E-2,8.618620455E-2,8.822277343E-2
7.290129583E-1,-1.868643128E-2,3.528109882E-2,4.621931612E-2,6.107506718E-2
7.390499583E-1,2.184543065E-2,4.915087251E-4,3.454242647E-2,4.087350789E-2
7.490869583E-1,7.683569360E-2,2.526966977E-2,2.526114106E-2,8.473727202E-2
7.591239583E-1,5.681094885E-2,4.453460539E-2,-1.321002960E-2,7.338473866E-2
7.691609583E-1,1.394747313E-2,-1.379162656E-2,1.606814861E-3,1.968051889E-2
7.791979583E-1,-1.509015611E-2,1.478820224E-3,1.164186484E-1,1.174018799E-1
7.892339583E-1,-6.190587453E-2,1.572337302E-2,2.061728239E-2,6.711657093E-2
7.992709583E-1,-4.708210020E-2,-3.367372208E-2,1.307437420E-3,5.789950873E-2
8.093079583E-1,-1.181977642E-2,-5.251453356E-2,8.498577118E-2,1.005985321E-1
8.193449583E-1,6.194553967E-3,6.529709059E-3,-4.255018830E-2,4.349170178E-2
8.293819583E-1,2.271787634E-2,4.850650478E-2,2.855429292E-2,6.069868660E-2
8.394189583E-1,8.345433058E-2,3.256554681E-2,6.223600924E-2,1.090800668E-1
8.494559583E-1,1.026380219E-1,5.876797996E-2,3.258653283E-3,1.183167690E-1
8.594929583E-1,4.209317815E-2,2.823092819E-2,4.367402315E-2,6.690471771E-2
8.695299583E-1,2.778275281E-2,4.573904502E-2,5.789386690E-2,7.883933927E-2
8.795669583E-1,-5.936061353E-3,-1.103102814E-2,1.463265717E-2,1.926227043E-2
8.896039583E-1,-8.339408599E-2,-5.200657954E-2,4.891020477E-2,1.097791694E-1
8.996409583E-1,-1.116287920E-1,-9.022374351E-2,1.507996917E-2,1.443215735E-1
9.096779583E-1,-1.317763237E-1,-7.328118034E-2,6.896790862E-2,1.658062222E-1
9.197149583E-1,-6.691651808E-2,-4.064718456E-2,1.909115911E-3,7.831767826E-2
9.297519583E-1,-2.662526906E-2,-2.044824761E-2,4.277706027E-2,5.437750149E-2
9.397889583E-1,3.337859758E-2,7.872554110E-3,2.271994114E-2,4.113761794E-2
9.498249583E-1,7.073755473E-2,6.992443088E-2,5.041410863E-2,1.115114794E-1
9.598619583E-1,9.677657191E-2,9.530205944E-2,3.185095310E-2,1.395086758E-1
9.698989583E-1,1.190657012E-1,7.627743525E-2,2.810522676E-2,1.441693174E-1
9.799359583E-1,7.000293888E-2,4.507334865E-2,5.145374358E-2,9.787495052E-2
9.899729583E-1,-4.593906091E-3,-8.483898779E-4,1.447770596E-2,1.521274822E-2
1.000009958E0,-6.156355203E-2,-3.092648547E-2,4.321501672E-2,8.132684743E-2
1.010046958E0,-8.432026668E-2,-4.316505044E-2,2.959100425E-2,9.924090127E-2
1.020083958E0,-7.919032166E-2,-6.926743224E-2,3.019092858E-2,1.094558193E-1
1.030120958E0,-7.469626134E-2,-6.634762511E-2,4.501245081E-2,1.095794668E-1
1.040157958E0,-2.111063207E-2,-1.942868506E-2,3.693218350E-2,4.676664162E-2
1.050194958E0,2.721980756E-2,2.894173034E-2,3.843257904E-2,5.527752536E-2
1.060231958E0,5.827590935E-2,5.178682473E-2,4.442012787E-2,8.972794763E-2
1.070268958E0,7.551989648E-2,4.322200597E-2,3.648779511E-2,9.435441568E-2
1.080305958E0,8.221137699E-2,4.286076682E-2,2.046876311E-2,9.494591145E-2
1.090342958E0,3.770673401E-2,3.049304690E-2,2.151424527E-2,5.305173370E-2
1.100378958E0,-9.702554452E-3,7.424232555E-3,2.420688808E-2,2.711516591E-2
1.110415958E0,-4.758174021E-2,-5.202397501E-2,3.812618494E-2,8.015062043E-2
1.120452958E0,-9.420001460E-2,-7.562570368E-2,2.076229334E-2,1.225722751E-1
1.130489958E0,-9.775287420E-2,-4.674942561E-2,2.450568080E-2,1.110930313E-1
1.140526958E0,-5.431761844E-2,-9.059447525E-3,3.513474941E-2,6.532172593E-2
1.150563958E0,-8.871633131E-3,5.861513922E-4,4.067557096E-2,4.163594026E-2
1.160600958E0,2.203452413E-2,2.581217261E-2,1.642833710E-2,3.770515573E-2
1.170637958E0,6.461117565E-2,4.301727120E-2,2.451386690E-2,8.140036431E-2
1.180674958E0,7.389068861E-2,5.233263948E-2,2.062196016E-2,9.286444023E-2
1.190711958E0,6.220349781E-2,4.160991491E-2,2.720592499E-2,7.962928176E-2
1.200748958E0,2.811862510E-2,4.272738635E-3,2.331109464E-2,3.677391068E-2
1.210785958E0,-2.778366644E-2,-1.583610551E-2,3.857758999E-2,5.010932855E-2
1.220822958E0,-4.933712460E-2,-3.294590819E-2,4.037268519E-2,7.176028456E-2
1.230859958E0,-7.602697799E-2,-4.016545622E-2,4.112112880E-2,9.531165977E-2
1.240896958E0,-4.881084778E-2,-3.344258804E-2,2.869813442E-2,6.576084303E-2
1.250932958E0,-1.350424962E-2,-8.484625113E-3,3.708187222E-2,4.036606085E-2
1.260969958E0,4.383207156E-2,4.864865150E-3,3.498681486E-2,5.629382403E-2
1.271006958E0,4.991293830E-2,3.808003762E-2,2.286436737E-2,6.681444432E-2
1.281043958E0,7.810094884E-2,4.069412674E-2,2.526172578E-2,9.161836579E-2
1.291080958E0,3.969612580E-2,4.801293125E-2,1.957413912E-2,6.530061939E-2
1.301117958E0,6.186038959E-3,1.381218775E-2,2.990324557E-2,3.351488779E-2
1.311154958E0,-1.288689785E-3,2.024379149E-3,3.349460542E-2,3.358046195E-2
1.321191958E0,-4.051793369E-2,-2.714732492E-2,2.106810272E-2,5.312763078E-2
1.331228958E0,-6.576581801E-2,-4.082184272E-2,4.127432585E-2,8.772192221E-2
1.341265958E0,-5.634933859E-2,-2.840337080E-2,2.465887785E-2,6.774997925E-2
1.351302958E0,-3.460582308E-2,-1.341210572E-2,2.825316131E-2,4.664427826E-2
1.361339958E0,2.945909472E-3,5.708033647E-3,3.020145357E-2,3.087697894E-2
1.371376958E0,2.882178933E-2,1.730530524E-2,3.379573703E-2,4.766886794E-2
1.381413958E0,3.691461445E-2,3.720463178E-2,3.199947238E-2,6.140716260E-2
1.391450958E0,5.965392906E-2,3.324107381E-2,2.960386813E-2,7.443083533E-2
1.401486958E0,2.955242633E-2,1.159075743E-2,3.484063447E-2,4.713344216E-2
1.411523958E0,6.571059837E-3,2.389505790E-3,1.822343230E-2,1.951876149E-2
1.421560958E0,-2.608661260E-2,-1.874034444E-2,2.376016080E-2,3.995318645E-2
1.431597958E0,-2.993157716E-2,-3.148541533E-2,2.630311489E-2,5.078468807E-2
1.441634958E0,-3.988395390E-2,-3.717488407E-2,3.243976772E-2,6.344320542E-2
1.451671958E0,-3.462501382E-2,-2.171089444E-2,2.974654019E-2,5.054810751E-2
1.461708958E0,-6.302192984E-3,1.736462707E-2,3.872961760E-2,4.290956990E-2
1.471745958E0,8.099124581E-3,3.924673987E-3,3.499032319E-2,3.612923472E-2
1.481782958E0,4.448237787E-2,1.159199540E-2,2.496293306E-2,5.230874043E-2
1.491819958E0,4.888302892E-2,2.512670078E-2,3.484238863E-2,6.507606053E-2
1.501856958E0,3.597529123E-2,2.593391804E-2,4.337464571E-2,6.203345528E-2
1.511893958E0,1.246866204E-2,2.426747072E-2,3.603814423E-2,4.520094587E-2
1.521930958E0,5.463524102E-3,1.604593376E-2,3.319288909E-2,3.727049734E-2
1.531967958E0,-1.599682629E-2,-5.815928481E-3,3.663514495E-2,4.039625380E-2
1.542004958E0,-5.377549019E-2,-2.609798269E-2,3.903016448E-2,7.138810675E-2
1.552041958E0,-4.998479967E-2,-1.711585089E-2,4.052763641E-2,6.658770053E-2
1.562077958E0,-2.888459208E-2,-2.283112503E-2,4.277355194E-2,5.643719231E-2
1.572114958E0,-5.461669439E-3,-7.354394873E-3,2.720709443E-2,2.870788993E-2
1.582151958E0,1.131853300E-2,1.064846949E-2,3.169892550E-2,3.530327137E-2
1.592188958E0,4.193660525E-2,3.126249480E-2,3.843608737E-2,6.491036322E-2
1.602225958E0,5.261620659E-2,3.065825358E-2,3.005293429E-2,6.790856035E-2
1.612262958E0,3.381910762E-2,2.839927318E-2,4.172806978E-2,6.075757208E-2
1.622299958E0,7.097738651E-3,2.566398224E-2,2.840460420E-2,3.893378248E-2
1.632336958E0,-8.101618784E-3,-2.445369540E-3,3.005293429E-2,3.122170589E-2
1.642373958E0,-2.208019179E-2,-1.395287724E-2,2.810581148E-2,3.836866288E-2
1.652410958E0,-3.219621291E-2,-3.660536526E-2,3.948098481E-2,6.273194603E-2
1.662447958E0,-3.844202138E-2,-1.834727450E-2,3.379164398E-2,5.437174535E-2
1.672484958E0,-1.948473154E-2,-1.742427781E-2,2.885133147E-2,3.893147246E-2
1.682521958E0,9.601082420E-4,-1.181653761E-3,4.007915497E-2,4.010806373E-2
1.692558458E0,1.323394380E-2,1.448499670E-2,2.780584931E-2,3.403112772E-2
1.702595458E0,4.276052818E-2,2.626387002E-2,2.092016816E-2,5.436825429E-2
1.712631458E0,2.946451710E-2,2.429098292E-2,1.822577119E-2,4.231298092E-2
1.722668458E0,2.690216213E-2,2.669205066E-2,3.992946625E-2,5.505046931E-2
1.732705458E0,3.721204586E-5,1.180006034E-2,4.920899749E-2,5.060403386E-2
1.742742458E0,-1.168036144E-2,3.750714753E-3,2.361164153E-2,2.660842574E-2
1.752779458E0,-2.036685254E-2,-1.258971311E-2,2.061669767E-2,3.159680018E-2
1.762816458E0,-3.056714209E-2,-1.453198456E-2,2.525704801E-2,4.223087999E-2
1.772853458E0,-2.249126476E-2,-2.781415419E-2,2.824965298E-2,4.557989751E-2
1.782890458E0,-2.690456954E-2,-1.775921820E-2,2.525704801E-2,4.095319484E-2
1.792927458E0,-3.104933181E-2,8.890659423E-3,4.202335417E-2,5.300063327E-2
1.802964458E0,-3.337403401E-3,8.560364828E-3,4.067615569E-2,4.170093223E-2
1.813001458E0,1.773287832E-2,1.087422683E-2,2.466121674E-2,3.226266253E-2
1.823038458E0,1.335546082E-2,1.394557735E-2,3.738475800E-2,4.207692470E-2
1.833075458E0,3.037070762E-2,2.208742772E-2,3.124635100E-2,4.885252087E-2
1.843112458E0,-3.560182317E-3,1.770241798E-2,2.690420866E-2,3.240195895E-2
1.853149458E0,-8.641421855E-3,-7.027060431E-3,2.869871914E-2,3.078425296E-2
1.863185458E0,-2.975344264E-2,-1.814539481E-2,3.453482509E-2,4.906298855E-2
1.873222458E0,-3.543073273E-2,-1.347930302E-2,4.366583705E-2,5.782502708E-2
1.883259458E0,-2.300046588E-2,-9.187990339E-3,2.555467129E-2,3.558766390E-2
1.893296458E0,-3.769183732E-3,-1.522107893E-3,2.226151943E-2,2.262960021E-2
1.903333458E0,1.353776604E-2,8.540315274E-4,3.438689053E-2,3.696564242E-2
1.913370458E0,9.195468379E-3,9.072864144E-3,3.393723965E-2,3.631266635E-2
1.923407458E0,1.821843019E-2,2.644154772E-2,2.346078336E-2,3.976776333E-2
1.933444458E0,2.396189431E-2,9.554510261E-3,2.795202971E-2,3.803652205E-2
1.943481458E0,1.997325270E-2,1.669385094E-2,4.052471280E-2,4.816500628E-2
1.953518458E0,1.439675856E-2,5.417806185E-3,3.154163539E-2,3.509264943E-2
1.963555458E0,-1.644792070E-2,-2.825082242E-3,4.022299647E-2,4.354772819E-2
1.973592458E0,-3.463964556E-2,-1.302008189E-2,2.285968959E-2,4.349704571E-2
1.983629458E0,-1.084193010E-2,-5.635720035E-3,3.752976894E-2,3.946887819E-2
1.993666458E0,-2.227748507E-2,-1.293411868E-2,4.171988368E-2,4.903189229E-2
2.003702458E0,-9.988688864E-3,-1.790307797E-3,4.321677089E-2,4.439221095E-2
2.013739458E0,1.816901208E-2,6.796885701E-3,4.561120570E-2,4.956503546E-2
2.023776458E0,2.091146129E-2,1.267382165E-2,2.689953089E-2,3.635243775E-2
2.033813458E0,1.902611340E-2,2.123646598E-2,3.198836267E-2,4.285132232E-2
2.043850458E0,2.471285953E-2,2.399550210E-2,2.959275842E-2,4.541190260E-2
2.053887458E0,1.679365103E-2,2.361467477E-2,3.513065636E-2,4.553946196E-2
2.063924458E0,6.469660895E-3,-8.155358350E-4,3.977042198E-2,4.030146493E-2
2.073961458E0,2.706785761E-3,-2.021614056E-2,2.375372887E-2,3.130908276E-2
2.083998458E0,-2.289956943E-2,-9.379888647E-3,4.650524497E-2,5.267931663E-2
2.094035458E0,-2.555431954E-2,-4.975427776E-3,2.524944663E-2,3.626723982E-2
2.104072458E0,-1.211945993E-2,-6.885206066E-3,3.902080894E-2,4.143562358E-2
2.114109458E0,-2.112612720E-3,-1.311436367E-2,3.632758141E-2,3.868000566E-2
2.124146458E0,-4.201503103E-3,-4.544437733E-3,3.513065636E-2,3.567166325E-2
2.134183458E0,1.696608908E-2,8.594639562E-3,3.917283654E-2,4.354569015E-2
2.144220458E0,3.087331235E-2,2.198813469E-3,4.082058191E-2,5.122807925E-2
2.154256458E0,8.591451002E-3,1.768439211E-2,3.842380822E-2,4.316178625E-2
2.164293458E0,8.116652523E-3,-2.890342651E-3,5.893057823E-2,5.955709177E-2
2.174330458E0,-5.025293562E-3,-4.545803606E-3,4.935050011E-2,4.981355003E-2
2.184367458E0,-8.893185603E-3,-1.184700709E-4,2.075761557E-2,2.258276753E-2
2.194404458E0,7.340585394E-4,2.373471628E-3,2.928870320E-2,2.939388278E-2
2.204441458E0,-6.972539714E-3,1.788603882E-3,3.497570515E-2,3.570875753E-2
2.214478458E0,1.215924384E-2,-3.432790674E-3,4.275834918E-2,4.458595841E-2
2.224515458E0,-5.665586516E-3,-5.039833942E-3,2.554414630E-2,2.664586660E-2
2.234552458E0,9.271797384E-3,5.592729296E-3,3.078559041E-2,3.263429829E-2
2.244589458E0,1.874967257E-2,1.634765466E-2,3.168430746E-2,4.028264358E-2
2.254626458E0,3.583904654E-3,5.543215256E-3,3.138551474E-2,3.207213967E-2
2.264663458E0,3.070002920E-3,6.411097376E-3,2.015944541E-2,2.137592867E-2
2.274700458E0,5.987123991E-3,7.828846173E-3,2.929045737E-2,3.090416443E-2
2.284737458E0,2.086773965E-2,-1.796602691E-4,3.318236411E-2,3.919903218E-2
2.294773458E0,2.155059851E-3,8.260585391E-3,3.393139243E-2,3.498886889E-2
2.304810458E0,-8.590761214E-3,1.470631381E-2,3.363201499E-2,3.769866412E-2
2.314847458E0,-1.112852590E-2,2.474847729E-3,3.333205283E-2,3.522775476E-2
2.324884458E0,2.731270976E-3,-1.307236422E-3,2.150722861E-2,2.171933680E-2
2.334921458E0,-4.746331125E-3,1.465983302E-2,4.201575279E-2,4.475222727E-2
2.344958458E0,-3.717810460E-3,1.826143920E-2,3.737481773E-2,4.176337243E-2
2.354995458E0,1.595246054E-2,1.456969453E-2,3.842380822E-2,4.408113013E-2
2.365032458E0,7.260597311E-4,4.526608293E-3,3.752567589E-2,3.780467824E-2
2.375069458E0,-6.020083101E-3,1.864398415E-3,2.974186242E-2,3.040223285E-2
2.385106458E0,-1.652779915E-2,2.618538486E-3,4.321384728E-2,4.634071088E-2
2.395143458E0,4.862932828E-3,7.064318159E-3,2.944248497E-2,3.066614792E-2
2.405180458E0,-1.869903021E-3,-5.022785654E-3,5.204665124E-2,5.232187706E-2
2.415217458E0,-1.026501548E-3,-4.168004952E-3,2.375606775E-2,2.414076896E-2
2.425254458E0,5.718348501E-4,6.559465905E-3,1.193007410E-2,1.362645427E-2
2.435291458E0,9.828246748E-3,-1.093115039E-2,3.213805139E-2,3.534032867E-2
2.445327458E0,9.234886835E-3,-2.452463857E-3,4.156902552E-2,4.265303736E-2
2.455364458E0,-2.031213082E-3,-2.630516142E-3,1.761883020E-2,1.792954599E-2
2.465401458E0,1.709867469E-3,-1.434586952E-3,2.330641687E-2,2.341304666E-2
2.475438458E0,6.704495125E-3,9.594554552E-3,3.932310998E-2,4.102819410E-2
2.485475458E0,-2.386148209E-3,3.082547025E-3,3.034178674E-2,3.059117229E-2
2.495512458E0,-2.578273554E-2,-7.372365925E-3,3.737715662E-2,4.600166375E-2
2.505549458E0,9.554304695E-4,4.935461143E-4,3.602878869E-2,3.604483388E-2
2.515586458E0,-8.487964422E-3,-6.206453964E-3,2.929279625E-2,3.112287781E-2
2.525623458E0,-1.293346544E-2,-2.219991353E-3,2.510268152E-2,2.832573934E-2
2.535660458E0,-1.052234322E-2,9.488569200E-4,4.710633874E-2,4.827656974E-2
2.545697458E0,-6.358719114E-3,1.507885911E-2,2.824614465E-2,3.264429489E-2
2.555734458E0,-2.325277780E-3,1.426875936E-3,3.947338343E-2,3.956754846E-2
2.565771458E0,2.808344588E-3,8.584073461E-3,2.824672937E-2,2.965553636E-2
2.575808458E0,1.250535789E-2,2.374056350E-3,4.186723351E-2,4.375940312E-2
2.585844458E0,-1.305243344E-2,2.817841745E-3,5.623618126E-2,5.779977797E-2
2.595881458E0,7.685726434E-3,2.238062904E-3,2.734567344E-2,2.849324784E-2
2.605918458E0,1.184921807E-2,1.756981409E-2,3.557738364E-2,4.141077834E-2
2.615955458E0,6.998696867E-3,3.389932411E-3,4.051711142E-2,4.125663241E-2
2.625992458E0,3.615680616E-3,8.562114425E-3,2.554999352E-2,2.718795907E-2
2.636029458E0,1.528964667E-3,1.420736359E-4,3.333322227E-2,3.336857241E-2
2.646066458E0,-1.704013401E-2,8.159264107E-3,5.279275596E-2,5.607151541E-2
2.656103458E0,-2.040797034E-3,1.853014617E-3,2.435189903E-2,2.450741728E-2
2.666140458E0,-1.858473541E-3,1.577259470E-2,3.602644980E-2,3.937173799E-2
2.676177458E0,-4.462494487E-3,9.242296354E-3,3.782388389E-2,3.919158190E-2
2.686214958E0,-7.905568038E-3,1.591401966E-3,9.683573842E-3,1.260167325E-2
2.696251958E0,6.086540362E-4,4.176839730E-3,3.452956259E-2,3.478659430E-2
2.706288958E0,-1.610547029E-3,5.937386113E-3,2.060851157E-2,2.150714218E-2
2.716325958E0,-8.967193994E-3,7.593386108E-3,3.991952598E-2,4.161296235E-2
2.726362958E0,2.331865034E-3,-2.984121940E-3,3.303384483E-2,3.325022530E-2
2.736398958E0,-6.400892157E-3,-1.517242370E-2,2.749594688E-2,3.204997592E-2
2.746435958E0,-1.882515647E-3,-4.059036607E-3,3.528034508E-2,3.556293566E-2
2.756472958E0,1.041957384E-2,4.923995119E-5,3.213746667E-2,3.378441516E-2
2.766509958E0,3.010758748E-3,-8.870682959E-4,2.794501305E-2,2.812072745E-2
2.776546958E0,-1.101319870E-2,-1.044162881E-2,3.003890097E-2,3.365492133E-2
2.786583958E0,5.994688827E-3,-9.679425973E-5,3.482777059E-2,3.534005189E-2
2.796620958E0,7.473125327E-3,1.934501049E-3,4.006746054E-2,4.080430480E-2
2.806657958E0,-7.897688001E-3,7.324532960E-3,2.988979697E-2,3.177140573E-2
2.816694958E0,2.077369541E-3,2.659016750E-3,2.764622033E-2,2.785137937E-2
2.826731958E0,1.246978124E-2,-2.870028145E-3,4.381318688E-2,4.564348640E-2
2.836768958E0,-2.549970746E-3,-6.130129527E-3,3.123933434E-2,3.193707640E-2
2.846805958E0,-5.522462209E-3,1.214342438E-2,2.959217370E-2,3.246008454E-2
2.856842958E0,3.802284454E-3,1.348398536E-2,4.650699914E-2,4.857135161E-2
2.866878958E0,-5.732829496E-3,-3.038459932E-3,3.617672324E-2,3.675395050E-2
2.876915958E0,1.235963888E-2,4.220744097E-3,3.647668540E-2,3.874434065E-2
2.886952958E0,3.996708943E-3,-1.910705622E-3,2.569792807E-2,2.607696274E-2
2.896989958E0,-7.348949653E-3,-4.471416059E-3,2.330349326E-2,2.484055999E-2
2.907026958E0,1.308836184E-2,7.446018001E-4,3.827295005E-2,4.045588156E-2
2.917063958E0,1.798767988E-3,-1.316171698E-3,5.069711387E-2,5.074608585E-2
2.927100958E0,-5.643161531E-3,1.091770180E-2,3.078851402E-2,3.315077797E-2
2.937137958E0,4.526420999E-3,1.138238185E-3,3.258536339E-2,3.291792795E-2
2.947174958E0,-3.569802814E-3,1.416985005E-2,3.138785362E-2,3.462261541E-2
2.957211958E0,-4.102644045E-4,2.032697727E-3,2.659781456E-2,2.667852913E-2
2.967248958E0,-1.751789264E-3,-3.366717137E-3,2.345435143E-2,2.375942236E-2
2.977285958E0,2.096264727E-2,1.577738668E-2,3.438104331E-2,4.324829072E-2
2.987322958E0,1.226426988E-2,1.911352471E-2,3.707602501E-2,4.347839432E-2
2.997359958E0,1.078079472E-2,6.759454384E-3,3.213571250E-2,3.456327208E-2
3.007396958E0,-5.964922844E-3,1.810867613E-2,2.899224937E-2,3.469949537E-2
3.017432958E0,6.753986324E-3,9.890880478E-3,4.051769614E-2,4.225079347E-2
3.027469958E0,2.861663885E-3,9.078880381E-3,2.405193686E-2,2.586717720E-2
3.037506958E0,-6.215553693E-3,1.297102923E-2,2.884256065E-2,3.223001725E-2
3.047543958E0,-6.378969667E-3,-8.343104222E-3,5.803069174E-2,5.897338235E-2
3.057580958E0,3.519128468E-3,-5.367830764E-3,3.108555257E-2,3.174128937E-2
3.067617958E0,7.440239307E-3,3.008255409E-3,3.976749837E-2,4.056920863E-2
3.077654958E0,5.655088937E-3,3.293923871E-3,2.809177816E-2,2.884402825E-2
3.087691958E0,5.303831161E-3,-8.136459966E-3,1.896135092E-2,2.130411778E-2
3.097728958E0,8.190670051E-6,1.518590884E-2,1.746504843E-2,2.314389360E-2
3.107765958E0,8.642193871E-3,1.025228865E-2,3.183458090E-2,3.454326966E-2
3.117802958E0,8.385094539E-3,-2.234540870E-3,2.809119344E-2,2.940098862E-2
3.127839958E0,1.087646065E-2,7.015818246E-3,3.153461874E-2,3.408740648E-2
3.137876958E0,-3.202433218E-3,-3.817628827E-3,2.629492879E-2,2.676290620E-2
3.147913958E0,-4.631447042E-3,-1.306756767E-3,1.641430378E-2,1.710518294E-2
3.157949958E0,4.670024961E-3,1.076179584E-2,3.273212850E-2,3.477093066E-2
3.167986958E0,-1.302777006E-2,4.262359827E-3,3.303092122E-2,3.576216242E-2
3.178023958E0,-9.523620517E-3,2.778793308E-3,3.228306234E-2,3.377302406E-2
3.188060958E0,-1.080977042E-2,4.779774458E-3,3.617496908E-2,3.805687544E-2
3.198097958E0,-2.157850069E-2,7.911680206E-3,2.988745809E-2,3.770260636E-2
3.208134958E0,-5.611865222E-3,6.205750471E-3,3.677313924E-2,3.771297044E-2
3.218171958E0,1.305703812E-2,2.928093737E-3,3.273154378E-2,3.536119251E-2
3.228208958E0,2.195301028E-2,1.693706770E-2,1.431983113E-2,3.120667375E-2
3.238245958E0,8.077339134E-3,1.465621505E-2,4.261158407E-2,4.577985522E-2
3.248282958E0,-1.604574647E-2,-2.377217500E-3,3.392963827E-2,3.760767868E-2
3.258319958E0,-1.642049361E-2,6.788174263E-3,3.318236411E-2,3.764015419E-2
3.268356958E0,-1.852227984E-2,-5.957992980E-4,4.381026328E-2,4.756857151E-2
3.278393958E0,-7.920560664E-3,6.165148867E-3,4.291271567E-2,4.407091454E-2
3.288430958E0,-5.716155795E-4,-4.800929502E-4,3.512948692E-2,3.513741716E-2
3.298466958E0,2.154436757E-2,1.551261744E-3,3.542827964E-2,4.149372465E-2
3.308503958E0,2.174549351E-2,-3.415847453E-3,3.288357139E-2,3.957099656E-2
3.318540958E0,7.640643488E-3,9.350748500E-3,3.273388267E-2,3.489015627E-2
3.328577958E0,2.825776599E-3,8.087854986E-3,4.620586753E-2,4.699341024E-2
3.338614958E0,5.138245323E-3,6.733977883E-3,2.509975791E-2,2.649048641E-2
3.348651958E0,1.279738977E-2,5.413991790E-3,4.126555502E-2,4.354228432E-2
3.358688958E0,-9.449634966E-3,6.887485567E-3,2.509917319E-2,2.768937618E-2
3.368725958E0,-1.591623064E-2,-1.159347090E-2,2.225450277E-2,2.971527989E-2
3.378762958E0,-6.882524570E-3,7.806083146E-3,2.599672079E-2,2.800238508E-2
3.388799958E0,1.998957465E-3,-5.820583412E-4,3.692516685E-2,3.698381497E-2
3.398836958E0,5.601554937E-3,9.300731965E-3,3.273446739E-2,3.448806153E-2
3.408873958E0,8.079952109E-3,8.475278704E-3,2.704746544E-2,2.947340093E-2
3.418910958E0,1.204679457E-2,1.112626467E-2,5.039949059E-2,5.300026110E-2
3.428947958E0,1.056455738E-2,-1.041188110E-3,2.076053917E-2,2.331724538E-2
3.438983958E0,1.752821663E-3,-1.064069909E-3,1.492267907E-2,1.506290075E-2
3.449020958E0,-3.727097483E-4,6.560854618E-3,2.450275719E-2,2.536865854E-2
3.459057958E0,-4.786434802E-3,-5.555357365E-4,4.081882775E-2,4.110225391E-2
3.469094958E0,-4.278156445E-3,-1.329751857E-2,2.375431359E-2,2.755710501E-2
3.479131958E0,1.234085927E-2,-1.841192278E-2,3.108906090E-2,3.818148001E-2
3.489168958E0,-9.416863150E-3,-1.288285048E-2,2.974127769E-2,3.375187027E-2
3.499205958E0,-3.505880870E-3,6.016716384E-3,3.767419517E-2,3.831236169E-2
3.509242958E0,-3.205827344E-4,5.085433088E-4,3.542827964E-2,3.543337957E-2
3.519279958E0,8.089650264E-3,1.173501007E-2,3.587734580E-2,3.860488110E-2
3.529316958E0,9.369409340E-3,8.432982322E-3,2.944073081E-2,3.202589035E-2
3.539353958E0,4.036954232E-4,1.893780674E-3,5.069652915E-2,5.073349429E-2
3.549390958E0,1.063571525E-2,-8.500494822E-3,3.887112021E-2,4.118665849E-2
3.559427958E0,-9.584317356E-4,1.146747254E-2,3.602586508E-2,3.781910195E-2
3.569464958E0,5.570779396E-3,7.968046451E-3,2.300177693E-2,2.497208621E-2
3.579500958E0,-1.606029142E-3,-7.926846421E-3,2.734274983E-2,2.851385965E-2
3.589537958E0,-6.141042807E-3,8.091555177E-3,3.288006306E-2,3.441343079E-2
3.599574958E0,1.783486655E-2,1.552860592E-2,2.629258990E-2,3.536269716E-2
3.609611958E0,5.301533388E-3,-3.639864335E-3,2.793916583E-2,2.866970275E-2
3.619648958E0,5.119675845E-3,5.921233180E-3,2.898640215E-2,3.002471637E-2
3.629685958E0,5.857493961E-4,-1.020508152E-3,4.066095293E-2,4.067797478E-2
3.639722958E0,1.986949660E-2,-4.527161038E-4,3.871616900E-2,4.351946219E-2
3.649759958E0,-6.812764546E-3,-6.609391076E-3,2.779123127E-2,2.936750495E-2
3.659796958E0,-4.491049913E-3,4.558589822E-4,3.797123373E-2,3.823861827E-2
3.669833958E0,-6.060776068E-3,-7.575565805E-3,2.270415366E-2,2.469009512E-2
3.679870958E0,7.014498054E-3,-4.598236685E-3,2.944073081E-2,3.061214782E-2
3.689908333E0,3.695230158E-3,1.144660986E-2,3.288357139E-2,3.501440947E-2
3.699945333E0,-2.497523963E-3,4.886248601E-3,2.674516439E-2,2.730232352E-2
3.709981333E0,-1.079449457E-2,1.014901678E-2,3.782271445E-2,4.062119376E-2
3.720018333E0,9.690352958E-3,-1.281487660E-2,3.632641196E-2,3.972067734E-2
3.730055333E0,-1.125800975E-2,5.063761845E-3,4.261392295E-2,4.436587537E-2
3.740092333E0,-5.984442495E-3,1.513787944E-2,3.093820274E-2,3.495913807E-2
3.750129333E0,9.013528610E-4,1.732322604E-2,3.737540245E-2,4.120470005E-2
3.760166333E0,-3.320181523E-3,-2.341819005E-3,2.510092735E-2,2.542762819E-2
3.770203333E0,2.038668282E-3,1.095942259E-2,2.629785240E-2,2.856295070E-2
3.780240333E0,-1.015305044E-3,2.118478208E-3,3.123758018E-2,3.132579145E-2
3.790277333E0,7.816932471E-3,5.810551783E-3,3.962073326E-2,4.080036090E-2
3.800314333E0,-1.401939388E-2,-4.930888438E-3,3.617847741E-2,3.911188174E-2
3.810351333E0,-2.337086415E-3,1.027568209E-2,3.797649622E-2,3.941149427E-2
3.820388333E0,3.479043064E-3,-1.715728389E-3,4.635847986E-2,4.652049139E-2
3.830425333E0,1.785770267E-2,1.708501596E-3,2.525237024E-2,3.097577642E-2
3.840462333E0,2.010540891E-2,1.364052172E-2,2.121135950E-2,3.225233437E-2
3.850499333E0,3.204252707E-2,1.487349850E-2,3.737657189E-2,5.142910290E-2
3.860535333E0,2.113413514E-2,1.365465097E-2,2.839524865E-2,3.793931084E-2
3.870572333E0,5.189741934E-3,9.151765010E-3,3.917342126E-2,4.056162173E-2
3.880609333E0,-1.966806002E-2,7.884102361E-4,3.243859828E-2,3.794360069E-2
3.890646333E0,-2.231764813E-2,-4.912848864E-3,4.276770473E-2,4.849010280E-2
3.900683333E0,-3.490462493E-2,-1.942221658E-2,3.154105067E-2,5.089590569E-2
3.910720333E0,-1.776041048E-2,-2.389016999E-2,2.525470912E-2,3.903809339E-2
3.920757333E0,-1.348402647E-2,-4.936922947E-4,2.196155727E-2,2.577542822E-2
3.930794333E0,-1.771848869E-2,1.539007716E-2,3.872610927E-2,4.528256679E-2
3.940831333E0,8.291360931E-3,1.304683747E-2,2.764914393E-2,3.167714940E-2
3.950868333E0,2.777860494E-2,2.485753243E-2,2.734859705E-2,4.623303550E-2
3.960905333E0,2.314217863E-2,9.397498816E-3,3.438455164E-2,4.249906831E-2
3.970942333E0,4.276141897E-3,3.371573524E-2,3.752801478E-2,5.062991295E-2
3.980978333E0,-1.518076968E-2,1.464395417E-2,3.767711878E-2,4.317946782E-2
3.991015333E0,-5.940775671E-3,4.136809143E-3,3.124108851E-2,3.206885743E-2
4.001052333E0,-1.042689656E-2,-8.377461182E-3,3.483420253E-2,3.731385391E-2
4.011089333E0,-2.022487027E-2,-1.086624630E-2,2.974595547E-2,3.757582404E-2
4.021126333E0,-1.765118175E-2,-1.835154114E-2,3.872903287E-2,4.634955520E-2
4.031163333E0,-5.852583214E-3,-1.047764400E-2,3.229475677E-2,3.445264966E-2
4.041200333E0,1.920711213E-2,1.569490439E-2,3.663631439E-2,4.424322222E-2
4.051237333E0,3.495563275E-2,2.854254824E-2,3.304378510E-2,5.593268324E-2
4.061274333E0,1.934744988E-2,1.152055430E-2,3.334316254E-2,4.023448118E-2
4.071311333E0,2.022283745E-2,1.438113097E-2,2.106868744E-2,3.255256783E-2
4.081348333E0,8.858280466E-3,1.511932824E-2,1.747557342E-2,2.474790669E-2
4.091385333E0,-1.304934081E-4,1.718482976E-3,4.232331634E-2,4.235839135E-2
4.101422333E0,-5.258282265E-3,8.175595198E-5,4.411899626E-2,4.443131832E-2
4.111459333E0,-1.175510530E-2,-1.354502938E-2,4.142401457E-2,4.513977519E-2
4.121496333E0,-2.336755225E-2,-2.343282179E-2,3.079670012E-2,4.520593295E-2
4.131532333E0,-1.239677327E-2,-1.669722679E-2,3.603639007E-2,4.160647520E-2
4.141569333E0,2.603760562E-3,3.896374376E-3,3.379047453E-2,3.411388972E-2
4.151606333E0,-7.506637182E-4,6.391696497E-3,2.525704801E-2,2.606407018E-2
4.161643333E0,3.899517255E-3,-1.037660137E-2,3.753035367E-2,3.913320249E-2
4.171680333E0,8.656697706E-3,1.100971322E-3,2.720241666E-2,2.856784950E-2
4.181717333E0,1.667346334E-2,1.270160963E-2,3.678132534E-2,4.233439690E-2
4.191754333E0,3.161118985E-3,-6.466700742E-4,4.606261075E-2,4.617548012E-2
4.201791333E0,-3.539146045E-3,-9.108157572E-3,5.085206509E-2,5.178239674E-2
4.211828333E0,-3.973868256E-4,2.027289052E-3,5.070179164E-2,5.074386163E-2
4.221865333E0,-1.472984886E-2,-1.810974507E-2,4.052354336E-2,4.676632207E-2
4.231902333E0,-2.193260442E-2,-1.000608890E-2,3.558264613E-2,4.298006116E-2
4.241939333E0,-2.887941181E-2,-9.534369344E-3,2.420513391E-2,3.886917973E-2
4.251976333E0,2.840061164E-3,8.276144466E-3,3.962307215E-2,4.057768304E-2
4.262012333E0,5.214784462E-3,1.279317794E-2,2.824731410E-2,3.144471549E-2
4.272049333E0,9.183490723E-3,2.209722638E-2,3.228949428E-2,4.018999074E-2
4.282086333E0,7.056291942E-3,1.126893673E-2,4.097085536E-2,4.307425193E-2
4.292123333E0,3.457362228E-2,1.565284555E-2,-4.794482946E-2,6.114780130E-2
4.302160333E0,2.491880029E-2,8.881221651E-3,1.890135849E-1,1.908558565E-1
4.312197333E0,-1.962612452E-2,2.246150334E-2,-7.863101721E-2,8.409839929E-2
4.322234333E0,-2.547642823E-2,-2.122305850E-2,7.704408288E-2,8.387644076E-2
4.332271333E0,-1.316164846E-2,-2.431436264E-2,2.884373009E-2,3.995469918E-2
4.342308333E0,-5.295423048E-2,-1.568007165E-2,-9.625686407E-3,5.605951312E-2
4.352345333E0,-5.283379154E-2,-4.544748366E-2,8.363038659E-2,1.088619532E-1
4.362382333E0,-3.122499496E-2,-2.692994555E-3,-4.121059120E-2,5.177417654E-2
4.372419333E0,1.915486635E-2,-2.931030136E-2,9.141303062E-2,9.788945213E-2
4.382456333E0,2.453126237E-2,3.481562391E-2,-1.726098061E-2,4.595489042E-2
4.392493333E0,4.523677833E-2,2.510285511E-2,3.872201622E-2,6.462131218E-2
4.402529333E0,8.609426622E-2,4.896489908E-2,-2.143589258E-3,9.906754763E-2
4.412566333E0,5.927759678E-2,5.112018733E-2,1.000943917E-1,1.270668890E-1
4.422603333E0,-1.893671039E-3,3.920976536E-2,1.342520714E-2,4.148768343E-2
4.432640333E0,3.615296893E-3,-5.217625843E-3,9.686497450E-3,1.158111497E-2
4.442677333E0,2.480914672E-2,-5.427367296E-3,2.659781456E-2,3.677490743E-2
4.452714333E0,4.196236040E-3,-3.926058132E-2,7.507591009E-2,8.482566781E-2
4.462751333E0,-8.212746031E-2,-5.732716663E-2,1.940614861E-1,2.183831133E-1
4.472788333E0,-5.639237958E-2,-5.370060015E-3,-3.677430868E-2,6.753730671E-2
4.482825333E0,9.990065883E-1,-3.013801859E-1,-3.048328936E-2,1.043922129E0
4.492862333E0,2.824570319E0,9.557634319E-1,-1.482918209E-1,2.985577279E0
4.502899333E0,1.807249082E0,1.148397101E0,5.424947280E-1,2.208905990E0
4.512936333E0,1.099581767E0,9.799347981E-1,-1.403974950E-2,1.472939030E0
4.522973333E0,-3.129457226E-2,8.303909422E-1,-1.430492073E0,1.654338550E0
4.533009333E0,-2.451786786E0,-1.330099126E-1,1.176156904E0,2.722553056E0
4.543046333E0,-2.719121924E0,-8.344524913E-1,8.302502435E-1,2.962979997E0
4.553083333E0,-1.342889527E0,-1.248488131E0,1.551734090E-1,1.840150451E0
4.563120333E0,4.080041998E-1,-1.413984068E0,5.168447471E-1,1.559790647E0
4.573157333E0,4.395616592E-1,-5.330333483E-1,-3.520883363E-1,7.754387141E-1
4.583194333E0,-6.404066464E-1,4.242518214E-1,-2.438464344E-1,8.059599024E-1
4.593231333E0,-1.395655532E0,4.115423866E-1,8.017637783E-1,1.661338814E0
4.603268333E0,-1.230621378E0,-8.497894455E-1,9.212054372E-2,1.498351519E0
4.613305333E0,-6.201043097E-1,-6.149540821E-1,-8.863039917E-1,1.244279970E0
4.623342333E0,5.046868508E-1,8.323618193E-1,4.112873018E-2,9.742826017E-1
4.633379333E0,1.505616808E0,1.091295532E0,1.320312989E-1,1.864199607E0
4.643416333E0,7.582944077E-1,3.460798837E-2,3.817606169E-1,8.496759913E-1
4.653453333E0,-4.697461193E-2,3.179972784E-1,4.808890486E-1,5.784316384E-1
4.663490333E0,-5.520210117E-2,5.551759500E-2,3.191544789E-1,3.286168844E-1
4.673526333E0,-1.485014436E-1,-1.096072634E-1,-1.336720276E-1,2.278917328E-1
4.683563333E0,4.305188306E-1,-2.038743565E-1,-4.387984514E-1,6.476536866E-1
4.693599583E0,-5.888281379E-2,-6.469067037E-2,-9.808885521E-1,9.847814073E-1
4.703636583E0,-4.120141472E-1,3.454863913E-1,8.616456985E-3,5.377645837E-1
4.713673583E0,4.078855013E-1,6.528068367E-1,4.804130852E-1,9.073720740E-1
4.723710583E0,-1.172856077E-1,1.129958784E0,1.134593725E-1,1.141681127E0
4.733747583E0,-6.386014648E-2,5.289902911E-4,2.177719456E-1,2.269427647E-1
4.743784583E0,7.250175380E-1,-1.225048251E0,-1.669415152E-1,1.433270078E0
4.753821583E0,1.193397565E0,-1.151167585E0,3.145351785E-1,1.687695747E0
4.763858583E0,1.418231339E0,-9.592779739E-1,1.433145540E0,2.232823437E0
4.773895583E0,9.354521781E-1,-7.818697965E-1,1.697071313E0,2.089603359E0
4.783932583E0,6.757758692E-1,-3.587540891E-1,1.438269455E0,1.629109127E0
4.793969583E0,7.391801521E-1,-1.818515497E-1,1.627067277E0,1.796331041E0
4.804005583E0,1.142034819E0,-7.099621271E-1,2.089896031E0,2.485146911E0
4.814042583E0,1.438464167E0,-7.221749141E-1,2.165423931E0,2.698106107E0
4.824079583E0,1.185502947E0,-1.443610850E-1,1.833280447E0,2.187961279E0
4.834116583E0,9.119351153E-1,4.094897215E-1,1.935361138E0,2.178286074E0
4.844153583E0,5.585213614E-1,6.650373846E-1,2.306758150E0,2.464823319E0
4.854190583E0,8.106185094E-2,2.494241665E-1,2.743956803E0,2.756461931E0
4.864227583E0,-4.865048607E-1,-4.782372632E-1,2.486216215E0,2.578113443E0
4.874264583E0,3.254997312E-1,-8.628560722E-1,1.489537257E0,1.751910933E0
4.884301583E0,1.687878613E0,-4.977255944E-1,1.257209253E0,2.162692785E0
4.894338583E0,1.684968600E0,-1.315558472E-1,4.141974610E-1,1.740110818E0
4.904375583E0,1.223599311E0,2.264241437E-1,3.036394769E-1,1.280882547E0
4.914412583E0,8.416856432E-1,5.409938208E-1,1.398136505E0,1.719271568E0
4.924449583E0,3.928095156E-1,1.173550799E-1,2.917703308E0,2.946364560E0
4.934485583E0,-8.364456609E-1,6.572219230E-1,3.940748531E0,4.081798743E0
4.944522583E0,-2.492460456E-1,1.137157729E0,5.239912725E0,5.367675163E0
4.954559583E0,4.796916850E-1,5.989838013E-1,6.258900565E0,6.305768945E0
4.964596583E0,9.975316282E-1,-8.800179425E-1,6.694711674E0,6.825589009E0
4.974633583E0,5.389422521E-2,-2.324358269E0,6.077932749E0,6.507442850E0
4.984670583E0,-9.175484423E-1,-1.853478484E0,4.544612710E0,4.993073435E0
4.994707583E0,-1.278965134E0,-1.264506870E0,3.965587503E0,4.354378679E0
5.004744583E0,-1.709677179E0,-7.776998547E-1,3.962034734E0,4.384692960E0
5.014781583E0,-2.419154060E0,2.724969140E-1,4.799321517E0,5.381454075E0
5.024818583E0,-2.999958429E0,1.263430983E0,6.206810644E0,7.008602343E0
5.034855583E0,-1.688911962E0,6.378344563E-1,7.413229228E0,7.629890169E0
5.044892583E0,1.263293573E0,-1.717426640E-1,7.583749239E0,7.690166364E0
5.054929583E0,3.347016698E0,8.095177710E-2,6.911102507E0,7.679349701E0
5.064965583E0,3.529951226E0,1.431456864E-2,5.783452350E0,6.775624078E0
5.075002583E0,2.055050426E0,-5.184223258E-1,4.531020858E0,5.002213907E0
5.085039583E0,-8.233098909E-2,-1.884572223E0,3.787836825E0,4.231559838E0
5.095076583E0,-2.145125468E0,-2.790867260E0,3.311125612E0,4.832603455E0
5.105113583E0,-2.977894838E0,-2.620242584E0,2.777808089E0,4.842493845E0
5.115150583E0,-1.617448754E0,-2.292564034E0,2.278121411E0,3.614115035E0
5.125187583E0,3.092134814E-1,-2.171345991E0,1.831188898E0,2.857203033E0
5.135224583E0,8.662221681E-1,-1.774750988E0,1.280725585E0,2.353792671E0
5.145261583E0,5.287003423E-1,-1.475601588E0,1.303042653E0,2.038343507E0
5.155298583E0,2.932353434E-1,-1.322785776E0,1.612843925E0,2.106422252E0
5.165335583E0,6.591843217E-1,-1.440480287E0,1.759824800E0,2.367802939E0
5.175372583E0,1.870619012E0,-1.782388621E0,1.550146571E0,3.013151021E0
5.185409583E0,2.933651296E0,-2.230798141E0,7.519972488E-1,3.761418633E0
5.195446583E0,2.175487574E0,-2.380562291E0,-7.026715994E-2,3.225641095E0
5.205482583E0,9.086839172E-1,-1.953914938E0,-4.382531986E-1,2.198989748E0
5.215519583E0,4.017354365E-1,-2.177997783E0,-2.138677597E-1,2.225040477E0
5.225556583E0,5.828264827E-1,-2.724376232E0,-2.090312353E-1,2.793851574E0
5.235593583E0,8.066008144E-1,-2.957864324E0,-4.917420655E-1,3.105056600E0
5.245630583E0,6.192756131E-1,-2.773487581E0,-8.502652627E-1,2.966258024E0
5.255667583E0,1.383574015E-1,-2.383585301E0,-7.860562567E-1,2.513663879E0
5.265704583E0,-5.528681271E-1,-2.401388903E0,-4.752238275E-1,2.509615412E0
5.275741583E0,-1.121392466E0,-2.566823591E0,-1.778835560E-1,2.806732437E0
5.285778583E0,-1.490408346E0,-2.562672068E0,-1.212485947E-1,2.967036634E0
5.295815583E0,-2.241656859E0,-2.561308497E0,-2.734859705E-1,3.414691972E0
5.305852583E0,-3.119121761E0,-2.595394841E0,-4.191430360E-1,4.079298447E0
5.315889583E0,-3.796596538E0,-2.591091290E0,-6.071187035E-1,4.636431006E0
5.325925583E0,-4.487158554E0,-2.499068980E0,-9.468495709E-1,5.222687217E0
5.335962583E0,-5.229702317E0,-2.457219288E0,-1.104984595E0,5.882916276E0
5.345999583E0,-6.293576893E0,-2.694676470E0,-8.164221632E-1,6.894703513E0
5.356036583E0,-7.242507488E0,-3.176605738E0,-1.873611617E-1,7.910742249E0
5.366073583E0,-7.564596099E0,-3.339458295E0,1.745850686E-1,8.270766337E0
5.376110583E0,-7.553954167E0,-3.273750209E0,1.633057896E-1,8.234460077E0
5.386147583E0,-7.743855359E0,-3.399868804E0,-1.464715827E-1,8.458596670E0
5.396184583E0,-8.048276024E0,-3.620383093E0,-5.899968501E-1,8.844773427E0
5.406221583E0,-8.213515999E0,-3.813014935E0,-5.488464852E-1,9.072053816E0
5.416258583E0,-8.113386524E0,-3.892561626E0,3.767346427E-2,8.998916390E0
5.426295583E0,-8.042472078E0,-4.031298512E0,5.885867210E-1,9.015495502E0
5.436332583E0,-8.468911854E0,-4.260266122E0,8.290696907E-1,9.516285618E0
5.446369583E0,-8.868348019E0,-4.405425589E0,5.832059669E-1,9.919450610E0
5.456405583E0,-8.698106335E0,-4.705066740E0,-1.559323776E-1,9.890349931E0
5.466442583E0,-8.496484984E0,-4.935449960E0,-8.409336913E-1,9.861850378E0
5.476479583E0,-8.335994117E0,-5.143000973E0,-9.183452716E-1,9.837815559E0
5.486516583E0,-7.711400388E0,-5.220374839E0,-3.776333597E-1,9.319904311E0
5.496553583E0,-6.850917116E0,-5.270168558E0,6.016915007E-1,8.664396957E0
5.506590583E0,-6.199385265E0,-5.243888247E0,1.565513931E0,8.269315297E0
5.516627583E0,-5.737340623E0,-5.048398871E0,2.420608409E0,8.016405283E0
5.526664583E0,-5.745508014E0,-4.911789202E0,3.153420943E0,8.190274669E0
5.536701583E0,-5.742554585E0,-5.006626362E0,3.695172198E0,8.467439889E0
5.546738583E0,-5.085810526E0,-5.297725316E0,3.869351689E0,8.300797836E0
5.556775583E0,-4.127304238E0,-5.768779932E0,3.453499758E0,7.889240950E0
5.566812583E0,-3.456032772E0,-5.854887199E0,2.877854826E0,7.382812136E0
5.576849583E0,-2.915362083E0,-5.779154647E0,2.617871538E0,6.982207093E0
5.586885583E0,-2.372924657E0,-5.727000992E0,2.795028723E0,6.800110099E0
5.596922583E0,-1.888435478E0,-5.659154579E0,3.336385876E0,6.835472904E0
5.606959583E0,-1.369900301E0,-5.827352076E0,3.760208731E0,7.069216983E0
5.616996583E0,-8.606107414E-2,-5.954140761E0,3.739271898E0,7.031454547E0
5.627033583E0,2.350033978E0,-5.978087448E0,3.128062446E0,7.144575838E0
5.637070583E0,4.481593174E0,-5.782368861E0,2.432853355E0,7.709684979E0
5.647107583E0,5.795229812E0,-5.396977124E0,2.098463956E0,8.192411222E0
5.657144583E0,6.686239643E0,-4.964224693E0,2.180171778E0,8.608279523E0
5.667181583E0,7.515279513E0,-4.704176794E0,2.417867234E0,9.189928587E0
5.677218583E0,8.243252015E0,-4.511987001E0,2.305516201E0,9.675982401E0
5.687255583E0,8.973713091E0,-4.577302154E0,1.623278428E0,1.020363928E1
5.697292958E0,9.426840729E0,-4.653396065E0,4.491196641E-1,1.052241082E1
5.707329958E0,9.296903903E0,-4.506720414E0,-7.733677988E-1,1.036055253E1
5.717365958E0,9.179699389E0,-4.459730143E0,-1.610669638E0,1.033200515E1
5.727402958E0,9.168910691E0,-4.438962879E0,-2.036665026E0,1.038851862E1
5.737439958E0,9.246802620E0,-4.363383816E0,-2.076717284E0,1.043337106E1
5.747476958E0,9.709771707E0,-4.393924408E0,-2.025322305E0,1.084841780E1
5.757513958E0,1.004281274E1,-4.220863490E0,-1.937338374E0,1.106467606E1
5.767550958E0,9.985099550E0,-3.943110806E0,-1.768318466E0,1.088013263E1
5.777587958E0,9.542402176E0,-3.911779378E0,-1.474397646E0,1.041793193E1
5.787624958E0,9.013495792E0,-4.082644667E0,-1.125208798E0,9.958774458E0
5.797661958E0,8.779289662E0,-4.148862630E0,-9.259558614E-1,9.754300711E0
5.807698958E0,8.594265633E0,-4.294414153E0,-8.499370877E-1,9.644987700E0
5.817735958E0,8.378222124E0,-4.391618266E0,-9.334483373E-1,9.505379674E0
5.827772958E0,8.337648879E0,-4.397083367E0,-1.194936698E0,9.501505390E0
5.837809958E0,7.920787427E0,-4.413873354E0,-1.486687178E0,9.188655517E0
5.847845958E0,7.543730895E0,-4.478739148E0,-1.605182026E0,8.918721294E0
5.857882958E0,7.324662037E0,-4.491745110E0,-1.486483549E0,8.719867053E0
5.867919958E0,7.204768973E0,-4.498894501E0,-1.094099126E0,8.564216285E0
5.877956958E0,7.323911254E0,-4.703735914E0,-7.027943909E-1,8.732624323E0
5.887993958E0,7.411693749E0,-4.993202909E0,-4.101025097E-1,8.946142386E0
5.898030958E0,7.419806761E0,-5.184979888E0,-2.723960495E-1,9.056033812E0
5.908067958E0,7.681583097E0,-5.560821369E0,-1.037120640E-1,9.483681214E0
5.918104958E0,8.116230025E0,-5.928114805E0,7.785333753E-2,1.005095996E1
5.928141958E0,8.347826543E0,-6.001151206E0,2.791168392E-1,1.028483981E1
5.938178958E0,8.069670986E0,-5.951649848E0,5.705328579E-1,1.004326807E1
5.948215958E0,7.276908996E0,-5.904068715E0,1.139174580E0,9.439764332E0
5.958252958E0,6.240195322E0,-6.071780893E0,1.898459652E0,8.911268705E0
5.968289958E0,5.343933522E0,-6.234857399E0,2.456479323E0,8.571193787E0
5.978325958E0,4.691692404E0,-6.294001400E0,2.666052010E0,8.290613039E0
5.988362958E0,3.973523929E0,-6.427069411E0,2.716974242E0,8.029823326E0
5.998399958E0,3.106443243E0,-6.447538759E0,2.692302500E0,7.646518058E0
6.008436958E0,2.307312466E0,-6.115446146E0,2.745926438E0,7.089603965E0
6.018473958E0,1.684206854E0,-5.798756853E0,2.793057042E0,6.653067067E0
6.028510958E0,9.835256463E-1,-5.758223369E0,2.789952463E0,6.473661546E0
6.038547958E0,4.153572562E-1,-5.869184226E0,2.657352523E0,6.456110870E0
6.048584958E0,2.764183491E-2,-5.660772504E0,2.532953010E0,6.201690121E0
6.058621958E0,-3.412660173E-1,-5.368065566E0,2.561264058E0,5.957571988E0
6.068658958E0,-3.071592084E-1,-5.222337749E0,2.641199005E0,5.860297819E0
6.078695958E0,-7.910332605E-2,-4.966146088E0,2.692979608E0,5.649867562E0
6.088732958E0,-3.679186495E-1,-4.821055618E0,2.793731811E0,5.584163217E0
6.098769958E0,-1.239901787E0,-5.037517787E0,2.696783806E0,5.846929518E0
6.108805958E0,-1.891274009E0,-5.022513247E0,2.305589730E0,5.841087287E0
6.118842958E0,-2.086386094E0,-4.933107566E0,1.926879752E0,5.692224764E0
6.128879958E0,-2.273453725E0,-4.875014893E0,1.648745099E0,5.626075226E0
6.138916958E0,-2.803378255E0,-4.502294072E0,1.754474452E0,5.586390799E0
6.148953958E0,-2.992450312E0,-4.042688888E0,2.383017536E0,5.565686381E0
6.158990958E0,-3.099045346E0,-3.627474597E0,3.190608065E0,5.739567390E0
6.169027958E0,-3.628219824E0,-3.136173411E0,3.726621155E0,6.073488947E0
6.179064958E0,-4.460686162E0,-2.728169906E0,3.772263350E0,6.447526879E0
6.189101958E0,-5.439796869E0,-2.542416728E0,3.628642870E0,7.015862162E0
6.199138958E0,-6.641634158E0,-2.467000510E0,3.373278590E0,7.847063416E0
6.209175958E0,-7.573987312E0,-2.241457615E0,3.125746071E0,8.494686842E0
6.219212958E0,-7.736584346E0,-1.878864171E0,2.930866560E0,8.483799073E0
6.229248958E0,-7.858051481E0,-1.399626961E0,2.824882268E0,8.466870055E0
6.239285958E0,-7.959909393E0,-1.170504985E0,2.857032598E0,8.537732411E0
6.249322958E0,-7.830068461E0,-1.141574716E0,2.684417530E0,8.355792147E0
6.259359958E0,-7.706839560E0,-9.903779984E-1,2.206898816E0,8.077538423E0
6.269396958E0,-7.732939192E0,-9.087508678E-1,1.691840394E0,7.967841653E0
6.279433958E0,-7.721702013E0,-7.018576670E-1,1.210383580E0,7.847440001E0
6.289470958E0,-7.567996840E0,-4.352439290E-1,8.719508314E-1,7.630485679E0
6.299507958E0,-7.327335384E0,-2.427886730E-1,7.313557005E-1,7.367745335E0
6.309544958E0,-7.083010063E0,-1.954601401E-1,6.230880708E-1,7.113049624E0
6.319581958E0,-6.817939990E0,-5.433934450E-2,5.648024404E-1,6.841510086E0
6.329618958E0,-6.567787918E0,8.657562912E-2,5.278538847E-1,6.589534369E0
6.339655958E0,-6.437379221E0,1.958922493E-1,4.529182712E-1,6.456265172E0
6.349691958E0,-6.475786657E0,2.063774765E-1,4.460857997E-1,6.494412755E0
6.359728958E0,-6.704703396E0,1.913454545E-1,5.838976926E-1,6.732800103E0
6.369765958E0,-6.822650506E0,1.145855463E-1,8.612492573E-1,6.877749637E0
6.379802958E0,-6.761213227E0,3.694270849E-3,9.618722373E-1,6.829291043E0
6.389839958E0,-6.690699899E0,-3.892783821E-2,7.506404024E-1,6.732788541E0
6.399876958E0,-6.760211014E0,-1.467738837E-1,4.699243498E-1,6.778113633E0
6.409913958E0,-6.735832218E0,-2.061880267E-1,2.210270905E-1,6.742610929E0
6.419950958E0,-6.506797950E0,-1.127781719E-1,1.322067062E-1,6.509117997E0
6.429987958E0,-6.070330784E0,-5.140872002E-2,3.298671627E-1,6.079504176E0
6.440024958E0,-5.702726276E0,-7.301242769E-2,6.996485889E-1,5.745948655E0
6.450061958E0,-5.685712048E0,-8.581139803E-2,1.097212476E0,5.791248596E0
6.460098958E0,-5.897492352E0,-1.502798742E-1,1.357287272E0,6.053530277E0
6.470135958E0,-6.309285437E0,-2.713505673E-1,1.371980156E0,6.462433242E0
6.480171958E0,-6.720733538E0,-3.981275582E-1,1.350255411E0,6.866582448E0
6.490208958E0,-6.885696940E0,-6.206696624E-1,1.397474016E0,7.053437942E0
6.500245958E0,-6.790495498E0,-8.489016920E-1,1.440010171E0,6.993217606E0
6.510282958E0,-6.599185127E0,-9.305738461E-1,1.568667626E0,6.846599897E0
6.520319958E0,-6.698101305E0,-1.069187940E0,1.899429413E0,7.043831062E0
6.530356958E0,-7.281331830E0,-1.495375702E0,2.394900248E0,7.809576743E0
6.540393958E0,-8.225606872E0,-2.074331912E0,2.790418779E0,8.930279853E0
6.550430958E0,-8.752207114E0,-2.564289992E0,2.632655053E0,9.492501522E0
6.560467958E0,-8.248206945E0,-2.921792266E0,1.831546748E0,8.940042021E0
6.570504958E0,-7.052783466E0,-3.135152487E0,9.989582757E-1,7.782599397E0
6.580541958E0,-6.037019196E0,-3.015403265E0,8.044950859E-1,6.795989256E0
6.590578958E0,-5.060076345E0,-2.876412610E0,1.400591751E0,5.986633392E0
6.600614958E0,-4.135304691E0,-3.042658306E0,2.287217925E0,5.620487549E0
6.610651958E0,-3.588032203E0,-3.276365084E0,2.971321106E0,5.695374647E0
6.620688958E0,-3.937384920E0,-3.359048222E0,3.485242245E0,6.239640893E0
6.630725958E0,-5.185861648E0,-3.444935049E0,3.901786194E0,7.347426354E0
6.640762958E0,-6.526636384E0,-3.550643937E0,4.131932602E0,8.501583492E0
6.650799958E0,-6.465024272E0,-4.149573067E0,4.101626483E0,8.708549551E0
6.660836958E0,-5.192946135E0,-5.168069741E0,3.782086673E0,8.244987205E0
6.670873958E0,-3.276812981E0,-5.967805704E0,2.980783070E0,7.432178412E0
6.680910958E0,-1.242942631E0,-6.140359377E0,2.262177808E0,6.660808367E0
6.690947833E0,1.519372675E-1,-5.582281820E0,2.213160746E0,6.006915659E0
6.700984833E0,5.185702604E-1,-4.904906445E0,2.899574600E0,5.721411994E0
6.711021833E0,-1.764955732E-1,-4.587806677E0,3.924274585E0,6.039789054E0
6.721057833E0,-1.109765863E0,-4.748862385E0,4.561279614E0,6.677465533E0
6.731094833E0,-1.687920713E0,-5.071291305E0,4.548199393E0,7.018061666E0
6.741131833E0,-1.616453412E0,-5.574831297E0,4.048968798E0,7.077133173E0
6.751168833E0,-6.064597589E-1,-6.058436962E0,3.382077481E0,6.964976665E0
6.761205833E0,7.060173762E-1,-6.152948433E0,2.909388567E0,6.842643991E0
6.771242833E0,2.327693521E0,-6.112250642E0,2.756805475E0,7.097727909E0
6.781279833E0,4.769617077E0,-6.182896117E0,2.604581401E0,8.231724955E0
6.791316833E0,6.570953600E0,-5.648281682E0,2.318554469E0,8.969738681E0
6.801353833E0,7.204835631E0,-4.643918898E0,2.265211344E0,8.866048817E0
6.811390833E0,7.237664239E0,-3.860083852E0,2.567521749E0,8.595126462E0
6.821427833E0,7.172688809E0,-3.853235008E0,2.879230968E0,8.636252413E0
6.831464833E0,7.335361272E0,-4.145022764E0,2.518054304E0,8.793710035E0
6.841501833E0,7.380693566E0,-4.153943276E0,1.506906996E0,8.602363102E0
6.851537833E0,7.049211402E0,-3.994437080E0,4.246306479E-1,8.113397572E0
6.861574833E0,7.664432629E0,-4.137497397E0,-2.865099856E-1,8.714614174E0
6.871611833E0,9.158390965E0,-4.106151643E0,-6.808112720E-1,1.005982656E1
6.881648833E0,1.034020213E1,-3.863701524E0,-8.932756269E-1,1.107456143E1
6.891685833E0,1.063566427E1,-3.403661308E0,-7.856226126E-1,1.119461780E1
6.901722833E0,1.038953976E1,-3.013495903E0,-2.919397100E-1,1.082168761E1
6.911759833E0,1.002720301E1,-2.977316256E0,2.618827558E-1,1.046316371E1
6.921796833E0,9.930714598E0,-3.092877703E0,2.694490528E-1,1.040469066E1
6.931833833E0,9.853771087E0,-3.149419109E0,-2.868258814E-1,1.034881222E1
6.941870833E0,9.603220820E0,-3.113817751E0,-9.892131599E-1,1.014377907E1
6.951907833E0,9.225465546E0,-3.187811342E0,-1.396623831E0,9.860117332E0
6.961944833E0,8.904439958E0,-3.377472214E0,-1.509403757E0,9.642337332E0
6.971980833E0,8.654886056E0,-3.522451587E0,-1.472133604E0,9.459487046E0
6.982017833E0,8.778324872E0,-3.617307458E0,-1.392401118E0,9.595972159E0
6.992054833E0,9.025843357E0,-3.667287118E0,-1.208013631E0,9.817033159E0
7.002091833E0,8.969901876E0,-3.727456722E0,-9.617897185E-1,9.761050801E0
7.012128833E0,8.657424332E0,-3.885121629E0,-6.827314246E-1,9.513742079E0
7.022165833E0,8.488156210E0,-4.018663264E0,-5.880427837E-1,9.409795141E0
7.032202833E0,8.225179440E0,-3.954479547E0,-6.137157150E-1,9.147028605E0
7.042239833E0,7.590914417E0,-3.952464597E0,-4.589584816E-1,8.570565965E0
7.052276833E0,7.069412947E0,-4.053841867E0,-9.083781078E-2,8.149753666E0
7.062313833E0,6.869756845E0,-4.263061675E0,2.886325979E-1,8.090152207E0
7.072350833E0,6.818827597E0,-4.552346238E0,5.035842852E-1,8.214247573E0
7.082387833E0,6.449141480E0,-4.752244415E0,5.722133477E-1,8.031356108E0
7.092423833E0,5.886018360E0,-4.894879639E0,5.846116376E-1,7.677683869E0
7.102460833E0,5.418358052E0,-5.095456678E0,5.252704386E-1,7.456419501E0
7.112497833E0,4.979383015E0,-5.215429848E0,5.344461818E-1,7.230532237E0
7.122534833E0,4.752385917E0,-5.089162150E0,7.360195859E-1,7.001890325E0
7.132571833E0,4.676181495E0,-4.968245823E0,1.222341721E0,6.931396628E0
7.142608833E0,4.665462964E0,-5.160226285E0,1.823021653E0,7.191514996E0
7.152645833E0,4.946083122E0,-5.410925072E0,2.299106776E0,7.682951279E0
7.162682833E0,5.123118685E0,-5.688602911E0,2.562360996E0,8.072932678E0
7.172719833E0,4.635532821E0,-5.958410983E0,2.629223030E0,7.993975214E0
7.182756833E0,3.697820401E0,-5.982824278E0,2.545484762E0,7.479809806E0
7.192793833E0,2.658628970E0,-6.022024012E0,2.639738663E0,7.092341038E0
7.202830833E0,1.761954064E0,-5.984617619E0,2.874445606E0,6.868956814E0
7.212866833E0,1.200527806E0,-5.905038768E0,3.290974352E0,6.865949465E0
7.222903833E0,8.545354843E-1,-5.927005003E0,3.746584718E0,7.063746616E0
7.232940833E0,5.759204824E-1,-5.867897254E0,4.007862872E0,7.129296416E0
7.242977833E0,3.359251705E-1,-5.516504737E0,4.083313004E0,6.871543881E0
7.253014833E0,-2.396772234E-1,-5.319702660E0,3.963952621E0,6.638493952E0
7.263051833E0,-1.075750490E0,-5.286799793E0,3.830390521E0,6.616599029E0
7.273088833E0,-1.908863749E0,-5.220430387E0,3.750503522E0,6.705440397E0
7.283125833E0,-2.953194153E0,-5.079546404E0,3.674158766E0,6.929833332E0
7.293162833E0,-3.814149295E0,-4.957918471E0,3.621830864E0,7.228163613E0
7.303199833E0,-4.175834666E0,-4.682780662E0,3.510602789E0,7.189600951E0
7.313236833E0,-4.325583321E0,-4.229837796E0,3.281934557E0,6.882825967E0
7.323273833E0,-4.870356417E0,-3.732030998E0,3.167806263E0,6.905318495E0
7.333310833E0,-5.944148455E0,-3.509721614E0,3.140305638E0,7.583703987E0
7.343346833E0,-7.393565041E0,-3.426674194E0,3.012002524E0,8.687868511E0
7.353383833E0,-8.749897463E0,-3.253342257E0,2.769435461E0,9.737284746E0
7.363420833E0,-9.316113176E0,-2.899842988E0,2.379429685E0,1.004294477E1
7.373457833E0,-9.193545595E0,-2.314361284E0,1.887557226E0,9.666458558E0
7.383494833E0,-8.745616717E0,-1.739206933E0,1.577567089E0,9.055350376E0
7.393531833E0,-8.465836803E0,-1.401571160E0,1.549923792E0,8.719923065E0
7.403568833E0,-8.599542160E0,-1.233238007E0,1.765553902E0,8.865110373E0
7.413605833E0,-8.897405173E0,-1.027272175E0,1.957327373E0,9.167891654E0
7.423642833E0,-9.254660109E0,-6.253778404E-1,1.973453994E0,9.483372387E0
7.433679833E0,-9.344258748E0,-3.067665678E-1,2.137802854E0,9.590593221E0
7.443716833E0,-8.997876125E0,-4.621229947E-2,2.235928488E0,9.271638827E0
7.453753833E0,-8.397656515E0,2.239992303E-1,2.210123556E0,8.686510043E0
7.463789833E0,-7.893721250E0,4.073410159E-1,2.099403019E0,8.178279459E0
7.473826833E0,-7.832129019E0,5.069471651E-1,1.963299719E0,8.090351426E0
7.483863833E0,-7.867912810E0,5.892613435E-1,1.811635809E0,8.095264370E0
7.493900833E0,-7.529024563E0,6.180015779E-1,1.598217115E0,7.721556499E0
7.503937833E0,-6.902049848E0,7.204371947E-1,1.373844248E0,7.074232812E0
7.513974833E0,-6.379247957E0,8.230447197E-1,1.169438453E0,6.537567851E0
7.524011833E0,-6.132308346E0,6.863081664E-1,1.045705522E0,6.258572089E0
7.534048833E0,-6.101039191E0,4.868701655E-1,8.694318509E-1,6.181879448E0
7.544085833E0,-6.340003200E0,3.174383211E-1,5.995828851E-1,6.376198499E0
7.554122833E0,-6.627294447E0,1.621234095E-1,4.259778829E-1,6.642949107E0
7.564159833E0,-6.543557056E0,4.258994937E-2,3.493559690E-1,6.553014760E0
7.574195833E0,-6.201563938E0,3.991309404E-3,3.648580706E-1,6.212288839E0
7.584232833E0,-6.136307842E0,-3.559258640E-2,5.370316013E-1,6.159865559E0
7.594269833E0,-6.115540870E0,-2.528242493E-1,8.496167334E-1,6.179450528E0
7.604306833E0,-6.035695971E0,-6.602629137E-1,1.030109829E0,6.158465656E0
7.614343833E0,-5.826334076E0,-8.547103161E-1,7.509836340E-1,5.936385677E0
7.624380833E0,-5.790453222E0,-9.618506026E-1,5.497481990E-1,5.895483710E0
7.634417833E0,-6.271398404E0,-9.995113492E-1,6.774198870E-1,6.386576436E0
7.644454833E0,-6.489700107E0,-1.009739299E0,1.015801838E0,6.645873479E0
7.654491833E0,-6.098124354E0,-1.123829001E0,1.341784111E0,6.344327928E0
7.664528833E0,-5.675404576E0,-1.207145977E0,1.472441314E0,5.986276133E0
7.674565833E0,-5.669155657E0,-1.298953110E0,1.721642482E0,6.065530305E0
7.684602833E0,-5.734919876E0,-1.524876074E0,2.238295733E0,6.342280411E0
7.694638583E0,-5.204531223E0,-1.931653419E0,2.599618285E0,6.129962921E0
7.704675583E0,-4.710669542E0,-2.070006142E0,2.486079390E0,5.714536175E0
7.714712583E0,-4.670051566E0,-1.852648180E0,2.227673389E0,5.495836209E0
7.724749583E0,-4.396889531E0,-1.923020005E0,2.232513714E0,5.292897219E0
7.734786583E0,-3.803531629E0,-2.151500541E0,2.506010209E0,5.037449215E0
7.744823583E0,-3.339603014E0,-2.310928969E0,2.877041770E0,4.977018217E0
7.754860583E0,-2.862086639E0,-2.544733980E0,3.272961420E0,5.037805813E0
7.764897583E0,-2.513011081E0,-2.976688265E0,3.669633021E0,5.351831858E0
7.774934583E0,-2.073653051E0,-3.745767862E0,3.722180779E0,5.673221625E0
7.784971583E0,-1.407782950E0,-4.173412165E0,2.989219433E0,5.323030598E0
7.795008583E0,-1.132197536E0,-3.925906543E0,2.132206045E0,4.608786832E0
7.805045583E0,-9.750116618E-1,-3.981622907E0,1.744032640E0,4.454842148E0
7.815081583E0,-6.749601826E-1,-4.356365696E0,1.887037994E0,4.795248243E0
7.825118583E0,-7.174326029E-1,-4.605896208E0,2.370492800E0,5.229553092E0
7.835155583E0,-1.294004027E0,-4.592614258E0,2.860354109E0,5.563108643E0
7.845192583E0,-1.674030652E0,-4.670903213E0,3.224091561E0,5.917303595E0
7.855229583E0,-2.066572365E0,-4.643202029E0,3.516623082E0,6.180346618E0
7.865266583E0,-2.305321197E0,-4.774283155E0,3.647932835E0,6.435503044E0
7.875303583E0,-9.170220467E-1,-5.571458623E0,3.186333750E0,6.483425283E0
7.885340583E0,1.192177982E0,-5.859643325E0,2.199339974E0,6.371326750E0
7.895377583E0,2.629864762E0,-5.223092040E0,1.312874015E0,5.993372782E0
7.905414583E0,3.525387474E0,-4.486724691E0,1.241196653E0,5.839488370E0
7.915451583E0,3.777918193E0,-3.903371374E0,1.935496209E0,5.766725200E0
7.925488583E0,3.382387383E0,-3.611866039E0,2.785650959E0,5.678553685E0
7.935524583E0,3.161253288E0,-3.541579583E0,2.950445669E0,5.589404078E0
7.945561583E0,3.919324332E0,-3.570292336E0,2.239445003E0,5.755276232E0
7.955598583E0,5.198425561E0,-3.508361551E0,1.161306438E0,6.378155041E0
7.965635583E0,6.522569060E0,-3.401590224E0,2.994804986E-1,7.362364550E0
7.975672583E0,7.571751922E0,-3.116853041E0,-1.113964017E-1,8.188932116E0
7.985709583E0,8.236855161E0,-2.715384384E0,-7.124700710E-2,8.673186924E0
7.995746583E0,8.519556343E0,-2.266530476E0,1.884207503E-1,8.817908088E0
8.005783583E0,8.897535565E0,-1.973558074E0,4.913779302E-1,9.127021578E0
8.015820583E0,9.552723096E0,-1.888793328E0,5.088283606E-1,9.750946881E0
8.025857583E0,1.019223015E1,-1.799687024E0,1.624298036E-1,1.035117444E1
8.035894583E0,1.068533754E1,-1.690813622E0,-2.531258194E-1,1.082124585E1
8.045931583E0,1.096105013E1,-1.624697401E0,-5.439183788E-1,1.109414750E1
8.055967583E0,1.098410453E1,-1.625759255E0,-6.944749725E-1,1.112546363E1
8.066004583E0,1.076571337E1,-1.708346499E0,-7.179046925E-1,1.092402944E1
8.076041583E0,1.067042012E1,-1.800253034E0,-6.866524943E-1,1.084298244E1
8.086078583E0,1.074240636E1,-1.891890598E0,-7.342804047E-1,1.093241566E1
8.096115583E0,1.077992210E1,-2.063819203E0,-8.478801835E-1,1.100840456E1
8.106152583E0,1.083012863E1,-2.168208375E0,-8.959898313E-1,1.108131813E1
8.116189583E0,1.078046004E1,-2.290104110E0,-7.957908475E-1,1.104971396E1
8.126226583E0,1.050483282E1,-2.520469789E0,-6.545745961E-1,1.082278839E1
8.136263583E0,9.927095171E0,-2.716526930E0,-4.313664941E-1,1.030110742E1
8.146300583E0,9.331670862E0,-2.976218149E0,-1.176634475E-1,9.795498979E0
8.156337583E0,8.898597420E0,-3.220646381E0,1.374716214E-1,9.464486125E0
8.166374583E0,8.527397459E0,-3.450504522E0,3.093048441E-1,9.204246757E0
8.176410583E0,8.250353458E0,-3.700743132E0,4.638021688E-1,9.054222460E0
8.186447583E0,7.836430816E0,-3.847875450E0,5.539827526E-1,8.747724865E0
8.196484583E0,7.141392172E0,-3.964022788E0,6.931279202E-1,8.197157137E0
8.206521583E0,6.428766857E0,-4.196325064E0,9.575422280E-1,7.736606134E0
8.216558583E0,6.089030179E0,-4.435783748E0,1.291202187E0,7.643276069E0
8.226595583E0,5.989463791E0,-4.518268080E0,1.493661737E0,7.649800542E0
8.236632583E0,5.767033369E0,-4.594384210E0,1.694892640E0,7.565692381E0
8.246669583E0,5.251633469E0,-4.757187651E0,1.894128474E0,7.334726383E0
8.256706583E0,4.683138512E0,-4.875232995E0,2.070082741E0,7.070001812E0
8.266743583E0,4.202871607E0,-4.913099563E0,2.082155048E0,6.792499298E0
8.276780583E0,3.924051222E0,-5.047539915E0,2.148194379E0,6.744670212E0
8.286816583E0,3.594294571E0,-5.030656080E0,2.418840942E0,6.639069630E0
8.296853583E0,3.302758246E0,-5.060625399E0,2.858689699E0,6.685076533E0
8.306890583E0,2.929208582E0,-5.123557811E0,3.206829411E0,6.716759816E0
8.316927583E0,2.390977351E0,-4.997640361E0,3.380746654E0,6.490194898E0
8.326964583E0,1.771613957E0,-4.816260316E0,3.563141191E0,6.247475858E0
8.337001583E0,1.002768395E0,-4.796152326E0,3.975731252E0,6.309917637E0
8.347038583E0,2.868453965E-1,-4.793337477E0,4.358130970E0,6.484725900E0
8.357075583E0,-1.475577030E-1,-4.920722578E0,4.579282022E0,6.723474385E0
8.367112583E0,-8.299958166E-1,-4.972767475E0,4.581326500E0,6.812184813E0
8.377149583E0,-1.630386449E0,-4.676900117E0,4.363352534E0,6.600787833E0
8.387186583E0,-2.346559270E0,-4.373969908E0,4.193748196E0,6.498113349E0
8.397223583E0,-2.979588484E0,-4.070321075E0,4.093897634E0,6.496572868E0
8.407259583E0,-3.623326289E0,-3.927543179E0,3.953745722E0,6.647269669E0
8.417296583E0,-4.711900673E0,-3.970531324E0,3.833447446E0,7.256889572E0
8.427333583E0,-6.256144772E0,-3.898303007E0,3.606169682E0,8.206130240E0
8.437370583E0,-7.536290313E0,-3.622799163E0,3.258021784E0,8.974132348E0
8.447407583E0,-8.268598525E0,-3.278624448E0,2.898784057E0,9.355321953E0
8.457444583E0,-8.659540440E0,-2.883390677E0,2.712194728E0,9.521427554E0
8.467481583E0,-8.760241773E0,-2.236240144E0,2.668175719E0,9.426651981E0
8.477518583E0,-8.623896398E0,-1.945166919E0,2.733310193E0,9.253445198E0
8.487555583E0,-8.736906704E0,-1.851713210E0,2.582771287E0,9.296939716E0
8.497592583E0,-8.979101300E0,-1.632535594E0,2.282880460E0,9.407495725E0
8.507629583E0,-9.022220423E0,-1.435172185E0,2.035366652E0,9.359641978E0
8.517666583E0,-9.314597577E0,-1.193502669E0,1.779720536E0,9.557906771E0
8.527702583E0,-9.546350216E0,-1.025398142E0,1.499002730E0,9.717574439E0
8.537739583E0,-9.294806507E0,-1.172944443E0,1.154046315E0,9.439335229E0
8.547776583E0,-8.800990434E0,-1.130914657E0,5.868826962E-1,8.892740403E0
8.557813583E0,-8.335019386E0,-9.094724143E-1,7.981102187E-2,8.384870783E0
8.567850583E0,-8.058131506E0,-7.825457346E-1,-6.397668879E-2,8.096292621E0
8.577887583E0,-7.867499996E0,-6.590917164E-1,1.201053178E-1,7.895972605E0
8.587924583E0,-7.557591720E0,-5.582061964E-1,1.962442517E-1,7.580718869E0
8.597961583E0,-7.066695746E0,-5.115226114E-1,1.123904284E-1,7.086076189E0
8.607998583E0,-6.492206808E0,-5.966276658E-1,-1.262144887E-1,6.520785529E0
8.618035583E0,-5.952314091E0,-6.253462654E-1,-3.253425141E-1,5.993909304E0
8.628072583E0,-5.701272073E0,-5.752724648E-1,-4.293797199E-1,5.746286506E0
8.638109583E0,-5.859807047E0,-4.728707618E-1,-2.610735011E-1,5.884649926E0
8.648145583E0,-6.038431299E0,-5.256243414E-1,7.289212123E-3,6.061269391E0
8.658182583E0,-6.071769783E0,-6.075847632E-1,1.231692588E-1,6.103336646E0
8.668219583E0,-5.927096804E0,-6.894703406E-1,2.336890899E-2,5.967109182E0
8.678256583E0,-5.890235957E0,-8.176699591E-1,-6.446796454E-2,5.947068178E0
8.688293583E0,-6.166784699E0,-7.305248111E-1,1.373031485E-1,6.211421108E0
8.698330458E0,-6.364853867E0,-6.565154332E-1,6.007324111E-1,6.426760980E0
8.708367458E0,-6.374827462E0,-7.676727569E-1,1.000155639E0,6.498311930E0
8.718404458E0,-6.460326619E0,-9.059792876E-1,1.220409801E0,6.636717455E0
8.728441458E0,-6.936560115E0,-7.822954738E-1,1.383633657E0,7.116339967E0
8.738478458E0,-7.409902747E0,-7.685001379E-1,1.692745543E0,7.639544401E0
8.748515458E0,-7.402047012E0,-9.411923897E-1,2.052088519E0,7.738682729E0
8.758551458E0,-6.852873010E0,-1.153360364E0,2.226724970E0,7.297288038E0
8.768588458E0,-6.191568707E0,-1.259607781E0,2.321169344E0,6.731267484E0
8.778625458E0,-5.679468391E0,-1.452769380E0,2.520160471E0,6.381074273E0
8.788662458E0,-5.189531946E0,-1.854116415E0,2.633514594E0,6.107731871E0
8.798699458E0,-4.958915421E0,-1.888894485E0,2.487452316E0,5.860561710E0
8.808736458E0,-5.073325551E0,-1.693671741E0,2.320955043E0,5.830436384E0
8.818773458E0,-5.198087592E0,-1.748182994E0,2.522355808E0,6.036434147E0
8.828810458E0,-5.304832606E0,-1.890861488E0,2.982948879E0,6.372957725E0
8.838847458E0,-5.479462041E0,-2.215264428E0,3.513410622E0,6.875751227E0
8.848884458E0,-5.957945545E0,-2.630311489E0,3.993435452E0,7.639579854E0
8.858921458E0,-5.967041473E0,-3.174256911E0,4.250189030E0,7.984084022E0
8.868958458E0,-5.283610137E0,-3.705789279E0,4.204760842E0,7.702559575E0
8.878994458E0,-3.815351483E0,-4.065668446E0,3.751109294E0,6.719924686E0
8.889031458E0,-2.441540856E0,-3.963826906E0,3.205820181E0,5.652462165E0
8.899068458E0,-1.949871004E0,-3.705275309E0,3.200282868E0,5.269997389E0
8.909105458E0,-2.138870555E0,-3.819915234E0,3.790617760E0,5.790967333E0
8.919142458E0,-3.024422010E0,-3.999989596E0,4.495056388E0,6.734432211E0
8.929179458E0,-3.785769542E0,-4.164634325E0,4.664433854E0,7.309799810E0
8.939216458E0,-3.740765277E0,-4.382283479E0,4.315564409E0,7.198738050E0
8.949253458E0,-2.651664059E0,-4.980654200E0,3.808234252E0,6.807414095E0
8.959290458E0,-5.704315549E-1,-5.709303809E0,3.124932139E0,6.533509242E0
8.969327458E0,1.314894374E0,-5.649801958E0,2.615761278E0,6.363286607E0
8.979364458E0,2.232977983E0,-5.242655069E0,2.892401236E0,6.390430952E0
8.989400458E0,2.217239617E0,-4.695236401E0,3.935102459E0,6.515092305E0
8.999437458E0,2.254310380E0,-4.336019139E0,4.885035267E0,6.909887613E0
9.009474458E0,2.666132702E0,-4.465999235E0,5.237975543E0,7.381720703E0
9.019511458E0,3.283177090E0,-4.505576114E0,4.935862774E0,7.445952541E0
9.029548458E0,4.393383833E0,-4.565643391E0,4.070486552E0,7.530988106E0
9.039585458E0,6.251511438E0,-4.986590293E0,2.781370797E0,8.466610982E0
9.049622458E0,8.133938903E0,-5.166820191E0,1.449891965E0,9.744700081E0
9.059659458E0,9.473259435E0,-4.830252119E0,3.608141363E-1,1.063974467E1
9.069696458E0,1.014865085E1,-4.320039868E0,-3.753327727E-2,1.102992599E1
9.079733458E0,1.036713908E1,-4.003119026E0,2.129941857E-1,1.111521035E1
9.089770458E0,1.048380273E1,-3.673651228E0,4.949025587E-1,1.111983640E1
9.099807458E0,1.039636346E1,-3.350308388E0,4.450971452E-1,1.093192806E1
9.109843458E0,1.018060705E1,-3.346845083E0,-1.539688826E-2,1.071663982E1
9.119880458E0,1.027682766E1,-3.472674240E0,-6.171759510E-1,1.086524548E1
9.129917458E0,1.053947524E1,-3.501147841E0,-1.090773522E0,1.115922763E1
9.139954458E0,1.056002703E1,-3.558875647E0,-1.136330348E0,1.120138444E1
9.149991458E0,1.052688969E1,-3.530322231E0,-8.306355751E-1,1.113411591E1
9.160028458E0,1.058877194E1,-3.559891601E0,-5.424157906E-1,1.118432539E1
9.170065458E0,1.071538521E1,-3.624188461E0,-5.218311064E-1,1.132371538E1
9.180102458E0,1.098499565E1,-3.622362961E0,-8.264664372E-1,1.159632224E1
9.190139458E0,1.113015979E1,-3.753677976E0,-1.129133595E0,1.180023296E1
9.200176458E0,1.110963022E1,-3.788319805E0,-1.292896564E0,1.180876082E1
9.210213458E0,1.063281317E1,-3.790137119E0,-1.115740182E0,1.134313587E1
9.220249458E0,9.920372043E0,-3.825039734E0,-6.380799662E-1,1.065137815E1
9.230286458E0,9.319875274E0,-3.815774821E0,-1.971622646E-1,1.007269009E1
9.240323458E0,8.881033553E0,-3.904903345E0,-6.003102422E-2,9.701784930E0
9.250360458E0,8.467337199E0,-4.086281635E0,-2.186765099E-1,9.404324338E0
9.260397458E0,7.820770218E0,-4.186585942E0,-3.225240831E-1,8.876709438E0
9.270434458E0,7.077353466E0,-4.157841614E0,-1.928973055E-1,8.210590012E0
9.280471458E0,6.341916994E0,-4.229843643E0,2.041543651E-1,7.625822409E0
9.290508458E0,5.900089100E0,-4.385705270E0,7.034961299E-1,7.385145151E0
9.300545458E0,5.702728615E0,-4.437855417E0,1.141835063E0,7.315699670E0
9.310582458E0,5.630872182E0,-4.552815185E0,1.516642610E0,7.398314162E0
9.320619458E0,5.435489225E0,-4.708664532E0,1.970859146E0,7.456564260E0
9.330656458E0,5.367995399E0,-4.698050666E0,2.441204349E0,7.539664007E0
9.340692458E0,5.282667566E0,-4.748002844E0,2.767102422E0,7.622792365E0
9.350729458E0,4.944700840E0,-4.849960744E0,2.775448737E0,7.461588390E0
9.360766458E0,4.668580699E0,-4.849887069E0,2.635568136E0,7.229333975E0
9.370803458E0,4.487128733E0,-4.971865835E0,2.526892955E0,7.158139574E0
9.380840458E0,4.110642597E0,-5.170758875E0,2.495542524E0,7.061293252E0
9.390877458E0,3.811368944E0,-5.218382692E0,2.545226315E0,6.945230604E0
9.400914458E0,3.635349919E0,-5.086508099E0,2.724174503E0,6.819784483E0
9.410951458E0,3.350225358E0,-4.867115305E0,3.029348874E0,6.640013249E0
9.420988458E0,3.000413927E0,-4.739304526E0,3.586165187E0,6.657632603E0
9.431025458E0,2.456399800E0,-4.708447015E0,4.158602922E0,6.745172462E0
9.441062458E0,1.759395907E0,-4.808876452E0,4.587031921E0,6.874709342E0
9.451098458E0,1.137457399E0,-4.827342544E0,4.712251214E0,6.841224808E0
9.461135458E0,6.592637707E-1,-4.782701976E0,4.610890900E0,6.676015414E0
9.471172458E0,2.098923840E-1,-4.614944775E0,4.557420452E0,6.489364473E0
9.481209458E0,-3.438148186E-1,-4.304704961E0,4.622061421E0,6.325515410E0
9.491246458E0,-6.418091011E-1,-4.114834174E0,4.769909438E0,6.332125650E0
9.501283458E0,-8.221736307E-1,-4.131996921E0,4.955701207E0,6.504486336E0
9.511320458E0,-1.354287504E0,-4.049143630E0,4.997504121E0,6.573028694E0
9.521357458E0,-2.287500053E0,-4.042088379E0,4.950147521E0,6.787863835E0
9.531394458E0,-3.256428418E0,-3.857370159E0,4.691216440E0,6.891381739E0
9.541431458E0,-4.189542587E0,-3.615444535E0,4.164562112E0,6.925841743E0
9.551468458E0,-5.034742699E0,-3.534631337E0,3.444208825E0,7.050165045E0
9.561505458E0,-5.790121100E0,-3.417676499E0,2.848697977E0,7.302129495E0
9.571541458E0,-6.486256682E0,-3.206948694E0,2.706962639E0,7.725522144E0
9.581578458E0,-6.841015441E0,-2.936087539E0,2.903744835E0,7.990734407E0
9.591615458E0,-7.075433241E0,-2.761054646E0,3.176282387E0,8.232493432E0
9.601652458E0,-7.800349402E0,-2.673715956E0,3.222092983E0,8.853027222E0
9.611689458E0,-8.986371143E0,-2.539764431E0,3.100610061E0,9.839667293E0
9.621726458E0,-1.029070662E1,-2.318230972E0,2.894617331E0,1.093853953E1
9.631763458E0,-1.119146083E1,-2.190131925E0,2.418892543E0,1.165746604E1
9.641800458E0,-1.123959394E1,-2.089254591E0,1.676892571E0,1.155445479E1
9.651837458E0,-1.074598369E1,-1.865899724E0,9.147091806E-1,1.094506465E1
9.661874458E0,-1.044725295E1,-1.649677876E0,6.718076563E-1,1.059801193E1
9.671911458E0,-1.047972956E1,-1.434394505E0,9.931437314E-1,1.062396130E1
9.681947458E0,-1.053529682E1,-1.266090589E0,1.430607848E0,1.070710527E1
9.691984208E0,-1.033621199E1,-1.120507198E0,1.531383440E0,1.050894618E1
9.702021208E0,-9.703478349E0,-9.590883780E-1,1.160909631E0,9.819625948E0
9.712058208E0,-9.023161240E0,-8.367751515E-1,6.596442783E-1,9.085855050E0
9.722095208E0,-8.544655516E0,-7.930327159E-1,4.647999231E-1,8.593955885E0
9.732132208E0,-8.202154859E0,-7.642416108E-1,5.620963855E-1,8.256837283E0
9.742169208E0,-7.601878531E0,-6.037963521E-1,6.180869472E-1,7.650827322E0
9.752206208E0,-6.645504431E0,-4.442480564E-1,4.842511976E-1,6.677917691E0
9.762243208E0,-5.851866528E0,-2.553362131E-1,3.587149858E-1,5.868408207E0
9.772280208E0,-5.348098494E0,-4.765831590E-2,5.684593622E-1,5.378436098E0
9.782317208E0,-5.277558854E0,8.670836091E-2,9.846173946E-1,5.369321857E0
9.792353208E0,-5.303194216E0,9.528564155E-2,1.294830823E0,5.459810904E0
9.802390208E0,-5.111548215E0,6.889774203E-2,1.332642428E0,5.282859822E0
9.812427208E0,-5.213567510E0,6.471405923E-2,1.385661471E0,5.394954291E0
9.822464208E0,-5.516382530E0,-3.709356666E-2,1.634858108E0,5.753660850E0
9.832501208E0,-5.886169803E0,-2.414537537E-1,2.074553522E0,6.245723912E0
9.842538208E0,-6.394538426E0,-5.249296921E-1,2.301763604E0,6.816435180E0
9.852575208E0,-6.561496314E0,-8.580262721E-1,2.098494362E0,6.942126587E0
9.862612208E0,-6.587760837E0,-9.282805681E-1,1.692567787E0,6.864771181E0
9.872649208E0,-6.356806344E0,-1.043916274E0,1.464309884E0,6.606281217E0
9.882686208E0,-5.873110047E0,-1.237843274E0,1.584553196E0,6.207776287E0
9.892723208E0,-5.289171424E0,-1.427992389E0,1.922807751E0,5.806176561E0
9.902759208E0,-4.589432203E0,-1.757574207E0,2.173028820E0,5.373454130E0
9.912796208E0,-4.385768420E0,-1.937929820E0,2.277969822E0,5.308453930E0
9.922833208E0,-4.997210006E0,-2.177200808E0,2.443240349E0,5.973419005E0
9.932870208E0,-5.975271429E0,-2.548896028E0,2.534515386E0,6.973127552E0
9.942907208E0,-6.518424554E0,-2.861036772E0,2.212187769E0,7.454472805E0
9.952944208E0,-6.573714656E0,-3.047095174E0,1.793655621E0,7.464295938E0
9.962981208E0,-6.176177666E0,-3.099825949E0,1.849268489E0,7.153592484E0
9.973018208E0,-5.043021187E0,-3.328640361E0,2.458430246E0,6.523479794E0
9.983055208E0,-3.421155007E0,-3.545584926E0,3.143750818E0,5.844539610E0
9.993092208E0,-1.929440540E0,-3.433586773E0,3.720345923E0,5.417862374E0
1.000312921E1,-7.918799374E-1,-3.055104690E0,4.179470465E0,5.237242774E0
1.001316521E1,2.424697074E-1,-2.769351261E0,4.435752758E0,5.234883045E0
1.002320221E1,1.173159913E0,-2.665402384E0,4.414855978E0,5.288820980E0
1.003323921E1,1.653333555E0,-2.678219481E0,4.142144179E0,5.202281215E0
1.004327621E1,1.580298323E0,-2.634942484E0,3.659838935E0,4.778565236E0
1.005331321E1,9.514548379E-1,-2.773331460E0,3.425105971E0,4.508656630E0
1.006335021E1,3.362175313E-1,-3.187964539E0,3.308819762E0,4.606999929E0
1.007338721E1,8.959135982E-1,-3.730501367E0,2.874007942E0,4.793664911E0
1.008342421E1,2.673879385E0,-4.183296883E0,2.063508278E0,5.376585365E0
1.009346121E1,4.358731479E0,-3.875771931E0,1.202391898E0,5.955324882E0
1.010349821E1,5.179265404E0,-3.185866558E0,1.092548736E0,6.178041647E0
1.011353521E1,4.986614851E0,-2.649854638E0,1.880724170E0,5.951905635E0
1.012357221E1,4.367009967E0,-2.457754893E0,2.917447200E0,5.798519926E0
1.013360821E1,3.613392747E0,-2.453690493E0,3.305229864E0,5.477385201E0
1.014364521E1,2.318971229E0,-2.456557383E0,3.078293870E0,4.570360477E0
1.015368221E1,9.589819586E-1,-2.510211434E0,2.638671546E0,3.766084886E0
1.016371921E1,8.240597963E-2,-2.771797736E0,2.519109727E0,3.746407245E0
1.017375621E1,8.276751298E-1,-3.477391773E0,2.257771493E0,4.227863737E0
1.018379321E1,2.693187184E0,-3.849976940E0,1.406531061E0,4.904478491E0
1.019383021E1,3.986110645E0,-3.388553272E0,6.344030178E-1,5.270089045E0
1.020386721E1,4.984889338E0,-2.933560372E0,5.914577039E-1,5.814182693E0
1.021390421E1,5.805623238E0,-2.713918487E0,1.260413088E0,6.531405353E0
1.022394121E1,6.735404786E0,-2.593725461E0,1.767704508E0,7.430872670E0
1.023397721E1,7.416911804E0,-2.462905120E0,1.686575853E0,7.995062254E0
1.024401421E1,7.425891958E0,-2.408234239E0,1.093631348E0,7.882860714E0
1.025405121E1,6.783495212E0,-2.555282357E0,5.447068758E-1,7.269248984E0
1.026408821E1,6.193572548E0,-2.863359286E0,5.689691663E-2,6.823665039E0
1.027412521E1,6.452155135E0,-3.254358503E0,-6.475132062E-1,7.255372389E0
1.028416221E1,7.284604517E0,-3.549071036E0,-1.523136820E0,8.245078165E0
1.029419921E1,7.954888389E0,-3.423757018E0,-2.158633998E0,8.925360616E0
1.030423621E1,8.201420449E0,-3.131589779E0,-2.184701324E0,9.046716078E0
1.031427321E1,8.347195044E0,-3.083842585E0,-1.752272537E0,9.069520893E0
1.032431021E1,8.607157574E0,-3.181641360E0,-1.507708357E0,9.299418677E0
1.033434721E1,8.839138838E0,-3.312469887E0,-1.739735229E0,9.598411890E0
1.034438421E1,8.939686389E0,-3.379150364E0,-2.279851164E0,9.825190647E0
1.035442021E1,8.781660123E0,-3.395275816E0,-2.584495046E0,9.763455691E0
1.036445721E1,8.532313213E0,-3.477435628E0,-2.512436299E0,9.550144683E0
1.037449421E1,8.344016497E0,-3.590837697E0,-2.235099206E0,9.354805991E0
1.038453121E1,8.092176919E0,-3.696693351E0,-1.812074350E0,9.079233584E0
1.039456821E1,7.942051996E0,-3.957005544E0,-1.332673564E0,8.972742146E0
1.040460521E1,7.894766732E0,-4.206133184E0,-1.053469455E0,9.007146941E0
1.041464221E1,7.784129811E0,-4.475465292E0,-1.030325299E0,9.037922146E0
1.042467921E1,7.460722652E0,-4.627650189E0,-1.158984801E0,8.855550493E0
1.043471621E1,7.042266664E0,-4.629218413E0,-1.116550972E0,8.501168681E0
1.044475321E1,6.617144850E0,-4.664703995E0,-7.524547935E-1,8.130944443E0
1.045479021E1,6.067686088E0,-4.669957134E0,-1.439458779E-1,7.658069894E0
1.046482621E1,5.624781137E0,-4.769523522E0,4.343601224E-1,7.387502026E0
1.047486321E1,5.286569413E0,-4.971358296E0,8.073095700E-1,7.301641474E0
1.048490021E1,4.965678896E0,-5.195434125E0,9.240389979E-1,7.245988595E0
1.049493721E1,4.625137641E0,-5.361245958E0,8.557461503E-1,7.132121556E0
1.050497421E1,4.137067627E0,-5.338099755E0,1.013726223E0,6.829222386E0
1.051501121E1,3.632286270E0,-5.246368636E0,1.567506662E0,6.570765903E0
1.052504821E1,3.417491727E0,-5.114084153E0,2.346562778E0,6.583271474E0
1.053508521E1,3.422967937E0,-5.128541393E0,3.036225492E0,6.872940532E0
1.054512221E1,3.371075652E0,-5.059935427E0,3.278127142E0,6.907475309E0
1.055515921E1,3.114592507E0,-4.828188052E0,3.061626966E0,6.510425948E0
1.056519621E1,2.798147044E0,-4.590435001E0,2.491024088E0,5.925109398E0
1.057523221E1,2.314975242E0,-4.584267942E0,2.173742180E0,5.576717494E0
1.058526921E1,1.513526921E0,-4.506561370E0,2.331773708E0,5.295000259E0
1.059530621E1,6.068532765E-1,-4.418234500E0,2.804559685E0,5.268265561E0
1.060534321E1,1.063085201E-1,-4.003279240E0,3.158734600E0,5.100504921E0
1.061538021E1,2.572272027E-1,-3.470413122E0,3.444469903E0,4.896356398E0
1.062541721E1,4.497480936E-1,-3.361098840E0,3.902416524E0,5.169923934E0
1.063545421E1,1.369476378E-2,-3.224223123E0,4.472667692E0,5.513670155E0
1.064549121E1,-7.778876965E-1,-2.949159574E0,5.090784752E0,5.934537965E0
1.065552821E1,-1.394174140E0,-2.845376174E0,5.697076696E0,6.518939330E0
1.066556521E1,-2.083440413E0,-2.731755418E0,5.894539508E0,6.822668659E0
1.067560221E1,-2.909578602E0,-2.482106207E0,5.627299533E0,6.803895862E0
1.068563821E1,-3.844616505E0,-2.289416478E0,5.290302275E0,6.928910596E0
1.069567713E1,-4.682635067E0,-2.215357398E0,4.956843753E0,7.169740550E0
1.070571413E1,-5.285037442E0,-2.041577564E0,4.421683187E0,7.186858975E0
1.071575113E1,-5.563342688E0,-1.946537506E0,3.965298650E0,7.103758408E0
1.072578813E1,-5.921747772E0,-1.747970740E0,3.858176490E0,7.280660973E0
1.073582513E1,-6.440630858E0,-1.580409420E0,4.127136716E0,7.811061212E0
1.074586213E1,-7.113380501E0,-1.411926579E0,4.311649114E0,8.437063286E0
1.075589913E1,-7.851911904E0,-1.166494380E0,4.076090523E0,8.923437882E0
1.076593613E1,-8.476224967E0,-9.608238316E-1,3.672861854E0,9.287598523E0
1.077597313E1,-8.785480109E0,-9.008384156E-1,3.234724138E0,9.405296957E0
1.078601013E1,-8.858528790E0,-8.980329216E-1,2.660483122E0,9.292909442E0
1.079604613E1,-8.974256297E0,-7.961814415E-1,2.186385176E0,9.271001085E0
1.080608313E1,-9.015191485E0,-6.018445516E-1,1.980076550E0,9.249680941E0
1.081612013E1,-9.042369343E0,-5.002041560E-1,1.857991365E0,9.244824468E0
1.082615713E1,-9.006230042E0,-4.608494711E-1,1.654690694E0,9.168563851E0
1.083619413E1,-8.763851843E0,-4.532527685E-1,1.284543232E0,8.869080478E0
1.084623113E1,-8.695323061E0,-4.709610611E-1,9.455497348E-1,8.759252922E0
1.085626813E1,-8.871257594E0,-4.275922626E-1,7.097993553E-1,8.909874385E0
1.086630513E1,-9.021115884E0,-5.510304934E-1,6.123824036E-1,9.058652140E0
1.087634213E1,-9.072205346E0,-7.330250806E-1,4.572125030E-1,9.113247438E0
1.088637913E1,-8.964353453E0,-6.796657294E-1,5.532635450E-2,8.990252462E0
1.089641513E1,-8.694698578E0,-5.276176572E-1,-2.369723745E-1,8.713915289E0
1.090645213E1,-8.071763120E0,-5.485881114E-1,-2.421788085E-1,8.094007620E0
1.091648913E1,-7.604954751E0,-5.463340098E-1,-5.524800181E-2,7.624753764E0
1.092652613E1,-7.276763985E0,-5.112723505E-1,3.306318323E-1,7.302192200E0
1.093656313E1,-7.005549073E0,-5.806320226E-1,6.872324650E-1,7.063082884E0
1.094660013E1,-6.999379091E0,-6.602477109E-1,9.117459579E-1,7.089324044E0
1.095663713E1,-7.173782823E0,-7.209780622E-1,1.025359551E0,7.282467409E0
1.096667413E1,-7.418672985E0,-8.368961889E-1,1.252032713E0,7.569986130E0
1.097671113E1,-7.594706921E0,-9.618207818E-1,1.628729202E0,7.826712672E0
1.098674813E1,-7.411784965E0,-1.390893559E0,1.815169866E0,7.756544521E0
1.099678513E1,-7.282874326E0,-1.597476858E0,1.642308630E0,7.634747434E0
1.100682112E1,-7.218349131E0,-1.440434679E0,1.604136983E0,7.533436912E0
1.101685812E1,-6.846549831E0,-1.439127826E0,1.972682308E0,7.268962029E0
1.102689513E1,-6.333440285E0,-1.409031038E0,2.431384535E0,6.928886279E0
1.103693213E1,-5.552906578E0,-1.437344425E0,2.699065390E0,6.339217967E0
1.104696913E1,-4.441160848E0,-1.637125073E0,2.815923164E0,5.507586717E0
1.105700613E1,-4.076898608E0,-1.646420392E0,2.917394575E0,5.276646044E0
1.106704313E1,-4.485392110E0,-1.617308275E0,3.285072173E0,5.790175094E0
1.107708013E1,-4.408735698E0,-2.024700161E0,3.602573644E0,6.042755833E0
1.108711713E1,-4.227876640E0,-2.082243780E0,3.646147095E0,5.958612983E0
1.109715413E1,-4.233245553E0,-2.004588663E0,3.628044115E0,5.924647477E0
1.110719113E1,-4.191000005E0,-2.239537389E0,3.803003333E0,6.086283193E0
1.111722712E1,-3.656232373E0,-2.456525223E0,4.027360997E0,5.968432620E0
1.112726412E1,-2.840899253E0,-2.614911677E0,4.114033105E0,5.642139668E0
1.113730112E1,-2.079976230E0,-2.840203727E0,4.154002333E0,5.445070588E0
1.114733812E1,-1.093636318E0,-3.059322871E0,4.177416923E0,5.292098731E0
1.115737512E1,-1.060477343E-1,-3.151616492E0,4.186419296E0,5.241186808E0
1.116741212E1,5.483132923E-1,-3.002369236E0,4.233200530E0,5.218702446E0
1.117744912E1,1.193427240E0,-3.010249529E0,4.303934298E0,5.386067326E0
1.118748612E1,1.595561018E0,-2.984262164E0,4.400425050E0,5.551159901E0
1.119752312E1,1.925177627E0,-2.983554066E0,4.416648735E0,5.666982425E0
1.120756012E1,2.381013696E0,-3.194221060E0,4.214457865E0,5.799476657E0
1.121759712E1,2.419175549E0,-3.153185300E0,4.046152779E0,5.671537726E0
1.122763313E1,1.973031825E0,-2.967194726E0,4.037979541E0,5.385385585E0
1.123767013E1,1.570690763E0,-3.015996757E0,4.135202365E0,5.353802808E0
1.124770713E1,2.116591494E0,-3.441239609E0,4.027764455E0,5.704820427E0
1.125774413E1,3.913024542E0,-3.960116263E0,3.354793203E0,6.499916870E0
1.126778112E1,5.841543269E0,-4.000938599E0,2.302116484E0,7.445191585E0
1.127781812E1,6.929045273E0,-3.534697410E0,1.430785750E0,7.909039262E0
1.128785512E1,6.673133109E0,-2.910910013E0,1.248467227E0,7.386661831E0
1.129789212E1,5.937442283E0,-2.887526413E0,1.626525971E0,6.799751200E0
1.130792912E1,5.781405240E0,-3.167971739E0,1.715614003E0,6.812049831E0
1.131796612E1,6.186434852E0,-3.246684617E0,1.109660028E0,7.074198369E0
1.132800213E1,6.596361507E0,-3.261523681E0,2.153438893E-1,7.361786117E0
1.133803913E1,6.958722816E0,-3.233519027E0,-4.747107343E-1,7.687965843E0
1.134807613E1,7.043357754E0,-3.119281390E0,-7.546065688E-1,7.740041080E0
1.135811313E1,6.771480938E0,-3.013073149E0,-6.300925966E-1,7.438318397E0
1.136815013E1,6.796191856E0,-3.138763143E0,-4.089661033E-1,7.497153532E0
1.137818713E1,7.452386277E0,-3.414209100E0,-5.339152546E-1,8.214618098E0
1.138822413E1,8.221741278E0,-3.412880613E0,-1.088760179E0,8.968287598E0
1.139826113E1,8.656712142E0,-3.327636395E0,-1.669555631E0,9.423335136E0
1.140829813E1,8.626306620E0,-3.290100194E0,-1.998010107E0,9.446161632E0
1.141833513E1,8.429734340E0,-3.324425688E0,-2.127798268E0,9.308047736E0
1.142837213E1,8.188786370E0,-3.494260991E0,-2.018291613E0,9.129051600E0
1.143840913E1,7.959884834E0,-3.638394856E0,-1.909452710E0,8.957884424E0
1.144844513E1,7.695574899E0,-3.718930312E0,-1.823140937E0,8.739345431E0
1.145848213E1,7.374642867E0,-3.706907852E0,-1.787836472E0,8.445287590E0
1.146851913E1,7.225771002E0,-3.758552215E0,-1.736773761E0,8.327956798E0
1.147855613E1,7.078175000E0,-3.853406916E0,-1.692000461E0,8.234814616E0
1.148859313E1,6.933439456E0,-3.875312925E0,-1.712762608E0,8.125526980E0
1.149863013E1,6.788016863E0,-3.811283575E0,-1.721302467E0,7.972824945E0
1.150866713E1,6.485716984E0,-3.829225171E0,-1.506441265E0,7.680941055E0
1.151870413E1,6.209755302E0,-3.894298834E0,-1.111296956E0,7.413609461E0
1.152874113E1,6.313337558E0,-4.066026295E0,-7.716912559E-1,7.548927629E0
1.153877813E1,6.400875054E0,-4.124224802E0,-6.973977032E-1,7.646358299E0
1.154881413E1,6.115780606E0,-4.089723891E0,-6.828276113E-1,7.388833973E0
1.155885113E1,5.650881938E0,-4.076565317E0,-4.563631949E-1,6.982773004E0
1.156888813E1,5.239058447E0,-4.153515844E0,-1.639043252E-1,6.687771819E0
1.157892513E1,4.884464579E0,-4.301046942E0,1.385266784E-1,6.509699583E0
1.158896213E1,4.547398324E0,-4.501466691E0,3.530269606E-1,6.408327545E0
1.159899913E1,4.287977831E0,-4.755748066E0,6.210514855E-1,6.433474838E0
1.160903613E1,4.221497912E0,-5.068917920E0,9.888074362E-1,6.670285875E0
1.161907313E1,4.078583776E0,-5.015748603E0,1.485014143E0,6.633087266E0
1.162911013E1,3.831063536E0,-4.763824825E0,1.919004722E0,6.407312534E0
1.163914713E1,3.437638893E0,-4.632256626E0,2.226279120E0,6.183161111E0
1.164918413E1,3.141820067E0,-4.716903843E0,2.151963640E0,6.062273725E0
1.165922013E1,2.939472199E0,-4.867320542E0,1.917719211E0,6.000746041E0
1.166925713E1,2.854189097E0,-5.059472913E0,1.855981970E0,6.098305554E0
1.167929413E1,2.940290225E0,-5.243257332E0,2.029280870E0,6.344685564E0
1.168933113E1,3.048920382E0,-5.336598190E0,2.391003664E0,6.594853619E0
1.169936671E1,2.955079003E0,-5.294821004E0,2.684220479E0,6.631188502E0
1.170940371E1,2.473666044E0,-4.910270680E0,2.806177025E0,6.172877072E0
1.171944071E1,1.750540884E0,-4.628054817E0,3.036510544E0,5.805487151E0
1.172947771E1,1.171156365E0,-4.732666767E0,3.399068320E0,5.943349847E0
1.173951471E1,7.362970363E-1,-4.847629459E0,3.624899483E0,6.097666845E0
1.174955171E1,2.582247376E-2,-4.727391409E0,3.787068501E0,6.057291818E0
1.175958871E1,-7.058168167E-1,-4.625797207E0,4.021510273E0,6.169985580E0
1.176962471E1,-1.229765638E0,-4.305628236E0,4.108210448E0,6.076853719E0
1.177966171E1,-1.554211555E0,-3.722488927E0,3.907321168E0,5.616017814E0
1.178969871E1,-2.209442063E0,-3.345990220E0,3.576379287E0,5.372873866E0
1.179973571E1,-3.181644868E0,-3.175721639E0,3.341137615E0,5.601006388E0
1.180977271E1,-4.086882437E0,-2.909396753E0,3.263053898E0,5.984539937E0
1.181980971E1,-4.874174941E0,-2.711938035E0,3.198046893E0,6.429595103E0
1.182984671E1,-5.873243948E0,-2.457023991E0,3.064903454E0,7.065804593E0
1.183988371E1,-6.749040493E0,-2.208493937E0,2.853458780E0,7.653052989E0
1.184992071E1,-7.405769350E0,-1.855798659E0,2.450973877E0,8.018521140E0
1.185995771E1,-8.116293760E0,-1.306605946E0,2.077873571E0,8.479327926E0
1.186999471E1,-8.876518918E0,-9.151155621E-1,2.007512856E0,9.146591303E0
1.188003071E1,-9.183867284E0,-6.870963711E-1,2.182386703E0,9.464583004E0
1.189006771E1,-9.080130662E0,-3.797760719E-1,2.539636377E0,9.436246904E0
1.190010471E1,-8.967781091E0,6.055610418E-2,3.038999119E0,9.468911256E0
1.191014171E1,-9.117818890E0,3.162875891E-1,3.509165543E0,9.774911865E0
1.192017871E1,-9.583720940E0,3.880855501E-1,3.591282670E0,1.024185670E1
1.193021571E1,-9.944280138E0,4.638929468E-1,3.261600865E0,1.047577894E1
1.194025271E1,-9.986408157E0,5.608169782E-1,2.671515648E0,1.035277062E1
1.195028971E1,-9.745194724E0,5.957359654E-1,2.129720832E0,9.992969147E0
1.196032671E1,-9.285412370E0,6.068094224E-1,1.846901536E0,9.486735257E0
1.197036371E1,-8.884720223E0,5.748777777E-1,1.760704222E0,9.075726817E0
1.198039971E1,-8.572982937E0,4.723176152E-1,1.691032893E0,8.750926386E0
1.199043671E1,-8.323269407E0,3.414323705E-1,1.460314043E0,8.457299024E0
1.200047371E1,-8.070970237E0,1.541431296E-1,1.229835513E0,8.165587307E0
1.201051071E1,-7.965837300E0,1.897596896E-2,1.084757906E0,8.039379559E0
1.202054771E1,-8.054533714E0,2.800582409E-2,1.002136749E0,8.116685022E0
1.203058471E1,-7.795694434E0,-7.850764096E-2,8.363623381E-1,7.840823753E0
1.204062171E1,-7.185023510E0,-3.053532958E-1,5.330953288E-1,7.211240816E0
1.205065871E1,-6.822259328E0,-4.425757527E-1,3.290017748E-1,6.844511509E0
1.206069571E1,-6.603015053E0,-5.481226730E-1,3.882797142E-1,6.637093294E0
1.207073271E1,-6.128660268E0,-5.628330982E-1,6.161632133E-1,6.185217448E0
1.208076971E1,-5.440549990E0,-6.999848038E-1,9.370011055E-1,5.564848065E0
1.209080571E1,-5.106896755E0,-7.953330106E-1,1.295250653E0,5.328285214E0
1.210084271E1,-5.321707671E0,-8.436006063E-1,1.645303574E0,5.633760588E0
1.211087971E1,-5.708475258E0,-1.030450721E0,1.925844795E0,6.112069751E0
1.212091671E1,-5.859880722E0,-1.195724611E0,1.835518177E0,6.255964066E0
1.213095371E1,-5.638903332E0,-1.422161545E0,1.624192786E0,6.038027530E0
1.214099071E1,-5.372463841E0,-1.545051307E0,1.587240722E0,5.811186142E0
1.215102771E1,-4.759595827E0,-1.720395271E0,1.833450601E0,5.382848078E0
1.216106471E1,-4.073143234E0,-1.904947430E0,2.336483055E0,5.067393175E0
1.217110171E1,-3.719764125E0,-1.809381123E0,2.913695626E0,5.059656845E0
1.218113871E1,-3.462656205E0,-1.890352196E0,3.334153701E0,5.165268659E0
1.219117571E1,-3.326054723E0,-2.152666476E0,3.334986345E0,5.178681965E0
1.220121171E1,-3.825370394E0,-2.146553797E0,3.057147707E0,5.346709638E0
1.221124871E1,-4.437736718E0,-2.191570925E0,2.867475725E0,5.720044347E0
1.222128571E1,-4.523559811E0,-2.560653024E0,2.812918864E0,5.910334154E0
1.223132271E1,-4.528251032E0,-2.834348325E0,2.958839639E0,6.106825677E0
1.224135971E1,-3.726849196E0,-3.282481856E0,3.052080510E0,5.829175542E0
1.225139671E1,-2.257529857E0,-3.448510036E0,3.164837047E0,5.196619676E0
1.226143371E1,-1.260273486E0,-3.079623819E0,3.472133957E0,4.809166907E0
1.227147071E1,-6.986127546E-1,-2.879071923E0,3.955589933E0,4.942044784E0
1.228150771E1,-1.237370235E-1,-2.867269319E0,4.293452871E0,5.164327812E0
1.229154471E1,-5.855167866E-2,-2.926453081E0,4.346897299E0,5.240522118E0
1.230158171E1,-5.625316742E-1,-3.017507678E0,4.097706510E0,5.119862607E0
1.231161771E1,-1.542132377E0,-3.138131644E0,3.932493432E0,5.262180828E0
1.232165471E1,-2.335654213E0,-3.432880429E0,3.781373312E0,5.615935609E0
1.233169171E1,-1.345219204E0,-3.963816381E0,3.233583931E0,5.289378040E0
1.234172871E1,4.841965261E-1,-4.068264025E0,2.491353579E0,4.795003765E0
1.235176571E1,2.142853094E0,-3.685495933E0,2.134561450E0,4.767709328E0
1.236180271E1,3.161495948E0,-3.057687989E0,2.724484406E0,5.173715082E0
1.237183971E1,3.648411137E0,-2.772088927E0,3.859016150E0,5.990608190E0
1.238187671E1,3.845042474E0,-2.736899214E0,4.423369524E0,6.468474850E0
1.239191371E1,4.544348416E0,-3.008190140E0,3.974695126E0,6.745258467E0
1.240195071E1,5.726285293E0,-3.224017301E0,2.660543933E0,7.089649133E0
1.241198671E1,6.654439561E0,-2.998191985E0,1.229955965E0,7.401588527E0
1.242202371E1,6.963160853E0,-2.717446697E0,5.184024453E-1,7.492587451E0
1.243206071E1,7.378248260E0,-2.731934343E0,4.975163372E-1,7.883497647E0
1.244209771E1,8.185803705E0,-2.798699021E0,6.023789871E-1,8.671963962E0
1.245213471E1,8.921223221E0,-2.693290095E0,4.974052401E-1,9.332172698E0
1.246217171E1,9.693726363E0,-2.679566680E0,7.112202287E-2,1.005750798E1
1.247220871E1,1.036682333E1,-2.730708767E0,-6.201708949E-1,1.073836153E1
1.248224571E1,1.054535286E1,-2.728834734E0,-1.373321507E0,1.097893519E1
1.249228271E1,1.034400866E1,-2.771914095E0,-1.939551691E0,1.088319272E1
1.250231971E1,1.011704899E1,-2.886705464E0,-2.219632152E0,1.075241906E1
1.251235671E1,9.989385560E0,-3.056872303E0,-2.280380191E0,1.069263419E1
1.252239271E1,1.004102349E1,-3.158425575E0,-2.297000316E0,1.077376514E1
1.253242971E1,1.000448190E1,-3.185060227E0,-2.326953117E0,1.075402146E1
1.254246671E1,9.844861100E0,-3.269690487E0,-2.394666359E0,1.064643569E1
1.255250371E1,9.555620391E0,-3.318756813E0,-2.287626206E0,1.037098170E1
1.256254071E1,9.390728325E0,-3.409993842E0,-2.082366571E0,1.020539500E1
1.257257771E1,9.125291047E0,-3.547373589E0,-1.918420000E0,9.976729493E0
1.258261471E1,8.706348571E0,-3.650159454E0,-1.768527796E0,9.604783186E0
1.259265171E1,8.079657446E0,-3.689160383E0,-1.691262689E0,9.041633605E0
1.260268871E1,7.339396436E0,-3.727284229E0,-1.584089950E0,8.382644495E0
1.261272571E1,6.534022586E0,-3.831652935E0,-1.548012776E0,7.731193888E0
1.262276171E1,5.752938656E0,-3.935849733E0,-1.495979719E0,7.129177485E0
1.263279871E1,5.360091718E0,-3.993065908E0,-1.303343199E0,6.809835686E0
1.264283571E1,5.422578573E0,-4.049225491E0,-8.607849884E-1,6.822135754E0
1.265287271E1,5.611358269E0,-4.199255689E0,-2.993552220E-1,7.015034106E0
1.266290971E1,5.679252044E0,-4.302014072E0,2.048840976E-1,7.127636800E0
1.267294671E1,5.435612016E0,-4.398812388E0,5.838691874E-1,7.016860526E0
1.268298371E1,5.118089495E0,-4.633299769E0,9.280620284E-1,6.965888742E0
1.269302071E1,4.998384127E0,-4.884440605E0,1.117798475E0,7.077505022E0
1.270305750E1,4.843503079E0,-4.954009607E0,1.091323891E0,7.013752284E0
1.271309450E1,4.508116729E0,-4.870982069E0,1.043516471E0,6.718519880E0
1.272313150E1,4.163892313E0,-4.773532957E0,1.117251030E0,6.432174279E0
1.273316750E1,3.954702618E0,-4.774479037E0,1.265441694E0,6.327453323E0
1.274320450E1,3.730314841E0,-4.811821695E0,1.470889463E0,6.263576666E0
1.275324150E1,3.178645539E0,-4.796135370E0,1.918185234E0,6.065157586E0
1.276327850E1,2.782830847E0,-4.807925110E0,2.609074694E0,6.137390500E0
1.277331550E1,2.888204397E0,-4.761342682E0,3.244236388E0,6.444934330E0
1.278335250E1,3.055592640E0,-4.519538096E0,3.610738696E0,6.542194197E0
1.279338950E1,2.734309190E0,-4.256870643E0,3.749744554E0,6.297458109E0
1.280342650E1,2.006511520E0,-4.169417347E0,3.870946809E0,6.032773715E0
1.281346350E1,1.168361396E0,-4.178331428E0,3.897070999E0,5.831867989E0
1.282350050E1,5.634403315E-1,-4.328483248E0,3.863036403E0,5.828917780E0
1.283353650E1,3.186177045E-2,-4.282645755E0,3.919427243E0,5.805512876E0
1.284357350E1,-5.210022636E-1,-4.027897187E0,4.078596640E0,5.755896946E0
1.285361050E1,-1.175808190E0,-3.744146429E0,4.327703229E0,5.842103442E0
1.286364750E1,-1.658531145E0,-3.347173111E0,4.347076224E0,5.731611038E0
1.287368450E1,-2.110240541E0,-2.779319594E0,4.262762883E0,5.508981752E0
1.288372150E1,-2.578810675E0,-2.376463977E0,4.366932199E0,5.600709095E0
1.289375850E1,-3.102672081E0,-2.301374034E0,4.582716676E0,5.993679055E0
1.290379550E1,-4.336930135E0,-2.160556709E0,4.684469923E0,6.739527190E0
1.291383250E1,-5.823198799E0,-2.000968067E0,4.611014861E0,7.692527251E0
1.292386950E1,-6.690332694E0,-1.604698754E0,4.224516245E0,8.073546132E0
1.293390650E1,-6.672881094E0,-1.086571128E0,3.771758151E0,7.741714181E0
1.294394250E1,-6.129602839E0,-7.890642107E-1,3.460452390E0,7.083034945E0
1.295397950E1,-6.044870253E0,-5.698854250E-1,3.181709188E0,6.854815761E0
1.296401650E1,-6.826344193E0,-5.238403559E-1,3.021955070E0,7.483688676E0
1.297405350E1,-7.911954623E0,-5.802028370E-1,2.974765116E0,8.472596342E0
1.298409050E1,-9.090892462E0,-5.426204431E-1,2.757888964E0,9.515498633E0
1.299412750E1,-9.322836889E0,-2.422559917E-1,2.389750021E0,9.627298727E0
1.300416450E1,-8.595438584E0,-6.656470299E-3,2.019945790E0,8.829597372E0
1.301420150E1,-7.992211751E0,1.836967117E-1,1.843188554E0,8.204056143E0
1.302423850E1,-8.152114972E0,3.329936689E-1,2.021515768E0,8.405616533E0
1.303427550E1,-8.622696549E0,2.829730779E-1,2.351689909E0,8.942114681E0
1.304431150E1,-8.631525260E0,2.536469525E-1,2.262568987E0,8.926745404E0
1.305434850E1,-8.050279865E0,3.004170763E-1,1.717611412E0,8.236956069E0
1.306438550E1,-7.306516373E0,2.635825413E-1,1.248596304E0,7.417118712E0
1.307442250E1,-6.962678457E0,2.414332885E-1,1.027297903E0,7.042195845E0
1.308445950E1,-7.069985974E0,1.870348871E-1,9.773451394E-1,7.139669968E0
1.309449650E1,-7.388011941E0,1.228119940E-1,9.927040207E-1,7.455418465E0
1.310453350E1,-7.443843495E0,4.728584826E-2,9.783233786E-1,7.508006297E0
1.311457050E1,-7.153167295E0,-6.433866799E-2,8.033875501E-1,7.198428535E0
1.312460750E1,-6.800594224E0,-1.397151250E-1,6.846171516E-1,6.836395451E0
1.313464450E1,-6.433117771E0,-7.416374445E-2,7.548474741E-1,6.477676993E0
1.314468150E1,-5.902160769E0,-8.479281306E-2,1.067377058E0,5.998498591E0
1.315471750E1,-5.562308316E0,-1.857520080E-1,1.274138696E0,5.709396380E0
1.316475450E1,-5.542547066E0,-3.057655245E-1,1.237960804E0,5.687342743E0
1.317479150E1,-5.605952518E0,-4.436761987E-1,1.075959016E0,5.725490373E0
1.318482850E1,-5.883942599E0,-7.083732194E-1,9.962111807E-1,6.009576511E0
1.319486550E1,-6.504104723E0,-1.061651464E0,1.021282872E0,6.668845536E0
1.320490250E1,-7.558492776E0,-1.289230360E0,1.216571689E0,7.763567133E0
1.321493950E1,-8.616344719E0,-1.414516895E0,1.543253288E0,8.867011056E0
1.322497650E1,-8.748726266E0,-1.825689592E0,1.724446807E0,9.102036616E0
1.323501350E1,-8.431824719E0,-2.028845837E0,1.730457745E0,8.843436410E0
1.324505050E1,-7.899110629E0,-2.025384870E0,2.012700505E0,8.399350923E0
1.325508650E1,-6.976937478E0,-2.204088060E0,2.630105667E0,7.775160227E0
1.326512350E1,-6.045508769E0,-2.498861988E0,3.226240997E0,7.293909684E0
1.327516050E1,-5.497312421E0,-2.724891956E0,3.514417512E0,7.070828132E0
1.328519750E1,-5.424630361E0,-2.855676629E0,3.538571191E0,7.078346532E0
1.329523450E1,-6.004564810E0,-2.983822453E0,3.575416836E0,7.598789413E0
1.330527150E1,-6.594493321E0,-3.031866685E0,3.649076550E0,8.123750207E0
1.331530850E1,-6.327688379E0,-3.537986469E0,3.741704632E0,8.158268323E0
1.332534550E1,-5.074273385E0,-4.312878199E0,3.595696149E0,7.568236224E0
1.333538250E1,-3.705181169E0,-4.530331471E0,3.230695406E0,6.685032800E0
1.334541950E1,-2.674785411E0,-4.221678007E0,3.325516194E0,6.003007592E0
1.335545650E1,-1.479558399E0,-4.255873109E0,3.985768583E0,6.015637968E0
1.336549250E1,-4.801987848E-1,-4.454355090E0,4.575259137E0,6.403504221E0
1.337552950E1,-1.298397624E-1,-4.242729737E0,4.522907846E0,6.202766268E0
1.338556650E1,-5.106461138E-1,-3.945581254E0,4.267312016E0,5.834237117E0
1.339560350E1,-8.706781849E-1,-3.856717610E0,4.063599701E0,5.669673161E0
1.340564050E1,-8.650707051E-1,-4.055873190E0,4.105222521E0,5.835349741E0
1.341567750E1,-6.248293716E-1,-4.288911046E0,4.072024369E0,5.946978407E0
1.342571450E1,2.485323930E-1,-4.720916787E0,3.689760307E0,5.996928780E0
1.343575150E1,1.565535273E0,-4.925935956E0,3.123637565E0,6.039276229E0
1.344578850E1,2.942608353E0,-4.645561965E0,2.702587752E0,6.127329798E0
1.345582550E1,3.999516556E0,-4.169859982E0,2.804194819E0,6.422411816E0
1.346586150E1,4.834781372E0,-3.834533858E0,3.280604900E0,6.988642882E0
1.347589850E1,5.220895241E0,-3.604727758E0,3.630475388E0,7.309730560E0
1.348593550E1,5.481371741E0,-3.479310830E0,3.540152278E0,7.394844026E0
1.349597250E1,6.129322758E0,-3.546852018E0,2.868532902E0,7.640499834E0
1.350600950E1,7.253371614E0,-3.783112274E0,1.792680305E0,8.374786023E0
1.351604650E1,8.487034130E0,-3.864924762E0,5.455254129E-1,9.341573192E0
1.352608350E1,9.349506040E0,-3.538476466E0,-2.884922647E-1,1.000086530E1
1.353612050E1,9.705507917E0,-3.229294998E0,-4.076327920E-1,1.023676680E1
1.354615750E1,9.867695646E0,-3.182850564E0,-1.539175002E-1,1.036945735E1
1.355619450E1,1.025839724E1,-3.115586534E0,-2.674387801E-1,1.072441686E1
1.356623150E1,1.104282695E1,-3.231232181E0,-8.466264673E-1,1.153696948E1
1.357626750E1,1.172087709E1,-3.288829594E0,-1.765978410E0,1.230097718E1
1.358630450E1,1.188717892E1,-3.287222194E0,-2.534102572E0,1.259097011E1
1.359634150E1,1.159808673E1,-3.399787527E0,-2.831998329E0,1.241347597E1
1.360637850E1,1.118312504E1,-3.569661421E0,-2.719009073E0,1.204980409E1
1.361641550E1,1.108941522E1,-3.710583996E0,-2.463365296E0,1.195038628E1
1.362645250E1,1.110979628E1,-3.792901098E0,-2.325340601E0,1.196749268E1
1.363648950E1,1.084723525E1,-3.819869626E0,-2.213238952E0,1.171120588E1
1.364652650E1,1.023925813E1,-3.840824293E0,-2.024742261E0,1.112177682E1
1.365656350E1,9.454157751E0,-3.948445221E0,-1.679929469E0,1.038236396E1
1.366660050E1,8.707262490E0,-4.065993551E0,-1.454056352E0,9.719207967E0
1.367663650E1,8.207645395E0,-4.120469136E0,-1.386323376E0,9.287927720E0
1.368667350E1,7.842891405E0,-4.057327977E0,-1.283631066E0,8.923035617E0
1.369671046E1,7.583467988E0,-4.032227635E0,-1.024711606E0,8.649732961E0
1.370674746E1,7.300562738E0,-3.941266594E0,-6.752165099E-1,8.323924314E0
1.371678446E1,6.841308972E0,-3.925117754E0,-3.693252703E-1,7.895977392E0
1.372682146E1,6.233305548E0,-3.903830380E0,-4.815993391E-2,7.355019311E0
1.373685846E1,5.690035479E0,-3.975378665E0,2.349552313E-1,6.945166898E0
1.374689546E1,5.135041743E0,-4.115585541E0,5.893678359E-1,6.607121347E0
1.375693246E1,4.471672788E0,-4.374727707E0,1.007458958E0,6.336329662E0
1.376696946E1,3.946354256E0,-4.480134294E0,1.332173481E0,6.117189011E0
1.377700646E1,3.628909503E0,-4.388206124E0,1.582615575E0,5.910161523E0
1.378704246E1,3.449412847E0,-4.287901232E0,1.890724225E0,5.818881684E0
1.379707946E1,3.493269303E0,-4.062596319E0,2.204872756E0,5.793883252E0
1.380711646E1,3.580738971E0,-3.914837764E0,2.439518012E0,5.839425865E0
1.381715346E1,3.631633429E0,-4.002382277E0,2.601908054E0,5.998145611E0
1.382719046E1,3.597002417E0,-4.164831961E0,2.614305321E0,6.092523612E0
1.383722746E1,3.595699950E0,-4.499399700E0,2.589571599E0,6.315024692E0
1.384726446E1,3.410502258E0,-4.745469246E0,2.578702794E0,6.387543512E0
1.385730146E1,2.836534891E0,-4.611125958E0,2.661403474E0,6.032535225E0
1.386733846E1,1.919853153E0,-4.418052067E0,3.030975569E0,5.691382353E0
1.387737546E1,1.113972934E0,-4.131886994E0,3.405333027E0,5.468977861E0
1.388741146E1,6.189476573E-1,-3.951360642E0,3.565317525E0,5.357969408E0
1.389744846E1,6.852638537E-1,-3.997191703E0,3.364970866E0,5.269739746E0
1.390748546E1,1.173056417E0,-4.015039160E0,3.079292282E0,5.194096819E0
1.391752246E1,1.345395205E0,-4.052065483E0,2.990869517E0,5.212928487E0
1.392755946E1,1.010467277E0,-4.016006874E0,3.279888031E0,5.282709610E0
1.393759646E1,3.411050726E-1,-3.767603120E0,3.711011428E0,5.299319933E0
1.394763346E1,-5.247508404E-1,-3.527145731E0,4.010809869E0,5.366816212E0
1.395767046E1,-1.105636705E0,-3.478244298E0,4.092625279E0,5.483629965E0
1.396770746E1,-1.467680950E0,-3.331755758E0,4.015166044E0,5.419985439E0
1.397774446E1,-1.704230936E0,-3.232620894E0,3.905599748E0,5.348640044E0
1.398778046E1,-1.907548857E0,-3.345621260E0,4.024666600E0,5.570445718E0
1.399781746E1,-2.496792659E0,-3.338402873E0,4.127626712E0,5.866533013E0
1.400785446E1,-3.440409012E0,-3.184750324E0,4.014845617E0,6.172360498E0
1.401789146E1,-4.418243271E0,-3.026883103E0,3.641592114E0,6.476425561E0
1.402792846E1,-5.177874936E0,-2.846273721E0,3.042158954E0,6.645780169E0
1.403796546E1,-5.474247494E0,-2.602980434E0,2.398958216E0,6.519040825E0
1.404800246E1,-5.446365046E0,-2.478007894E0,2.003097038E0,6.309977265E0
1.405803946E1,-5.598987315E0,-2.321145224E0,1.958240123E0,6.369543036E0
1.406807646E1,-6.108938779E0,-1.914010030E0,2.180485774E0,6.762919903E0
1.407811346E1,-7.029437873E0,-1.475681695E0,2.385230708E0,7.568352449E0
1.408815046E1,-7.754382686E0,-1.191726869E0,2.316670350E0,8.180319388E0
1.409818646E1,-8.028180313E0,-9.714435446E-1,2.036953586E0,8.339338200E0
1.410822346E1,-8.010048682E0,-7.410381049E-1,1.675600337E0,8.216912672E0
1.411826046E1,-7.879662790E0,-5.557433492E-1,1.391782921E0,8.020909926E0
1.412829746E1,-7.943702080E0,-4.705055630E-1,1.308605694E0,8.064504144E0
1.413833446E1,-8.027980923E0,-2.143788064E-1,1.276907353E0,8.131723579E0
1.414837146E1,-7.864641877E0,1.510324109E-1,1.430061718E0,7.995028403E0
1.415840846E1,-7.596426587E0,4.213760877E-1,1.789453373E0,7.815714815E0
1.416844546E1,-7.260142690E0,6.910596138E-1,2.090042211E0,7.586534895E0
1.417848246E1,-6.683352288E0,8.433772427E-1,2.101265357E0,7.056472141E0
1.418851946E1,-6.012530472E0,9.088730747E-1,1.871019546E0,6.362176286E0
1.419855546E1,-5.716856657E0,9.328209311E-1,1.633619083E0,6.018414761E0
1.420859246E1,-5.764608529E0,8.507932663E-1,1.559291031E0,6.032076690E0
1.421862946E1,-5.957815737E0,6.956333059E-1,1.567866558E0,6.199812867E0
1.422866646E1,-6.272177253E0,5.027605587E-1,1.441379735E0,6.455273132E0
1.423870346E1,-6.645368775E0,2.432927030E-1,1.162339494E0,6.750640755E0
1.424874046E1,-7.036569722E0,2.762517035E-2,8.580058068E-1,7.088741113E0
1.425877746E1,-7.186461926E0,-5.332309842E-2,6.293909307E-1,7.214167402E0
1.426881446E1,-6.913551906E0,7.767265856E-2,5.700381835E-1,6.937447407E0
1.427885146E1,-6.176140244E0,8.552371502E-2,8.381843305E-1,6.233343853E0
1.428888846E1,-5.477758162E0,1.084564948E-1,1.262697449E0,5.622455170E0
1.429892546E1,-5.185909011E0,9.858113229E-2,1.551628840E0,5.413956277E0
1.430896146E1,-5.460903563E0,-1.458523625E-1,1.560206121E0,5.681283638E0
1.431899846E1,-6.213406888E0,-6.093845361E-1,1.413244541E0,6.401174486E0
1.432903546E1,-7.389149809E0,-1.156706141E0,1.182049143E0,7.571970957E0
1.433907246E1,-8.786573539E0,-1.632110501E0,1.096884520E0,9.003933301E0
1.434910946E1,-9.861853108E0,-2.086699943E0,1.297984811E0,1.016342599E1
1.435914646E1,-1.018571401E1,-2.443677136E0,1.516732072E0,1.058398810E1
1.436918346E1,-9.442510098E0,-2.573637351E0,1.412800738E0,9.888407965E0
1.437922046E1,-8.092545294E0,-2.429038632E0,1.394113621E0,8.563473057E0
1.438925746E1,-6.878200225E0,-2.297867458E0,2.095049182E0,7.548447805E0
1.439929446E1,-5.876295610E0,-2.313143894E0,3.115312300E0,7.041779285E0
1.440933046E1,-5.227533585E0,-2.437938679E0,3.793604518E0,6.903773434E0
1.441936746E1,-5.142491680E0,-2.509586366E0,3.903991179E0,6.927076695E0
1.442940446E1,-5.391639200E0,-2.728251182E0,3.851611236E0,7.165754454E0
1.443944146E1,-5.687494864E0,-3.101297693E0,3.850219599E0,7.535903142E0
1.444947846E1,-5.516801190E0,-3.449919800E0,3.636361195E0,7.453869112E0
1.445951546E1,-4.161512496E0,-3.690037465E0,2.968923748E0,6.304686429E0
1.446955246E1,-2.389054056E0,-3.542936137E0,2.500216788E0,4.950864545E0
1.447958946E1,-1.121028039E0,-3.071254115E0,3.058346971E0,4.476917678E0
1.448962646E1,-4.874548870E-1,-2.864275544E0,4.427816917E0,5.295965380E0
1.449966346E1,-3.751750441E-1,-2.915208301E0,5.560538363E0,6.289577302E0
1.450969946E1,-7.133898380E-1,-3.024883940E0,5.740696925E0,6.527974349E0
1.451973646E1,-1.102372351E0,-3.103468764E0,5.120120233E0,6.087887513E0
1.452977346E1,-1.544675623E0,-3.176572409E0,4.328360456E0,5.586710954E0
1.453981046E1,-7.789953053E-1,-3.793929039E0,3.589919100E0,5.280932719E0
1.454984746E1,1.134466256E0,-4.294426725E0,2.646342216E0,5.170323172E0
1.455988446E1,2.342263320E0,-3.974844230E0,2.057341658E0,5.051558058E0
1.456992146E1,3.195752738E0,-3.718026917E0,2.512184869E0,5.508868535E0
1.457995846E1,3.935375817E0,-3.639604645E0,3.537815731E0,6.422619788E0
1.458999546E1,3.889833900E0,-3.409949403E0,4.163417519E0,6.640226513E0
1.460003246E1,3.973614560E0,-3.253804187E0,3.787694153E0,6.381495229E0
1.461006946E1,3.928019727E0,-3.211585536E0,2.913425485E0,5.850783596E0
1.462010546E1,3.221241043E0,-3.171280679E0,2.130959272E0,4.997439587E0
1.463014246E1,3.133191331E0,-3.526399042E0,1.794911603E0,5.047185927E0
1.464017946E1,3.987167822E0,-3.877664090E0,1.487063885E0,5.757182039E0
1.465021646E1,5.022836598E0,-3.641557031E0,1.096980926E0,6.300253348E0
1.466025346E1,6.100969024E0,-3.304218881E0,9.914246500E-1,7.008752263E0
1.467029046E1,6.769781737E0,-3.023011662E0,1.292048718E0,7.525817840E0
1.468032746E1,7.262564022E0,-2.907953076E0,1.533344597E0,7.971961673E0
1.469036446E1,7.477004809E0,-2.954379383E0,1.399782497E0,8.160474832E0
1.470040150E1,7.516280556E0,-3.093666492E0,6.942258811E-1,8.157646434E0
1.471043850E1,7.546461545E0,-3.129261417E0,-2.260615615E-1,8.172665581E0
1.472047450E1,7.492774749E0,-3.061930144E0,-9.571552885E-1,8.150658618E0
1.473051150E1,7.221518322E0,-2.923165777E0,-1.172807618E0,7.878496224E0
1.474054850E1,6.951116173E0,-2.918955197E0,-1.036326588E0,7.610012371E0
1.475058550E1,7.146151221E0,-2.990352623E0,-9.058260906E-1,7.799372218E0
1.476062250E1,7.765975376E0,-3.058422400E0,-1.030491067E0,8.409888998E0
1.477065950E1,8.261692963E0,-2.971731580E0,-1.190168002E0,8.860206492E0
1.478069650E1,8.519960386E0,-2.890893239E0,-1.071533843E0,9.060638690E0
1.479073350E1,8.530987065E0,-2.894074709E0,-7.919305158E-1,9.043260621E0
1.480077050E1,8.359740829E0,-2.949554846E0,-6.031321084E-1,8.885319852E0
1.481080750E1,8.361009091E0,-3.037758924E0,-6.938844037E-1,8.922775793E0
1.482084350E1,8.428968354E0,-3.204775869E0,-1.011726183E0,9.074231965E0
1.483088050E1,8.306499592E0,-3.306841941E0,-1.284614568E0,9.032351504E0
1.484091750E1,8.319773356E0,-3.479133659E0,-1.414325691E0,9.128160651E0
1.485095450E1,8.484785290E0,-3.586354637E0,-1.532652286E0,9.338230241E0
1.486099150E1,8.403322467E0,-3.516976839E0,-1.585701735E0,9.246588806E0
1.487102850E1,8.237780190E0,-3.444142166E0,-1.376896495E0,9.034322425E0
1.488106550E1,8.037499605E0,-3.443980783E0,-1.104365959E0,8.813740847E0
1.489110250E1,7.773712996E0,-3.446753533E0,-9.079497993E-1,8.551906016E0
1.490113950E1,7.421618813E0,-3.559989542E0,-8.600506512E-1,8.276088355E0
1.491117650E1,6.873910707E0,-3.785342987E0,-9.409503150E-1,7.903471227E0
1.492121250E1,6.074846588E0,-4.018300737E0,-9.052320135E-1,7.339614900E0
1.493124950E1,5.376685531E0,-4.224991624E0,-6.175677145E-1,6.865907908E0
1.494128650E1,5.033809483E0,-4.380455639E0,-7.249027133E-2,6.673296364E0
1.495132350E1,4.907138327E0,-4.423856598E0,6.347444952E-1,6.637274616E0
1.496136050E1,4.761733276E0,-4.296111308E0,1.286664602E0,6.541114734E0
1.497139750E1,4.455308771E0,-4.195155036E0,1.899307791E0,6.407532451E0
1.498143450E1,3.995394269E0,-4.056744425E0,2.308030504E0,6.143887654E0
1.499147150E1,3.576344496E0,-4.037931594E0,2.425326819E0,5.914164497E0
1.500150850E1,3.437987095E0,-4.220460032E0,2.153839427E0,5.854149163E0
1.501154550E1,3.473336145E0,-4.311074917E0,1.805490385E0,5.823162925E0
1.502158250E1,3.463543520E0,-4.332963384E0,1.876472075E0,5.855924594E0
1.503161850E1,3.199883503E0,-4.249959819E0,2.467914430E0,5.864470525E0
1.504165550E1,2.721838248E0,-4.215565327E0,3.249505899E0,5.978183927E0
1.505169250E1,2.292990296E0,-4.233085340E0,3.694570227E0,6.068497767E0
1.506172950E1,2.025954097E0,-4.211829541E0,3.778147988E0,6.009858593E0
1.507176650E1,1.650316684E0,-4.295372804E0,3.817541265E0,5.978912443E0
1.508180350E1,1.237063841E0,-4.552515807E0,3.914283448E0,6.130036055E0
1.509184050E1,6.293317276E-1,-4.639044074E0,3.984054179E0,6.147314539E0
1.510187750E1,-6.043097377E-3,-4.699600178E0,3.902148721E0,6.108440308E0
1.511191450E1,-6.807056567E-1,-4.732091986E0,3.664113250E0,6.023435951E0
1.512195150E1,-1.022111715E0,-4.659316955E0,3.286025854E0,5.792401295E0
1.513198750E1,-9.909417430E-1,-4.663947365E0,2.998365063E0,5.632456268E0
1.514202450E1,-1.072251881E0,-4.488832027E0,2.927375187E0,5.465241308E0
1.515206150E1,-1.224053640E0,-4.243424386E0,3.140017955E0,5.418917844E0
1.516209850E1,-1.179255928E0,-4.060755031E0,3.448699486E0,5.456546903E0
1.517213550E1,-1.420475647E0,-3.684728193E0,3.722926884E0,5.427260589E0
1.518217250E1,-2.148509398E0,-3.330893878E0,4.017418392E0,5.643633333E0
1.519220950E1,-3.165033221E0,-3.076103795E0,4.198596708E0,6.091638873E0
1.520224650E1,-4.122819716E0,-2.788506739E0,4.158738577E0,6.486024885E0
1.521228350E1,-4.942049128E0,-2.442600664E0,3.924856383E0,6.767174094E0
1.522232050E1,-5.728815383E0,-2.073884016E0,3.683858128E0,7.119770453E0
1.523235650E1,-6.716955067E0,-1.694037777E0,3.573361539E0,7.794623920E0
1.524239350E1,-7.717493772E0,-1.256398244E0,3.554610103E0,8.589150112E0
1.525243050E1,-8.580929303E0,-8.245761055E-1,3.458006499E0,9.288168948E0
1.526246750E1,-9.284297891E0,-5.353669721E-1,3.227519783E0,9.843865555E0
1.527250450E1,-9.498608285E0,-3.566427326E-1,2.810042034E0,9.911966990E0
1.528254150E1,-9.353392099E0,-2.720417082E-2,2.323325066E0,9.637661708E0
1.529257850E1,-9.059121031E0,2.778251892E-1,2.047332833E0,9.291740010E0
1.530261550E1,-8.960193744E0,5.569741881E-1,2.132167453E0,9.227211400E0
1.531265250E1,-9.090090224E0,8.108088362E-1,2.380951130E0,9.431653065E0
1.532268950E1,-9.227827821E0,9.040543842E-1,2.550494657E0,9.616399722E0
1.533272550E1,-9.319024504E0,9.708021051E-1,2.369656649E0,9.664468277E0
1.534276250E1,-9.156806370E0,9.762686670E-1,1.924846090E0,9.407722141E0
1.535279950E1,-8.736285145E0,8.165046090E-1,1.400839089E0,8.885477369E0
1.536283650E1,-8.297803613E0,7.509362715E-1,8.885655485E-1,8.378961679E0
1.537287350E1,-7.881881223E0,7.992506450E-1,5.958746906E-1,7.944678713E0
1.538291050E1,-7.547553220E0,7.837005597E-1,6.702973205E-1,7.617679743E0
1.539294750E1,-7.252964648E0,7.419555330E-1,7.328952724E-1,7.327559599E0
1.540298450E1,-6.851305956E0,6.319699913E-1,6.671250598E-1,6.912657609E0
1.541302150E1,-6.238830582E0,4.925712007E-1,4.942813651E-1,6.277734264E0
1.542305850E1,-5.806491550E0,4.444743437E-1,4.847362241E-1,5.843617952E0
1.543309450E1,-5.609235730E0,3.362102222E-1,5.370040463E-1,5.644903554E0
1.544313150E1,-5.498179563E0,1.133061755E-1,5.322204392E-1,5.525040759E0
1.545316850E1,-5.564471201E0,-3.317827106E-2,4.885962635E-1,5.585979489E0
1.546320550E1,-5.704400918E0,-1.642196363E-1,5.825808996E-1,5.736423837E0
1.547324250E1,-6.016667962E0,-3.594084656E-1,7.968411537E-1,6.079837468E0
1.548327950E1,-6.339578108E0,-6.473861754E-1,1.046592691E0,6.457918837E0
1.549331650E1,-6.758017724E0,-9.025697762E-1,1.262132024E0,6.933859892E0
1.550335350E1,-7.076623149E0,-9.433184373E-1,1.451026910E0,7.285185239E0
1.551339050E1,-7.042895824E0,-1.195507094E0,1.695707157E0,7.342141484E0
1.552342750E1,-6.792099974E0,-1.491803638E0,1.706128065E0,7.160235550E0
1.553346450E1,-6.508065627E0,-1.640401268E0,1.655340319E0,6.912740852E0
1.554350050E1,-5.869695858E0,-2.020348663E0,1.615990897E0,6.414558813E0
1.555353750E1,-5.388586954E0,-2.301296266E0,1.640107153E0,6.084635185E0
1.556357450E1,-5.441055774E0,-2.391717024E0,1.921830681E0,6.246505537E0
1.557361150E1,-5.663078061E0,-2.419453876E0,2.440389247E0,6.624176164E0
1.558364850E1,-5.818336839E0,-2.516177348E0,2.923321897E0,6.980687855E0
1.559368550E1,-5.771681905E0,-2.863869748E0,2.949532626E0,7.086169957E0
1.560372250E1,-5.592084092E0,-3.092371919E0,2.701169218E0,6.937613690E0
1.561375950E1,-5.364625649E0,-3.244977230E0,2.616162397E0,6.793628726E0
1.562379650E1,-5.054087627E0,-3.540821784E0,2.915881315E0,6.825216809E0
1.563383350E1,-4.346566639E0,-3.802251381E0,3.292585260E0,6.647621741E0
1.564386950E1,-3.384036883E0,-4.094605731E0,3.492154239E0,6.357093907E0
1.565390650E1,-2.687038252E0,-4.287878428E0,3.574377201E0,6.195340858E0
1.566394350E1,-2.239493828E0,-4.301190784E0,3.737410437E0,6.122402432E0
1.567398050E1,-2.669642785E0,-4.497083033E0,4.057862413E0,6.619440745E0
1.568401750E1,-3.080206786E0,-4.869085817E0,4.094365411E0,7.068203354E0
1.569405450E1,-2.903168592E0,-5.106760515E0,3.682757682E0,6.933260054E0
1.570409171E1,-2.977493719E0,-5.043210052E0,3.252229532E0,6.698987491E0
1.571412871E1,-2.380537732E0,-5.230062506E0,3.187588563E0,6.571242999E0
1.572416571E1,-1.130227025E0,-5.406916221E0,3.374173214E0,6.472804726E0
1.573420271E1,7.019845515E-2,-5.249709150E0,3.703377303E0,6.424902912E0
1.574423871E1,1.362464689E0,-4.969416436E0,4.135081912E0,6.606838288E0
1.575427571E1,2.395773822E0,-4.667620001E0,4.507944821E0,6.917223084E0
1.576431271E1,3.166104138E0,-4.461427882E0,4.487459686E0,7.075722478E0
1.577434971E1,3.803184012E0,-4.336826055E0,4.012290384E0,7.026431739E0
1.578438671E1,4.647010905E0,-4.262791534E0,3.145609063E0,7.047053171E0
1.579442371E1,5.698387057E0,-4.144409975E0,2.210253364E0,7.384644137E0
1.580446071E1,6.356765413E0,-3.844413314E0,1.628247246E0,7.605206726E0
1.581449771E1,6.438958554E0,-3.656177993E0,1.613076060E0,7.578247763E0
1.582453471E1,6.542130920E0,-3.511806731E0,1.769363948E0,7.633014625E0
1.583457171E1,7.082104914E0,-3.229534734E0,1.707591623E0,7.968812569E0
1.584460771E1,7.442747142E0,-2.930121624E0,1.416373971E0,8.123189828E0
1.585464471E1,7.252641882E0,-2.648256009E0,1.075950245E0,7.795623329E0
1.586468171E1,6.947380387E0,-2.585124207E0,9.074165332E-1,7.468089861E0
1.587471871E1,6.903435638E0,-2.729075055E0,6.245457816E-1,7.449518890E0
1.588475571E1,7.048868755E0,-2.791328605E0,8.149205983E-2,7.581866991E0
1.589479271E1,7.522843471E0,-2.815492224E0,-4.817591143E-1,8.046879035E0
1.590482971E1,8.159067312E0,-2.733372173E0,-8.208479208E-1,8.643812478E0
1.591486671E1,8.850419871E0,-2.623154497E0,-9.393394071E-1,9.278643755E0
1.592490371E1,9.410128217E0,-2.491494496E0,-9.228502589E-1,9.778021809E0
1.593494071E1,9.454579920E0,-2.440555308E0,-8.644044149E-1,9.802682626E0
1.594497771E1,9.170724497E0,-2.499206974E0,-7.082755709E-1,9.531520214E0
1.595501371E1,9.081435176E0,-2.646078506E0,-7.501977682E-1,9.488782482E0
1.596505071E1,9.127534039E0,-2.893673006E0,-1.028848000E0,9.630355617E0
1.597508771E1,9.081219413E0,-3.063425277E0,-1.401713247E0,9.685965130E0
1.598512471E1,8.963672252E0,-3.251235505E0,-1.708478061E0,9.686942234E0
1.599516171E1,8.723993129E0,-3.358026128E0,-1.857960960E0,9.530813948E0
1.600519871E1,8.768896236E0,-3.322681464E0,-1.924853107E0,9.572816346E0
1.601523571E1,8.751407799E0,-3.172349550E0,-1.933146797E0,9.507260208E0
1.602527271E1,8.314782173E0,-3.177357105E0,-1.840540935E0,9.089487977E0
1.603530971E1,7.675540584E0,-3.249022919E0,-1.718335297E0,8.510155661E0
1.604534571E1,6.969132029E0,-3.332875500E0,-1.600159560E0,7.889066545E0
1.605538271E1,6.468644868E0,-3.473082376E0,-1.500351098E0,7.493778822E0
1.606541971E1,6.180077174E0,-3.467685395E0,-1.320757377E0,7.208508579E0
1.607545671E1,5.785138687E0,-3.478103964E0,-8.844697201E-1,6.807886861E0
1.608549371E1,5.421291016E0,-3.502320208E0,-2.223287356E-1,6.458023938E0
1.609553071E1,5.242690153E0,-3.394641978E0,3.688657157E-1,6.256632969E0
1.610556771E1,5.130482084E0,-3.290620011E0,7.454954374E-1,6.140504044E0
1.611560471E1,5.036524930E0,-3.294113138E0,8.861899710E-1,6.083017130E0
1.612564171E1,4.646824964E0,-3.260622041E0,8.816513622E-1,5.744732149E0
1.613567871E1,4.087381496E0,-3.375675949E0,9.880075371E-1,5.392405261E0
1.614571571E1,3.509983569E0,-3.442204984E0,1.262513262E0,5.075696951E0
1.615575171E1,3.051537303E0,-3.522205419E0,1.745030175E0,4.976237659E0
1.616578871E1,2.919276209E0,-3.561463040E0,2.381754538E0,5.184491031E0
1.617582571E1,2.971591540E0,-3.500381271E0,2.943118815E0,5.453895276E0
1.618586271E1,3.162553417E0,-3.319683596E0,3.328063241E0,5.665513942E0
1.619589971E1,3.188658019E0,-3.061302738E0,3.626073604E0,5.717300429E0
1.620593671E1,2.976790007E0,-2.821533567E0,3.830567107E0,5.612091836E0
1.621597371E1,2.664121259E0,-2.757838678E0,3.927588787E0,5.489004458E0
1.622601071E1,2.355218411E0,-2.925373101E0,3.821163615E0,5.357812326E0
1.623604771E1,2.213185742E0,-3.147273180E0,3.546943234E0,5.233003527E0
1.624608471E1,2.137146796E0,-3.590786827E0,3.326745279E0,5.341196552E0
1.625612071E1,2.237303168E0,-3.637380365E0,2.889341973E0,5.156002174E0
1.626615771E1,2.250064132E0,-3.486529217E0,2.657248442E0,4.927437860E0
1.627619471E1,2.021994070E0,-3.662331018E0,2.804668443E0,5.036595436E0
1.628623171E1,1.916193527E0,-3.707321250E0,2.969083961E0,5.121668483E0
1.629626871E1,1.602552972E0,-3.711045926E0,3.010551245E0,5.040184193E0
1.630630571E1,1.259537175E0,-3.642130643E0,2.930585893E0,4.841475312E0
1.631634271E1,1.041298330E0,-3.709228027E0,3.006659338E0,4.886990397E0
1.632637971E1,5.252992362E-1,-3.679897224E0,3.255719150E0,4.941385438E0
1.633641671E1,-1.603992849E-1,-3.516840599E0,3.674969190E0,5.089134924E0
1.634645371E1,-7.725563514E-1,-3.392667958E0,4.036109601E0,5.328904193E0
1.635648971E1,-1.477944860E0,-3.399564748E0,4.017169300E0,5.466169653E0
1.636652671E1,-2.273493925E0,-3.342214673E0,3.590453535E0,5.406526624E0
1.637656371E1,-3.149438989E0,-3.327881393E0,3.279935979E0,5.634868280E0
1.638660071E1,-4.414316865E0,-3.129597632E0,3.240121118E0,6.307056333E0
1.639663771E1,-5.483048138E0,-2.921960666E0,3.520455347E0,7.141097735E0
1.640667471E1,-5.933135809E0,-2.577077268E0,3.906150556E0,7.556549473E0
1.641671171E1,-5.856486998E0,-2.229660273E0,4.016011552E0,7.442994939E0
1.642674871E1,-5.927696144E0,-2.001095536E0,3.704768355E0,7.270988481E0
1.643678571E1,-6.106828519E0,-1.811417123E0,3.164799040E0,7.112702687E0
1.644682271E1,-6.357798032E0,-1.594323454E0,2.655545733E0,7.072155699E0
1.645685871E1,-7.004410036E0,-1.366186150E0,2.421205702E0,7.535944638E0
1.646689571E1,-7.787135864E0,-1.239050725E0,2.330372715E0,8.222248394E0
