"Time (s)","Linear Acceleration x (m/s^2)","Linear Acceleration y (m/s^2)","Linear Acceleration z (m/s^2)","Absolute acceleration (m/s^2)"
5.576708325E-3,-6.225739726E-2,-4.224122691E-2,9.692344666E-3,7.585674861E-2
1.552170832E-2,-4.984461724E-2,-5.280049895E-2,1.038471347E-1,1.267146635E-1
2.546770833E-2,-3.121826610E-2,-5.527035371E-2,8.648207366E-2,1.072778691E-1
3.541370833E-2,-2.067132117E-2,-5.783294165E-2,-1.695283234E-2,6.371303778E-2
4.535970831E-2,-4.491899586E-3,-5.590559430E-2,-1.203871536E-1,1.328106901E-1
5.530570832E-2,1.438713121E-2,-4.870197994E-2,-8.865314484E-2,1.021677664E-1
6.525170832E-2,1.134116812E-2,-5.707626170E-2,-1.919816315E-2,6.127716713E-2
7.519770833E-2,7.626004892E-3,-5.874524434E-2,-7.039287508E-2,9.200172033E-2
8.514370833E-2,1.278596714E-2,-6.799696933E-2,-1.073659891E-1,1.277283226E-1
9.508870833E-2,2.162864970E-2,-6.222065573E-2,2.196506560E-2,6.943826463E-2
1.050347083E-1,1.710795258E-2,-6.890227819E-2,8.842627287E-2,1.133993462E-1
1.149807083E-1,1.097925744E-2,-7.786135918E-2,2.465829313E-2,8.240732229E-2
1.249267083E-1,4.517819197E-3,-7.218773731E-2,-4.120415926E-2,8.324219392E-2
1.348727083E-1,-1.400843721E-2,-7.002973101E-2,-6.485497713E-2,9.647055300E-2
1.448187083E-1,-3.113022210E-2,-5.073166726E-2,-6.096307039E-2,8.520145975E-2
1.547647083E-1,-3.484654563E-2,-4.260165751E-2,-4.868918002E-2,7.348346219E-2
1.647107083E-1,-4.473248796E-2,-3.285230706E-2,-5.632330477E-2,7.907328385E-2
1.746553333E-1,-4.592471239E-2,-2.922708817E-2,-6.889774203E-2,8.780774879E-2
1.846013333E-1,-4.031540989E-2,-1.124827961E-2,-6.776338220E-3,4.240017486E-2
1.945473333E-1,-5.499165623E-2,-5.498812962E-3,4.726070523E-2,7.271790328E-2
2.044933333E-1,-5.997050554E-2,-1.231943927E-2,-1.905139804E-2,6.411852997E-2
2.144393333E-1,-6.745876967E-2,-1.396448031E-2,-4.905813932E-4,6.889073222E-2
2.243853333E-1,-7.347057074E-2,-2.102073113E-2,-4.255252719E-2,8.746721370E-2
2.343313333E-1,-7.393126281E-2,-1.559369731E-2,-3.641470492E-2,8.387506036E-2
2.442773333E-1,-5.598491544E-2,-2.124941665E-2,-8.027466953E-2,1.001492438E-1
2.542223333E-1,-5.102749526E-2,-3.031589454E-2,-8.671186924E-2,1.050800029E-1
2.641683333E-1,-4.606769051E-2,-4.124127994E-2,-5.647474766E-2,8.374050635E-2
2.741143333E-1,-4.025146967E-2,-3.317249693E-2,1.081734896E-4,5.215943889E-2
2.840603333E-1,-2.499265793E-2,-3.101575144E-2,1.417891324E-2,4.228062639E-2
2.940063333E-1,-1.974880185E-2,-3.239805606E-2,1.088693082E-2,3.947371877E-2
3.039523333E-1,-6.945103481E-3,-3.879952837E-2,-8.272640705E-3,4.027498539E-2
3.138983333E-1,5.127674653E-3,-4.152717224E-2,-2.189489901E-2,4.722484182E-2
3.238443333E-1,1.262510019E-2,-4.462547477E-2,-5.796988070E-2,7.423835412E-2
3.337893333E-1,6.649887613E-3,-6.331350490E-2,-7.353692293E-2,9.726510136E-2
3.437353333E-1,5.602991616E-3,-7.154616070E-2,-5.782077670E-2,9.216012611E-2
3.536813333E-1,3.782333115E-3,-6.924277344E-2,-3.746311069E-2,7.881847740E-2
3.636273333E-1,7.178147002E-3,-7.123670595E-2,-1.687506437E-3,7.161732854E-2
3.735733333E-1,-4.029473907E-3,-6.952191860E-2,9.238016009E-3,7.024866380E-2
3.835193333E-1,5.571140279E-4,-6.146237693E-2,6.544203758E-3,6.181230263E-2
3.934653333E-1,1.240848597E-2,-4.740433660E-2,-6.029064059E-3,4.937095570E-2
4.034113333E-1,-2.318617436E-3,-3.930152097E-2,-2.339354038E-2,4.579566867E-2
4.133563333E-1,-1.701936269E-2,-3.589769228E-2,-6.500758946E-2,7.618588915E-2
4.233023333E-1,-2.659369638E-2,-3.104367646E-2,-6.321307898E-2,7.527833612E-2
4.332483333E-1,-3.909628827E-2,-3.272289173E-2,-4.839564979E-2,7.029542174E-2
4.431943333E-1,-4.959465334E-2,-3.371136810E-2,-2.549386024E-2,6.516151386E-2
4.531403333E-1,-4.642694710E-2,-2.870775949E-2,-1.112374306E-2,5.570758055E-2
4.630863333E-1,-5.440295581E-2,-2.297597609E-2,-3.790165186E-3,5.917721209E-2
4.730323333E-1,-6.485027195E-2,-2.184129649E-2,-9.628610015E-3,6.910361883E-2
4.829783333E-1,-6.508621167E-2,-1.571185675E-2,-1.591670573E-2,6.882164567E-2
4.929233333E-1,-6.082453249E-2,-1.841684266E-2,-5.109297037E-2,8.154321228E-2
5.028693333E-1,-5.513508660E-2,-1.520769428E-2,-5.902588785E-2,8.219006738E-2
5.128153333E-1,-4.661195666E-2,-1.432808576E-2,-5.917674601E-2,7.668021787E-2
5.227613333E-1,-3.429379875E-2,-1.772432677E-2,-4.809919596E-2,6.167454129E-2
5.327073333E-1,-3.860003782E-2,-1.988299544E-2,-2.369993448E-2,4.946699224E-2
5.426533333E-1,-2.947524309E-2,-2.956484253E-2,-8.430515528E-3,4.259041513E-2
5.525993333E-1,-2.613416234E-2,-4.593954513E-2,-1.172308266E-2,5.413748161E-2
5.625453333E-1,-2.375009720E-2,-5.310670576E-2,-9.326893687E-3,5.891842037E-2
5.724903333E-1,-1.208465072E-2,-5.054078308E-2,-2.863732338E-2,5.933385061E-2
5.824363333E-1,-5.508563651E-3,-5.222592322E-2,-4.345650673E-2,6.816420840E-2
5.923823333E-1,7.834515232E-3,-6.494167124E-2,-5.034335732E-2,8.254243708E-2
6.023283333E-1,8.362326943E-3,-5.725534181E-2,-4.735133708E-2,7.476798647E-2
6.122743333E-1,1.052991491E-2,-5.990312094E-2,-4.645320475E-2,7.653210593E-2
6.222203333E-1,1.511096398E-3,-4.989951254E-2,-3.522655070E-2,6.109954696E-2
6.321663333E-1,6.456043278E-3,-5.037293601E-2,-1.292410076E-2,5.240367886E-2
6.421123333E-1,-1.911077925E-3,-5.075086257E-2,-6.496256590E-4,5.079098625E-2
6.520573333E-1,-2.775824019E-3,-4.466224828E-2,-4.093635678E-3,4.493528094E-2
6.620033333E-1,-4.951805938E-3,-4.892856868E-2,-1.532087445E-2,5.150975062E-2
6.719493333E-1,-1.815935047E-2,-4.338493316E-2,-3.448278487E-2,5.831875244E-2
6.818953333E-1,-3.574534948E-2,-4.280614103E-2,-5.304418623E-2,7.696610561E-2
6.918413333E-1,-4.290421437E-2,-4.560097764E-2,-4.915286422E-2,7.960040724E-2
7.017873333E-1,-4.387762503E-2,-3.548430784E-2,-4.391492844E-2,7.150456643E-2
7.117333333E-1,-5.611129752E-2,-2.437141411E-2,-2.355843186E-2,6.555488729E-2
7.216793333E-1,-5.084159948E-2,-1.576045716E-2,-1.442741990E-2,5.514898633E-2
7.316253333E-1,-4.133612361E-2,-1.357684645E-2,-2.901973128E-3,4.360535887E-2
7.415703333E-1,-4.788050096E-2,-5.783654591E-3,-6.644775867E-3,4.868414607E-2
7.515163333E-1,-5.210587714E-2,-1.702915221E-2,-2.849932909E-2,6.178370510E-2
7.614623333E-1,-5.930759117E-2,-2.060609959E-2,-3.209185839E-2,7.051162376E-2
7.714083333E-1,-5.280589392E-2,-2.039369491E-2,-3.927808642E-2,6.889944338E-2
7.813543333E-1,-3.501848118E-2,-2.236725354E-2,-4.301971972E-2,5.981040328E-2
7.913003333E-1,-3.031713022E-2,-3.157795209E-2,-5.125201464E-2,6.740225847E-2
8.012463333E-1,-1.901415858E-2,-4.103646751E-2,-3.493535936E-2,5.714900897E-2
8.111923333E-1,-1.176268841E-2,-4.289686424E-2,-2.236150682E-2,4.978492530E-2
8.211373333E-1,-2.022838088E-2,-5.306738324E-2,-9.937343001E-3,5.765488134E-2
8.310833333E-1,-1.827024200E-2,-5.141240194E-2,-1.233294725E-2,5.593870220E-2
8.410293333E-1,-7.542003701E-3,-4.777719710E-2,-2.715271533E-2,5.546902137E-2
8.509753333E-1,8.849023136E-3,-4.632641610E-2,-2.520793140E-2,5.347786313E-2
8.609213333E-1,1.437907987E-2,-4.740567050E-2,-2.880104542E-2,5.730231889E-2
8.708673333E-1,9.893109729E-3,-4.566315912E-2,-3.553762257E-2,5.870196197E-2
8.808133333E-1,-1.324312119E-3,-4.490567517E-2,-5.185427785E-2,6.860859711E-2
8.907593333E-1,-1.580242007E-3,-4.435235498E-2,-3.254560232E-2,5.503494152E-2
9.007043333E-1,-1.240283975E-2,-4.434942224E-2,-1.548108816E-2,4.858359577E-2
9.106503333E-1,-1.554935440E-2,-4.969664157E-2,-1.248848319E-2,5.354905058E-2
9.205963333E-1,-2.078189750E-2,-4.116190856E-2,-1.533315361E-2,4.859316392E-2
9.305423333E-1,-2.655750075E-2,-3.875764312E-2,-2.117101371E-2,5.153316959E-2
9.404883333E-1,-2.091124202E-2,-2.507790851E-2,-3.614047050E-2,4.870641792E-2
9.504343333E-1,-4.216482938E-2,-2.671384068E-2,-3.688949883E-2,6.206719943E-2
9.603803333E-1,-4.131644407E-2,-1.953065959E-2,-4.646957695E-2,6.517604466E-2
9.703263333E-1,-5.052173395E-2,-1.272777592E-2,-4.317642510E-2,6.766568972E-2
9.802713333E-1,-4.530991877E-2,-1.569670881E-2,-3.449447930E-2,5.906982740E-2
9.902173333E-1,-5.348830967E-2,-1.466238204E-2,-2.072428644E-2,5.920710065E-2
1.000163333E0,-3.488738021E-2,-1.866311094E-2,-1.907887995E-2,4.392544443E-2
1.010109333E0,-4.225736157E-2,-2.027600599E-2,-1.773343563E-2,5.011263080E-2
1.020055333E0,-4.114534449E-2,-1.783362858E-2,-3.015818417E-2,5.404159282E-2
1.030001333E0,-4.300430682E-2,-2.415858460E-2,-3.045697689E-2,5.797098461E-2
1.039947333E0,-3.693839845E-2,-2.324158587E-2,-3.390098691E-2,5.526204400E-2
1.049893333E0,-3.139040264E-2,-2.988890619E-2,-3.255437315E-2,5.420785277E-2
1.059838333E0,-1.502120008E-2,-3.945570017E-2,-4.482884824E-2,6.157933389E-2
1.069784333E0,-1.260754027E-2,-3.696650392E-2,-2.641772032E-2,4.715260789E-2
1.079730333E0,-7.240102363E-3,-4.034164470E-2,-9.502894878E-3,4.207341667E-2
1.089676333E0,-6.273614718E-3,-3.902950210E-2,-2.072954893E-2,4.463602216E-2
1.099622333E0,-4.032984520E-3,-4.797576489E-2,-1.848421812E-2,5.157136124E-2
1.109568333E0,2.095450228E-4,-5.050890662E-2,-2.492083311E-2,5.632265512E-2
1.119514333E0,-9.147055261E-4,-4.585213382E-2,-3.704561949E-2,5.895449759E-2
1.129460333E0,-5.900375065E-3,-4.718539949E-2,-3.480028868E-2,5.892653429E-2
1.139405333E0,-5.150883074E-3,-4.513702848E-2,-3.794550598E-2,5.919243500E-2
1.149351333E0,-9.071518828E-3,-4.998417383E-2,-4.228706360E-2,6.609769917E-2
1.159297333E0,-4.872514496E-3,-4.528854446E-2,-3.135920227E-2,5.530093330E-2
1.169247583E0,-6.310915842E-3,-4.334642833E-2,-2.462437928E-2,5.025037873E-2
1.179193583E0,-2.698261388E-2,-3.463910652E-2,-3.435531557E-2,5.575138438E-2
1.189139583E0,-3.131963078E-2,-2.814638110E-2,-1.729080141E-2,4.552043337E-2
1.199085583E0,-2.775398268E-2,-2.847176038E-2,-1.819010317E-2,4.372418721E-2
1.209031583E0,-3.775711143E-2,-2.673589564E-2,-3.974586368E-2,6.099296073E-2
1.218976583E0,-4.630316885E-2,-1.777482295E-2,-3.794959903E-2,6.245077936E-2
1.228922583E0,-4.279012057E-2,-1.962267101E-2,-4.124216616E-2,6.258562060E-2
1.238868583E0,-5.589078440E-2,-2.663238622E-2,-3.585337222E-2,7.154388916E-2
1.248814583E0,-4.274310074E-2,-1.519637444E-2,-3.360862613E-2,5.645743713E-2
1.258760583E0,-4.849328916E-2,-1.703615516E-2,-3.510551333E-2,6.224328673E-2
1.268706583E0,-3.881296783E-2,-2.623578055E-2,-3.076395571E-2,5.604626324E-2
1.278652583E0,-3.752322737E-2,-1.997265427E-2,-3.929621279E-2,5.788861590E-2
1.288598583E0,-3.404385312E-2,-2.896994316E-2,-2.462671816E-2,5.103642610E-2
1.298543583E0,-2.773875708E-2,-2.970426665E-2,-3.435590029E-2,5.321757215E-2
1.308489583E0,-2.548459149E-2,-4.015716962E-2,-2.672294497E-2,5.455436246E-2
1.318435583E0,-1.778124804E-2,-3.967305670E-2,-2.836952090E-2,5.191294565E-2
1.328381583E0,-1.215729781E-2,-3.849806786E-2,-2.253107607E-2,4.623365125E-2
1.338327583E0,-8.620433549E-3,-3.509273625E-2,-2.342979312E-2,4.306700846E-2
1.348273583E0,-7.934998262E-3,-4.256709955E-2,-2.178380191E-2,4.847118925E-2
1.358219583E0,-6.087099959E-3,-5.002790918E-2,-2.956820011E-2,5.843049666E-2
1.368165583E0,-1.314791436E-2,-4.992575649E-2,-3.944707096E-2,6.497322695E-2
1.378110583E0,-1.498107813E-2,-4.404057048E-2,-3.675325871E-2,5.928580417E-2
1.388056583E0,-1.087531405E-2,-4.727251844E-2,-3.166442692E-2,5.792753566E-2
1.398002583E0,-5.354590018E-3,-4.288703361E-2,-3.136621892E-2,5.340233118E-2
1.407948583E0,-2.916394738E-3,-3.986502810E-2,-3.615684271E-2,5.389845173E-2
1.417894583E0,-1.376106344E-2,-3.014971484E-2,-1.894380927E-2,3.817381409E-2
1.427840583E0,-1.372160159E-2,-3.458341636E-2,-2.074065864E-2,4.259659562E-2
1.437786583E0,-2.594522418E-2,-3.688566159E-2,-2.074124336E-2,4.963774638E-2
1.447732583E0,-3.451051118E-2,-3.268918344E-2,-1.954490304E-2,5.139612175E-2
1.457678583E0,-2.863496622E-2,-2.972404668E-2,-2.583299875E-2,4.869110870E-2
1.467623583E0,-4.178848797E-2,-3.230196986E-2,-4.229817331E-2,6.766705586E-2
1.477569583E0,-4.645469396E-2,-2.144458575E-2,-4.574159861E-2,6.863091645E-2
1.487515583E0,-3.930386442E-2,-2.685361197E-2,-4.559190989E-2,6.591306761E-2
1.497461583E0,-3.903674260E-2,-1.998397412E-2,-3.197023630E-2,5.427082553E-2
1.507407583E0,-3.558458302E-2,-1.919101859E-2,-2.029451609E-2,4.523743059E-2
1.517353583E0,-4.153707596E-2,-2.192847939E-2,-1.520568430E-2,4.937002859E-2
1.527299583E0,-3.459678958E-2,-2.204163215E-2,-1.984603465E-2,4.557012715E-2
1.537244583E0,-2.532014541E-2,-1.741321378E-2,-3.242047191E-2,4.467008816E-2
1.547190583E0,-1.816721224E-2,-2.206945210E-2,-3.152292430E-2,4.255353185E-2
1.557136583E0,-3.087135033E-2,-2.917504338E-2,-3.287012279E-2,5.370910910E-2
1.567082583E0,-2.305480159E-2,-3.786749133E-2,-4.619358838E-2,6.402591962E-2
1.577028583E0,-1.685126209E-2,-3.802813901E-2,-3.751105785E-2,5.601056911E-2
1.586974583E0,-2.486382733E-2,-3.477213982E-2,-2.658319652E-2,5.033863282E-2
1.596920583E0,-1.870428356E-2,-4.212044536E-2,-2.299066722E-2,5.150294089E-2
1.606866583E0,-4.690056243E-3,-3.331538826E-2,-1.370938182E-2,3.632986199E-2
1.616812583E0,-4.194705714E-3,-4.261865554E-2,-1.834973216E-2,4.659032117E-2
1.626757583E0,-1.394386887E-2,-4.951890905E-2,-2.703167796E-2,5.811424478E-2
1.636703583E0,-1.554715485E-2,-4.706197756E-2,-3.945642650E-2,6.335103273E-2
1.646649583E0,-1.414402409E-2,-4.075285928E-2,-4.888740063E-2,6.519836575E-2
1.656595583E0,-1.611189538E-2,-4.307683057E-2,-4.903708935E-2,6.722977493E-2
1.666541583E0,-1.823673472E-2,-3.995800340E-2,-3.466697216E-2,5.595551347E-2
1.676487583E0,-1.698557218E-2,-3.302921274E-2,-1.790242016E-2,4.123027048E-2
1.686433583E0,-2.606167970E-2,-3.409676814E-2,-3.152526319E-2,5.325075554E-2
1.696379583E0,-3.064167125E-2,-2.487048310E-2,-2.987985671E-2,4.950008872E-2
1.706324583E0,-3.034355690E-2,-3.203717322E-2,-3.033009231E-2,5.354462076E-2
1.716270583E0,-3.512951661E-2,-2.992471125E-2,-3.212694168E-2,5.622909978E-2
1.726216583E0,-3.813255749E-2,-2.366810370E-2,-4.170760453E-2,6.126822463E-2
1.736162583E0,-3.455667220E-2,-2.156754173E-2,-3.691815019E-2,5.497519680E-2
1.746108583E0,-4.096214849E-2,-2.607399540E-2,-4.170818925E-2,6.401034210E-2
1.756054583E0,-4.628439838E-2,-1.693106060E-2,-3.796597123E-2,6.221190656E-2
1.766000583E0,-3.988585424E-2,-2.029669509E-2,-3.242807329E-2,5.526678150E-2
1.775946583E0,-3.113003709E-2,-1.731741537E-2,-3.063180864E-2,4.698169628E-2
1.785891583E0,-3.054161305E-2,-2.371362062E-2,-2.224865556E-2,4.461085748E-2
1.795837583E0,-3.245784841E-2,-2.034583454E-2,-3.003305376E-2,4.867698865E-2
1.805783583E0,-2.359394685E-2,-2.234182728E-2,-2.374671221E-2,4.024596768E-2
1.815729583E0,-2.764380835E-2,-3.272309729E-2,-2.704044878E-2,5.065734998E-2
1.825675583E0,-2.605500109E-2,-2.671481369E-2,-3.572297931E-2,5.165922573E-2
1.835621583E0,-3.247764443E-2,-3.597558816E-2,-3.003363848E-2,5.701806531E-2
1.845567583E0,-1.890380838E-2,-3.952608603E-2,-3.332679033E-2,5.504852770E-2
1.855513583E0,-1.411224584E-2,-4.011136034E-2,-3.242865801E-2,5.347611215E-2
1.865458583E0,-1.057448166E-2,-4.521013238E-2,-3.197959185E-2,5.637792145E-2
1.875404583E0,-7.354230420E-3,-3.338140698E-2,-2.419519365E-2,4.187851995E-2
1.885350583E0,-1.552963604E-2,-3.520386076E-2,-3.332679033E-2,5.090340226E-2
1.895296583E0,-1.785711109E-2,-3.212251059E-2,-2.584176958E-2,4.492804423E-2
1.905242583E0,-1.149587950E-2,-3.353339804E-2,-2.299826860E-2,4.225593909E-2
1.915188583E0,-1.640528171E-2,-2.536368661E-2,-2.524301469E-2,3.936571677E-2
1.925134583E0,-2.256050173E-2,-3.432145653E-2,-3.302624345E-2,5.270361822E-2
1.935080583E0,-2.163083327E-2,-3.274846416E-2,-3.467223465E-2,5.236906252E-2
1.945025583E0,-1.448951459E-2,-2.776877431E-2,-3.916348100E-2,5.014807178E-2
1.954971583E0,-2.461731237E-2,-3.113230289E-2,-4.125853837E-2,5.724944838E-2
1.964917583E0,-3.076948316E-2,-3.594203519E-2,-2.628966630E-2,5.412705000E-2
1.974863583E0,-3.522793713E-2,-2.823782607E-2,-2.494305253E-2,5.158040563E-2
1.984809583E0,-3.818495403E-2,-2.694722224E-2,-1.132079422E-2,4.808746076E-2
1.994755583E0,-2.799927338E-2,-2.015024061E-2,-2.703752518E-2,4.382943388E-2
2.004701583E0,-3.183920842E-2,-1.400172433E-2,-4.036040604E-2,5.327988225E-2
2.014647583E0,-2.959150903E-2,-2.192219363E-2,-3.721752763E-2,5.235823090E-2
2.024592583E0,-3.398680850E-2,-2.075131611E-2,-3.317651689E-2,5.183050786E-2
2.034538583E0,-2.729591501E-2,-2.966508573E-2,-3.452371538E-2,5.307514683E-2
2.044484583E0,-3.403789170E-2,-3.134394926E-2,-2.374554276E-2,5.200838420E-2
2.054430583E0,-2.900680117E-2,-2.019037169E-2,-2.868585527E-2,4.551839096E-2
2.064376583E0,-2.522187792E-2,-2.169784784E-2,-3.108029008E-2,4.552937687E-2
2.074322583E0,-2.686220007E-2,-2.831245116E-2,-3.302682817E-2,5.112674508E-2
2.084268583E0,-2.019303035E-2,-3.382377625E-2,-2.404550493E-2,4.615184311E-2
2.094214583E0,-2.446466806E-2,-2.812584733E-2,-2.928519487E-2,4.740470346E-2
2.104159583E0,-1.177483737E-2,-2.740776813E-2,-2.000449419E-2,3.591674174E-2
2.114105583E0,-1.884354779E-2,-3.863923700E-2,-2.329764605E-2,4.889632134E-2
2.124051583E0,-1.987864658E-2,-2.776837688E-2,-2.404550493E-2,4.176636987E-2
2.133997583E0,-1.601960530E-2,-3.319683596E-2,-2.329706132E-2,4.360516871E-2
2.143943583E0,-1.891771607E-2,-3.229902798E-2,-2.090204179E-2,4.287193185E-2
2.153889583E0,-1.466277947E-2,-2.781082858E-2,-3.138142169E-2,4.442108638E-2
2.163835583E0,-1.399073796E-2,-3.151323072E-2,-2.883671343E-2,4.494864292E-2
2.173781417E0,-2.657911261E-2,-3.043805110E-2,-2.898581743E-2,4.973029051E-2
2.183727417E0,-2.005902404E-2,-3.256581176E-2,-3.721752763E-2,5.336703949E-2
2.193672417E0,-2.735153893E-2,-2.933031893E-2,-2.584118485E-2,4.770892081E-2
2.203618417E0,-3.708748875E-2,-2.299121540E-2,-2.898523271E-2,5.238531782E-2
2.213564417E0,-2.542640941E-2,-3.289330152E-2,-2.539270341E-2,4.871612636E-2
2.223510417E0,-2.926197960E-2,-2.746798075E-2,-2.659138262E-2,4.814410708E-2
2.233456417E0,-3.007745833E-2,-2.709854635E-2,-3.063297808E-2,5.076774626E-2
2.243402417E0,-2.351680243E-2,-2.430374629E-2,-3.078325152E-2,4.573095948E-2
2.253348417E0,-3.014369404E-2,-2.468877174E-2,-3.377761066E-2,5.156650776E-2
2.263294417E0,-3.565557644E-2,-2.980732382E-2,-3.003656209E-2,5.533526675E-2
2.273239417E0,-2.958246184E-2,-2.418893530E-2,-2.270181477E-2,4.444771122E-2
2.283185417E0,-2.919937785E-2,-2.558628280E-2,-2.764212728E-2,4.765866904E-2
2.293131417E0,-2.366736366E-2,-2.777647619E-2,-3.542594075E-2,5.085935519E-2
2.303077417E0,-2.869450732E-2,-2.825010066E-2,-2.824205160E-2,4.918390404E-2
2.313023417E0,-2.760189341E-2,-2.692193303E-2,-2.150722861E-2,4.414992503E-2
2.322969417E0,-3.195344840E-2,-3.919361243E-2,-3.662637413E-2,6.243919764E-2
2.332915417E0,-2.383789223E-2,-3.668968394E-2,-3.408108115E-2,5.546077989E-2
2.342861417E0,-1.921722142E-2,-2.962346544E-2,-2.899224937E-2,4.568809284E-2
2.352806417E0,-1.875635576E-2,-2.697830841E-2,-2.016178429E-2,3.855032493E-2
2.362752417E0,-1.642905886E-2,-2.603904915E-2,-3.063999474E-2,4.343679700E-2
2.372698417E0,-1.875800486E-2,-3.390240303E-2,-2.420396447E-2,4.568443470E-2
2.382644417E0,-1.950993167E-2,-3.190011083E-2,-3.064057946E-2,4.834355815E-2
2.392590417E0,-2.466504712E-2,-3.190284714E-2,-3.318587244E-2,5.222507381E-2
2.402536417E0,-2.171658863E-2,-4.162705000E-2,-1.881575525E-2,5.058116407E-2
2.412482417E0,-1.596338524E-2,-3.838097736E-2,-2.974303186E-2,5.111337433E-2
2.422428417E0,-2.183287741E-2,-3.860892741E-2,-3.468217492E-2,5.630432549E-2
2.432373417E0,-1.180538679E-2,-3.713070104E-2,-3.318353355E-2,5.117814979E-2
2.442319417E0,-1.855184482E-2,-3.395095319E-2,-3.572882652E-2,5.266295865E-2
2.452265417E0,-2.406874761E-2,-2.652122974E-2,-3.228657067E-2,4.821932065E-2
2.462211417E0,-2.691535491E-2,-2.721098648E-2,-4.725544274E-2,6.081078016E-2
2.472157417E0,-3.135030582E-2,-2.154487006E-2,-3.468217492E-2,5.147694978E-2
2.482103417E0,-3.166953638E-2,-2.752549360E-2,-3.618023157E-2,5.540416491E-2
2.492049417E0,-2.286183662E-2,-2.518341421E-2,-2.749887049E-2,4.373849338E-2
2.501995417E0,-3.001224132E-2,-2.384534743E-2,-2.854552209E-2,4.779311723E-2
2.511940417E0,-2.955110843E-2,-2.163512732E-2,-3.213805139E-2,4.872577440E-2
2.521886417E0,-2.518446716E-2,-2.573051259E-2,-4.710809290E-2,5.929155995E-2
2.531832417E0,-3.396991096E-2,-2.952773555E-2,-2.794852138E-2,5.298076882E-2
2.541778417E0,-4.297978506E-2,-2.950006634E-2,-2.330817103E-2,5.710329829E-2
2.551724417E0,-3.369212254E-2,-2.667180011E-2,-2.675159633E-2,5.061809902E-2
2.561670417E0,-3.640945613E-2,-3.097599494E-2,-3.588260829E-2,5.977225390E-2
2.571616417E0,-2.305758130E-2,-2.475998443E-2,-2.615342617E-2,4.276342578E-2
2.581562417E0,-1.867688388E-2,-2.648489934E-2,-2.106342494E-2,3.865156860E-2
2.591507417E0,-6.102930838E-3,-3.108456586E-2,-2.884723842E-2,4.284459317E-2
2.601453417E0,-3.193999752E-2,-2.918486944E-2,-4.531416714E-2,6.265216508E-2
2.611399417E0,-3.013376748E-2,-3.224150599E-2,-4.142226040E-2,6.052571609E-2
2.621345417E0,-1.270686299E-2,-3.132345659E-2,-3.438689053E-2,4.821909933E-2
2.631291417E0,-2.319775459E-2,-3.191124338E-2,-2.360930264E-2,4.597675981E-2
2.641237417E0,-2.177788389E-2,-3.255893215E-2,-3.558440030E-2,5.292078829E-2
2.651183417E0,-1.665799791E-2,-2.762395523E-2,-3.214039028E-2,4.553654010E-2
2.661129417E0,-2.081449116E-2,-3.380523875E-2,-1.777027309E-2,4.349505506E-2
2.671074417E0,-1.884207457E-2,-2.961023154E-2,-2.405661464E-2,4.255009159E-2
2.681020417E0,-2.283561094E-2,-3.381646267E-2,-3.258828700E-2,5.222082653E-2
2.690966417E0,-2.381991432E-2,-3.007274173E-2,-5.279626429E-2,6.526257455E-2
2.700912417E0,-2.187627015E-2,-1.681569686E-2,-4.336645961E-2,5.140027894E-2
2.710858417E0,-2.458449716E-2,-2.329533000E-2,-4.261801600E-2,5.443679995E-2
2.720804417E0,-2.807302596E-2,-2.816128694E-2,-4.112112880E-2,5.720227357E-2
2.730750417E0,-2.807830444E-2,-2.582495883E-2,-3.139136195E-2,4.940381852E-2
2.740696417E0,-3.063638134E-2,-2.268981884E-2,-3.004474819E-2,4.853970163E-2
2.750641417E0,-3.620564412E-2,-2.474596025E-2,-1.133365810E-2,4.529528696E-2
2.760587417E0,-3.749024085E-2,-2.716061820E-2,-2.480505824E-2,5.252150278E-2
2.770533417E0,-1.956279643E-2,-2.904522606E-2,-3.752918422E-2,5.132998957E-2
2.780479417E0,-2.738209063E-2,-2.689581242E-2,-4.052354336E-2,5.581506230E-2
2.790425417E0,-2.538430946E-2,-2.391958879E-2,-3.782973111E-2,5.145481951E-2
2.800371417E0,-2.000543294E-2,-1.709471412E-2,-4.381786466E-2,5.111214984E-2
2.810317417E0,-2.821906473E-2,-3.024926826E-2,-4.965455532E-2,6.462900826E-2
2.820263417E0,-3.447666813E-2,-2.741241393E-2,-4.681105435E-2,6.427562440E-2
2.830208417E0,-2.476388562E-2,-2.625173248E-2,-2.540615201E-2,4.413474877E-2
2.840154417E0,-1.814258998E-2,-3.432198187E-2,-8.791288733E-3,3.980500933E-2
2.850100417E0,-3.009695286E-2,-2.976217692E-2,-2.361164153E-2,4.846775590E-2
2.860046417E0,-2.506238141E-2,-3.381151537E-2,-3.828172088E-2,5.689316028E-2
2.869992417E0,-2.205699022E-2,-2.236913561E-2,-4.037736297E-2,5.115877721E-2
2.879938417E0,-3.188492177E-2,-2.542154663E-2,-4.561588347E-2,6.118588149E-2
2.889884417E0,-2.445019849E-2,-2.448276702E-2,-4.262093961E-2,5.489774659E-2
2.899830417E0,-1.931282796E-2,-1.911415511E-2,-3.438805997E-2,4.382778706E-2
2.909775417E0,-1.446026024E-2,-3.357911139E-2,-3.184335172E-2,4.848355285E-2
2.919721417E0,-1.155634108E-2,-3.582244593E-2,-2.750237882E-2,4.661735184E-2
2.929667417E0,-2.160297449E-2,-3.259740957E-2,-1.896953702E-2,4.346404205E-2
2.939613417E0,-2.374853718E-2,-3.621290289E-2,-1.313284636E-2,4.525305522E-2
2.949559417E0,-2.371929196E-2,-3.844215842E-2,-2.510911345E-2,5.168047924E-2
2.959505417E0,-1.655162198E-2,-3.531200227E-2,-3.394191742E-2,5.170055564E-2
2.969451417E0,-2.147743979E-2,-3.046537313E-2,-2.885250092E-2,4.713688777E-2
2.979397417E0,-2.360179719E-2,-3.222429782E-2,-4.891078949E-2,6.314836126E-2
2.989343417E0,-1.966883203E-2,-2.856596908E-2,-4.127724946E-2,5.391371686E-2
2.999288417E0,-1.937247642E-2,-2.221840078E-2,-2.032199800E-2,3.580410282E-2
3.009234417E0,-2.589168104E-2,-2.002379457E-2,-2.122013032E-2,3.900801747E-2
3.019180417E0,-2.244170275E-2,-3.010863815E-2,-1.687857270E-2,4.117094036E-2
3.029126417E0,-3.058157055E-2,-2.335332707E-2,-1.164005220E-2,4.020076066E-2
3.039072417E0,-2.255675129E-2,-1.803787914E-2,-3.409336030E-2,4.468253942E-2
3.049018417E0,-2.417408429E-2,-2.262666891E-2,-4.966098726E-2,5.968723609E-2
3.058964417E0,-3.520496625E-2,-3.237510574E-2,-5.220628023E-2,7.080277407E-2
3.068910417E0,-3.849657407E-2,-3.316626599E-2,-5.145842135E-2,7.231843847E-2
3.078855417E0,-3.134312699E-2,-1.827864281E-2,-3.918394625E-2,5.340301524E-2
3.088801417E0,-3.052906895E-2,-1.777298656E-2,-2.720884860E-2,4.458951159E-2
3.098747417E0,-2.756660683E-2,-1.612593555E-2,-2.690888643E-2,4.176184597E-2
3.108693417E0,-2.489062630E-2,-2.183115066E-2,-2.451386690E-2,4.119553480E-2
3.118639417E0,-2.831223875E-2,-1.935874688E-2,-2.316725314E-2,4.138919619E-2
3.128585417E0,-1.281244406E-2,-2.749960596E-2,-3.454359591E-2,4.597441755E-2
3.138531417E0,-1.861799602E-2,-2.211956000E-2,-3.813554049E-2,4.785628651E-2
3.148477417E0,-1.965058689E-2,-2.867528460E-2,-4.741624117E-2,5.879385545E-2
3.158422417E0,-1.918639563E-2,-3.383666754E-2,-4.532001436E-2,5.972387754E-2
3.168368417E0,-2.143056842E-2,-4.122937995E-2,-2.601016939E-2,5.325091497E-2
3.178314208E0,-2.145347991E-2,-3.636102931E-2,-2.211767793E-2,4.766096862E-2
3.188260208E0,-9.891239076E-3,-2.849347731E-2,-1.149036348E-2,3.227604859E-2
3.198206208E0,-1.261063290E-2,-2.742993730E-2,-1.852514863E-2,3.542048354E-2
3.208152208E0,-1.637302152E-2,-2.786446308E-2,-1.702767670E-2,3.653006858E-2
3.218098208E0,-2.600608547E-2,-2.971398307E-2,-3.648662567E-2,5.376347389E-2
3.228044208E0,-1.453880936E-2,-1.857750862E-2,-3.858168304E-2,4.522219665E-2
3.237989208E0,-1.821951741E-2,-2.183390981E-2,-4.352141082E-2,5.198830284E-2
3.247935208E0,-1.618854644E-2,-1.961647661E-2,-3.528911591E-2,4.349938956E-2
3.257881208E0,-1.389791569E-2,-2.628342622E-2,-2.466063201E-2,3.862793453E-2
3.267827208E0,-1.734707400E-2,-2.562595250E-2,-2.915129364E-2,4.251362533E-2
3.277773208E0,-2.614910014E-2,-2.492237714E-2,-3.154572845E-2,4.795866245E-2
3.287719208E0,-3.016217444E-2,-3.015528340E-2,-1.912097991E-2,4.674087886E-2
3.297665208E0,-3.483143652E-2,-2.007186051E-2,-3.049673796E-2,5.045948454E-2
3.307611208E0,-2.929039798E-2,-2.585810523E-2,-3.169424772E-2,5.030998270E-2
3.317556208E0,-2.993730788E-2,-3.078608834E-2,-3.423837125E-2,5.492077662E-2
3.327502208E0,-3.766345091E-2,-1.888297082E-2,-3.947747648E-2,5.773710480E-2
3.337448208E0,-3.192679560E-2,-1.575213402E-2,-3.393957853E-2,4.918683761E-2
3.347394208E0,-2.368604049E-2,-1.941242706E-2,-2.645572722E-2,4.046944948E-2
3.357340208E0,-1.947291833E-2,-1.987813951E-2,-2.301288664E-2,3.610994227E-2
3.367286208E0,-2.400503352E-2,-1.930903641E-2,-2.989798307E-2,4.292982545E-2
3.377232208E0,-1.169431253E-2,-2.391815440E-2,-2.525763273E-2,3.669854311E-2
3.387178208E0,-1.576086829E-2,-3.064651347E-2,-1.897187591E-2,3.933885907E-2
3.397123208E0,-1.152463821E-2,-3.354198614E-2,-2.705448210E-2,4.460747832E-2
3.407069208E0,-1.556581797E-2,-3.822918273E-2,-3.663397551E-2,5.518888713E-2
3.417015208E0,-2.598443935E-2,-2.858923460E-2,-3.453891814E-2,5.182154272E-2
3.426961208E0,-2.245217292E-2,-2.924912029E-2,-3.244269133E-2,4.911353507E-2
3.436907208E0,-1.298114765E-2,-3.126757000E-2,-4.262210906E-2,5.443174909E-2
3.446853208E0,-2.173115413E-2,-2.501787862E-2,-3.274265349E-2,4.658560580E-2
3.456799208E0,-1.649838035E-2,-2.190635133E-2,-2.974887908E-2,4.046085255E-2
3.466745208E0,-2.018413847E-2,-1.907220134E-2,-1.657685637E-2,3.234100303E-2
3.476690208E0,-1.542664739E-2,-2.428357340E-2,-2.316257536E-2,3.693478420E-2
3.486636208E0,-1.830464008E-2,-3.011060245E-2,-3.109549284E-2,4.699614775E-2
3.496582208E0,-2.294840053E-2,-2.612632341E-2,-4.935751677E-2,6.037696848E-2
3.506528208E0,-2.496426696E-2,-2.590540830E-2,-4.232156217E-2,5.554655190E-2
3.516474208E0,-2.905527367E-2,-2.485733600E-2,-3.483829558E-2,5.172816371E-2
3.526420208E0,-2.433365389E-2,-2.522205151E-2,-3.693393767E-2,5.091556094E-2
3.536366208E0,-2.242671241E-2,-2.292500482E-2,-3.648545623E-2,4.857676185E-2
3.546312208E0,-2.840117353E-2,-1.622300847E-2,-3.259354949E-2,4.617523286E-2
3.556257208E0,-2.818090708E-2,-2.423043226E-2,-1.657627165E-2,4.069459612E-2
3.566203208E0,-2.929166107E-2,-2.520857551E-2,-2.630545378E-2,4.674880304E-2
3.576149208E0,-2.537542672E-2,-2.934030488E-2,-4.232214689E-2,5.741018977E-2
3.586095208E0,-2.400948745E-2,-1.707208356E-2,-3.992712736E-2,4.961942184E-2
3.596041208E0,-2.231945255E-2,-2.505392122E-2,-3.528677702E-2,4.869305457E-2
3.605987208E0,-2.500986154E-2,-2.324982222E-2,-3.992654264E-2,5.253737921E-2
3.615933208E0,-1.560852549E-2,-3.457563682E-2,-3.812910855E-2,5.378596144E-2
3.625879208E0,-2.160145101E-2,-2.752201268E-2,-2.315965176E-2,4.195775658E-2
3.635825208E0,-2.805852212E-2,-3.511847771E-2,-1.417715907E-2,4.713363957E-2
3.645770208E0,-2.240380320E-2,-3.292913399E-2,-1.282996058E-2,4.184335254E-2
3.655716208E0,-1.576390611E-2,-3.512927678E-2,-2.091315150E-2,4.381696850E-2
3.665662208E0,-2.026354868E-2,-2.882318261E-2,-4.261918545E-2,5.529721719E-2
3.675608208E0,-2.001193340E-2,-2.939938917E-2,-3.229124844E-2,4.803671812E-2
3.685554208E0,-1.972142957E-2,-3.158246540E-2,-3.034587979E-2,4.803393931E-2
3.695500208E0,-2.840504731E-2,-2.732406615E-2,-3.768062711E-2,5.452779991E-2
3.705446208E0,-3.056157353E-2,-2.702803716E-2,-3.079494596E-2,5.111607639E-2
3.715392208E0,-1.996160167E-2,-2.178023877E-2,-3.348934293E-2,4.465848667E-2
3.725337208E0,-8.277549169E-3,-2.175255129E-2,-2.495650113E-2,3.412503855E-2
3.735283208E0,-1.798996851E-2,-2.485700710E-2,-8.041090965E-3,3.172016571E-2
3.745229208E0,-2.436952975E-2,-2.338100998E-2,-1.986649990E-2,3.918192729E-2
3.755175208E0,-2.116742316E-2,-1.862846162E-2,-2.495533168E-2,3.765432200E-2
3.765121208E0,-2.745518083E-2,-2.185781030E-2,-1.791937709E-2,3.940374222E-2
3.775067208E0,-3.566015372E-2,-2.825407951E-2,-3.498389125E-2,5.739174347E-2
3.785013208E0,-2.313353343E-2,-2.203107518E-2,-4.246832728E-2,5.314214396E-2
3.794959208E0,-3.324224553E-2,-2.620950005E-2,-4.336645961E-2,6.060226564E-2
3.804904208E0,-3.124696313E-2,-2.537126515E-2,-2.091315150E-2,4.535894295E-2
3.814850208E0,-2.873652505E-2,-1.898643913E-2,-1.687155604E-2,3.835260286E-2
3.824796208E0,-2.784533858E-2,-2.902637335E-2,-3.154046595E-2,5.111452067E-2
3.834742208E0,-2.800611645E-2,-2.122394015E-2,-4.995217860E-2,6.107387609E-2
3.844688208E0,-2.650401015E-2,-2.307247343E-2,-4.381552577E-2,5.616584267E-2
3.854634208E0,-2.236221945E-2,-1.868755504E-2,-3.438513637E-2,4.507361950E-2
3.864580208E0,-1.784680538E-2,-1.978313140E-2,-4.965397060E-2,5.635066589E-2
3.874526208E0,-2.328190424E-2,-1.679466516E-2,-6.312595546E-2,6.934691122E-2
3.884471208E0,-2.844419167E-2,-2.433270372E-2,-4.995393276E-2,6.242233501E-2
3.894417208E0,-2.243254364E-2,-2.569424615E-2,-6.094552875E-3,3.464905300E-2
3.904363208E0,-1.448096304E-2,-2.275186785E-2,1.426252842E-2,3.050844962E-2
3.914309208E0,-2.053716868E-2,-3.028060111E-2,-1.028759122E-2,3.800690246E-2
3.924255208E0,-2.230269891E-2,-2.110233177E-2,-2.944657803E-2,4.254197624E-2
3.934201208E0,-1.737524342E-2,-3.584774884E-2,-3.019502163E-2,4.998699343E-2
3.944147208E0,-8.649256211E-3,-3.262937282E-2,-4.157136440E-2,5.355057369E-2
3.954093208E0,-1.155558734E-2,-2.840990324E-2,-5.758805752E-2,6.524598508E-2
3.964038208E0,-1.210854437E-2,-2.366831384E-2,-6.462284267E-2,6.987787719E-2
3.973984208E0,-6.934475710E-3,-2.933733559E-2,-3.573291957E-2,4.675048400E-2
3.983930208E0,-1.399287128E-2,-3.473722097E-2,-1.028583705E-2,3.883649587E-2
3.993876208E0,-1.553509725E-2,-2.248078088E-2,4.233384132E-3,2.765223855E-2
4.003822208E0,-1.605741577E-2,-2.239826205E-2,-9.837940335E-3,2.926273764E-2
4.013768208E0,-1.563393575E-2,-3.502119009E-2,-2.226268888E-2,4.434558623E-2
4.023714208E0,-1.655068552E-2,-2.811457316E-2,-2.480798185E-2,4.098524587E-2
4.033660208E0,-2.547300213E-2,-1.962249285E-2,-4.726128995E-2,5.716244914E-2
4.043605208E0,-2.054570653E-2,-2.411669021E-2,-5.908669889E-2,6.704460298E-2
4.053551208E0,-2.370178915E-2,-2.477913406E-2,-4.756066740E-2,5.863273298E-2
4.063497208E0,-3.184937253E-2,-1.749197303E-2,-3.932778776E-2,5.354462196E-2
4.073443208E0,-2.809251363E-2,-1.967646082E-2,-1.103661954E-2,3.602997923E-2
4.083389208E0,-3.511877235E-2,-1.207096915E-2,-5.198174715E-3,3.749743309E-2
4.093335208E0,-4.030711415E-2,-1.941625059E-2,-1.552786589E-2,4.735788063E-2
4.103281208E0,-3.888106048E-2,-1.763534859E-2,-3.393899381E-2,5.453987243E-2
4.113227208E0,-3.321102003E-2,-2.372033578E-2,-2.944950163E-2,5.032791797E-2
4.123173208E0,-3.598591672E-2,-1.756036262E-2,-4.292265594E-2,5.870014421E-2
4.133118208E0,-2.969782786E-2,-2.044692742E-2,-5.953810394E-2,6.960476737E-2
4.143064208E0,-1.595812960E-2,-2.594913451E-2,-5.190280974E-2,6.018239893E-2
4.153010208E0,-1.231503102E-2,-2.655153476E-2,-2.825140715E-2,4.067906087E-2
4.162956208E0,-1.396415825E-2,-2.369039621E-2,-1.099276543E-4,2.749990314E-2
4.172902792E0,-1.738609275E-2,-2.499409233E-2,-6.995608807E-3,3.123970894E-2
4.182848792E0,-1.309633780E-2,-3.632384924E-2,-3.109607756E-2,4.957723396E-2
4.192794792E0,-9.097189475E-3,-3.459676903E-2,-3.109666228E-2,4.739934270E-2
4.202740792E0,3.416596628E-3,-3.846612744E-2,-3.394016325E-2,5.141255464E-2
4.212685792E0,-6.871067681E-3,-4.329479010E-2,-5.280035734E-2,6.862600204E-2
4.222631792E0,2.682115536E-3,-4.607261497E-2,-5.115436614E-2,6.889592708E-2
4.232577792E0,7.339564415E-3,-4.600335744E-2,-2.780234098E-2,5.425079046E-2
4.242523792E0,8.440864643E-3,-5.626859219E-2,-1.492911100E-2,5.882415336E-2
4.252469792E0,5.321331695E-4,-5.193242497E-2,-4.899966717E-3,5.216578959E-2
4.262415792E0,8.066243129E-3,-4.597168197E-2,-3.403079510E-3,4.679787145E-2
4.272361792E0,8.323767297E-3,-4.961928930E-2,-2.900043547E-2,5.807223287E-2
4.282307792E0,-6.135101945E-3,-3.971252084E-2,-3.918043792E-2,5.612335078E-2
4.292252792E0,-7.266793989E-3,-1.252511508E-2,-2.675685883E-2,3.042390995E-2
4.302198792E0,-2.789985929E-2,-8.638105388E-3,-2.436242402E-2,3.803349468E-2
4.312144792E0,-3.473797472E-2,-6.397356419E-3,-4.681631684E-2,5.864657347E-2
4.322090792E0,-4.942377303E-2,1.370417414E-2,-4.936160982E-2,7.118344086E-2
4.332036792E0,-5.751632406E-2,1.292606962E-2,-2.526172578E-2,6.413552525E-2
4.341982792E0,-6.432892415E-2,2.364928755E-2,1.082904339E-3,6.854685963E-2
4.351928792E0,-7.552540566E-2,2.520440023E-2,-2.406538546E-2,8.317746971E-2
4.361874792E0,-8.160799915E-2,9.461813620E-3,-5.205659151E-2,9.725883077E-2
4.371819792E0,-8.724458713E-2,-1.082087099E-2,-4.202744722E-2,9.744237042E-2
4.381765792E0,-8.492316943E-2,-1.894198658E-2,-2.930449069E-2,9.181229077E-2
4.391711792E0,-6.973484404E-2,-2.159574998E-2,-3.394367158E-2,8.050774951E-2
4.401657792E0,-5.203266361E-2,-2.285053505E-2,-3.813437104E-2,6.843811284E-2
4.411603792E0,-2.903804038E-2,-1.856213684E-2,-2.017113984E-2,3.993288864E-2
4.421549792E0,-1.149001630E-2,-1.307680902E-2,-8.943901062E-3,1.957081436E-2
4.431495792E0,9.333613417E-3,-1.543130460E-2,-1.942094207E-2,2.650310344E-2
4.441441792E0,1.419157840E-2,-1.098383015E-2,-4.980775237E-2,5.294202129E-2
4.451386792E0,9.963239771E-3,-1.084862699E-2,-6.327915251E-2,6.497083959E-2
4.461332792E0,2.222162589E-2,-1.831323731E-2,-2.750296354E-2,3.981944653E-2
4.471278792E0,1.421319254E-2,-3.997787480E-2,-3.199304044E-2,5.313943876E-2
4.481224792E0,1.225325838E-2,-5.738532359E-2,-1.687506437E-2,6.105723136E-2
4.491170792E0,8.637924946E-3,-6.057857942E-2,-3.214389861E-2,6.912024486E-2
4.501116792E0,5.476751144E-3,-6.634967163E-2,-1.552786589E-2,6.836218507E-2
4.511062792E0,3.085653358E-3,-6.497796966E-2,-1.971915007E-2,6.797427952E-2
4.521008792E0,-7.072609328E-3,-5.774256106E-2,-1.807374358E-2,6.091703675E-2
4.530953792E0,-1.388730163E-2,-3.620464826E-2,-3.438981414E-2,5.182946092E-2
4.540899792E0,-1.886590426E-3,-1.496366439E-2,-5.968779266E-2,6.156381297E-2
4.550845792E0,-8.064632860E-3,-1.404661085E-3,-6.896849334E-2,6.945260578E-2
4.560791792E0,-1.490566504E-2,5.544736446E-3,-1.807491302E-2,2.407541139E-2
4.570737792E0,-1.926288224E-2,-4.333796357E-3,-1.598044038E-2,2.540108064E-2
4.580683792E0,-3.347308721E-2,-1.504478994E-2,-1.014316499E-2,3.807462499E-2
4.590629792E0,-5.380749912E-2,-1.305213651E-2,-2.885425508E-2,6.243535269E-2
4.600575792E0,-6.698909664E-2,-8.545308248E-3,-4.127841890E-2,7.914840004E-2
4.610520792E0,-7.421798651E-2,-1.854211012E-2,-3.529145479E-2,8.424729165E-2
4.620466792E0,-5.755850167E-2,-8.910096847E-3,-4.876402438E-2,7.596249742E-2
4.630412792E0,-5.404479101E-2,1.262221998E-4,-4.217772067E-2,6.855520030E-2
4.640358792E0,-4.290094358E-2,4.817237752E-3,-5.280620456E-2,6.820697897E-2
4.650304792E0,-3.697145578E-2,1.262163525E-2,-3.349694431E-2,5.146104835E-2
4.660250792E0,-3.371362476E-2,7.818604410E-3,-3.499324679E-2,4.921652558E-2
4.670196792E0,-3.874078212E-2,5.454766983E-4,-3.379690647E-2,5.141377861E-2
4.680142792E0,-3.083247777E-2,-3.928780742E-4,-1.942620456E-2,3.644411423E-2
4.690087792E0,-9.439505122E-3,-1.919581513E-3,-8.947994113E-3,1.314745788E-2
4.700033792E0,-1.585603401E-2,-1.584880950E-2,-3.155040622E-2,3.870435001E-2
4.709979792E0,-1.423372175E-2,-3.257186454E-2,-5.415340304E-2,6.477743632E-2
4.719925792E0,-1.421840935E-2,-4.565497759E-2,-4.861433566E-2,6.819012960E-2
4.729871792E0,-1.872769983E-2,-5.872380607E-2,-2.631071627E-2,6.701839994E-2
4.739817792E0,-1.035368988E-2,-5.703165840E-2,-1.822694063E-2,6.076207962E-2
4.749763792E0,5.980166718E-3,-4.464850275E-2,-2.406421602E-2,5.107188742E-2
4.759709792E0,1.486220150E-2,-3.517732445E-2,-2.511145234E-2,4.570464120E-2
4.769654792E0,1.574237191E-2,-2.835016114E-2,-1.044312716E-2,3.406776797E-2
4.779600792E0,1.725853665E-2,-1.989825302E-2,-1.179149508E-2,2.885891400E-2
4.789546792E0,7.834844138E-3,-2.453068678E-2,-3.214916110E-2,4.119111477E-2
4.799492792E0,-3.021685733E-3,-2.427148154E-2,1.679320335E-3,2.451643362E-2
4.809438792E0,-2.494761838E-2,-3.588068511E-2,-5.759916723E-2,7.230125374E-2
4.819384792E0,-4.727070945E-2,-5.336739108E-2,-3.381169993E-1,3.455513039E-1
4.829330792E0,-3.435748086E-2,-5.474456111E-2,-1.691178489E-1,1.810476464E-1
4.839276792E0,-1.608050314E-2,-2.305124986E-2,4.026942337E-1,4.036738641E-1
4.849222792E0,5.283178613E-3,-9.696730077E-3,4.133233023E-1,4.134707858E-1
4.859167792E0,-1.462868974E-2,-1.817783316E-2,-8.064655244E-2,8.395414584E-2
4.869113792E0,-3.703348880E-2,-7.421085108E-3,-2.340792453E-1,2.371068217E-1
4.879059792E0,-1.615902257E-2,-5.072847870E-3,-2.126731735E-1,2.133464941E-1
4.889005792E0,-1.976518319E-2,-8.084945083E-3,-7.630791843E-2,7.923968209E-2
4.898951792E0,-4.076432987E-2,-1.644235214E-2,-1.634285080E-1,1.692363991E-1
4.908897792E0,-4.628179911E-2,-4.019915537E-2,-2.500994468E-1,2.575028355E-1
4.918843792E0,-4.102571868E-2,-2.947872858E-2,5.810845971E-2,7.699803973E-2
4.928789792E0,-2.654156252E-2,-1.839636827E-2,2.827894753E-1,2.846274201E-1
4.938734792E0,-2.751440901E-2,-1.998564149E-2,1.667807168E-1,1.702124439E-1
4.948680792E0,-1.947629647E-2,-6.369157308E-3,-3.604633033E-2,4.146360114E-2
4.958626792E0,-1.171584673E-2,-1.973298239E-3,-7.316620946E-2,7.412455178E-2
4.968572792E0,-4.620264242E-3,3.665811354E-3,-1.044499826E-1,1.046163653E-1
4.978518792E0,3.543823818E-4,5.469106366E-3,-1.200181943E-1,1.201432631E-1
4.988464792E0,-3.180675181E-3,-1.619861461E-2,-1.917190915E-1,1.924284851E-1
4.998410792E0,-1.194481547E-2,-1.810275125E-2,-9.038041234E-2,9.294625950E-2
5.008356792E0,-1.898113552E-2,-3.500507827E-2,4.329219997E-2,5.882052013E-2
5.018301792E0,-1.005262451E-2,-5.054144546E-2,1.232271463E-1,1.335680446E-1
5.028247792E0,-6.493375923E-2,-4.714629624E-2,1.368412185E-1,1.586338092E-1
5.038193792E0,-1.415277664E-2,-5.356023956E-2,3.983708024E-2,6.823483942E-2
5.048139792E0,-3.862342211E-2,-4.732703459E-2,-4.055453360E-2,7.332316915E-2
5.058085792E0,2.989592513E-2,-2.118355782E-2,-3.922019899E-2,5.367246473E-2
5.068031792E0,-1.204137904E-2,7.010912066E-3,-3.084640145E-2,3.384742501E-2
5.077977792E0,1.799295151E-2,1.215553908E-3,-1.366950381E-1,1.378795029E-1
5.087923792E0,5.540972301E-2,5.654264388E-2,2.021733284E-1,2.171206179E-1
5.097868792E0,-5.303985107E-2,8.254093154E-2,1.826851434E-1,2.073646373E-1
5.107814792E0,-5.974256919E-2,-8.779069880E-2,3.715619034E-1,3.864383902E-1
5.117760792E0,-1.107082484E-1,-8.157772154E-2,7.294547707E-1,7.423041852E-1
5.127706792E0,-2.010230897E-1,-4.170548491E-2,6.536076128E-1,6.850930898E-1
5.137652792E0,2.374124689E-1,7.461489825E-2,3.751596951E-1,4.501964685E-1
5.147598792E0,6.791223769E-1,-4.462598640E-2,5.668524742E-2,6.829435546E-1
5.157544792E0,5.967009752E-1,-5.722946605E-1,1.098533946E-1,8.340509581E-1
5.167490792E0,5.959936266E-2,-3.834923064E-1,4.174964601E-1,5.700190587E-1
5.177435167E0,-7.320270888E-3,-3.767150911E-2,4.864766479E-2,6.196228089E-2
5.187381167E0,2.575949057E-2,2.088158385E-1,-3.074185324E-1,3.725235023E-1
5.197327167E0,-1.699800025E-1,4.666699357E-2,-1.594255042E-1,2.376709931E-1
5.207273167E0,2.910442912E-2,-4.093988338E-2,-1.607656860E-1,1.684302457E-1
5.217219167E0,5.644282095E-2,9.681922004E-2,-6.654306829E-2,1.303369991E-1
5.227165167E0,-1.824988547E-1,4.625370506E-2,5.322515756E-1,5.645679560E-1
5.237111167E0,-4.896665233E-1,-3.529448438E-1,9.200266385E-1,1.100360115E0
5.247057167E0,-2.187030781E-1,-3.777474535E-1,1.024877740E0,1.113956264E0
5.257002167E0,2.036890911E-1,-1.054801159E-1,6.885669458E-1,7.257683787E-1
5.266948167E0,4.071657091E-1,2.249844861E-1,1.605943626E-1,4.921305548E-1
5.276894167E0,-4.144447982E-2,9.396227047E-2,3.176599306E-1,3.338478466E-1
5.286840167E0,5.660276514E-2,-4.040825454E-1,5.947255665E-1,7.212385708E-1
5.296786167E0,4.093183250E-1,-4.899088904E-1,3.070536661E-1,7.084025451E-1
5.306732167E0,2.226162176E-1,-3.414170216E-1,9.086678374E-1,9.958919628E-1
5.316678167E0,5.080456011E-1,2.123855636E-1,1.310561587E0,1.421544806E0
5.326624167E0,5.656226586E-1,5.893028587E-1,1.192487007E0,1.445417626E0
5.336569167E0,-2.399398365E-1,1.766695279E-1,1.663971394E0,1.690439011E0
5.346515167E0,-8.839841089E-1,-4.396891285E-1,1.122062557E0,1.494583158E0
5.356461167E0,-5.645322260E-1,-4.948966384E-1,-5.075137603E-1,9.061950859E-1
5.366407167E0,-9.573290239E-1,-1.413944453E-2,-1.414211671E0,1.707827109E0
5.376353167E0,-1.179463358E0,6.651431461E-1,-1.999876392E-1,1.368774734E0
5.386299167E0,-9.737454472E-1,1.006045247E0,1.329838103E0,1.931004043E0
5.396245167E0,-5.918674475E-1,8.443402060E-1,1.975897545E0,2.228763910E0
5.406191167E0,-3.577411321E-1,5.850687437E-2,1.892595187E0,1.926997228E0
5.416136167E0,-2.414769964E-1,-6.077407376E-1,1.662085667E0,1.786109938E0
5.426082167E0,-1.335239469E-1,-1.147467248E0,1.628418569E0,1.996561235E0
5.436028167E0,-1.468153989E-1,-8.805940394E-1,1.859539708E0,2.062738119E0
5.445974167E0,5.892326921E-2,-9.012309831E-2,2.046650609E0,2.049481115E0
5.455920167E0,-5.100233853E-3,4.111405732E-1,2.228680279E0,2.266291766E0
5.465866167E0,2.814396456E-1,6.807939497E-1,2.788640056E0,2.884302695E0
5.475812167E0,2.240172105E-1,4.280156010E-1,2.716456763E0,2.759079269E0
5.485758167E0,-1.536842693E-1,7.583714448E-2,2.544262694E0,2.550027997E0
5.495704167E0,-6.271489620E-2,-3.712721738E-1,2.571948091E0,2.599363993E0
5.505649167E0,-4.871578485E-2,-1.310522849E0,1.881193117E0,2.293192297E0
5.515595167E0,-1.493595225E-1,-1.806089286E0,1.583755782E0,2.406771521E0
5.525541167E0,-8.821109533E-2,-1.885358527E0,1.495173973E0,2.407883548E0
5.535487167E0,-7.478150278E-3,-1.228602042E0,1.454762696E0,1.904167378E0
5.545433167E0,1.580277273E-1,-2.476734370E-1,1.767566514E0,1.791816474E0
5.555379167E0,1.696155931E-1,1.795168296E-1,1.763616135E0,1.780824981E0
5.565325167E0,1.507266015E-2,1.970318717E-1,1.794194149E0,1.805043321E0
5.575271167E0,-1.306333758E-1,4.040861633E-1,2.051287451E0,2.094786603E0
5.585216167E0,-3.515129703E-1,1.486946940E-1,2.267029243E0,2.298933028E0
5.595162167E0,-2.502324709E-1,-1.262981039E-1,2.027867598E0,2.047147893E0
5.605108167E0,-2.588957056E-1,-3.446164718E-1,2.232624226E0,2.273851014E0
5.615054167E0,2.249352233E-1,-9.189890501E-1,1.910408730E0,2.131853242E0
5.625000167E0,7.365874967E-1,-2.251963307E0,1.164131520E0,2.639905694E0
5.634946167E0,2.358725864E-1,-3.313693709E0,1.057094144E0,3.486208528E0
5.644892167E0,5.911856622E-2,-2.825950554E0,1.436676089E0,3.170730156E0
5.654837167E0,-8.063924342E-2,-1.245116041E0,4.841289908E-1,1.338356277E0
5.664783167E0,-7.540423125E-1,-6.660423017E-1,1.738979477E-1,1.020995912E0
5.674729167E0,-1.463427977E0,-2.755833668E-1,3.091007763E-1,1.520891491E0
5.684675167E0,-1.772654176E0,2.041134346E-1,3.087224615E-1,1.810876771E0
5.694621167E0,-1.260476092E0,-1.357173836E-1,3.954050946E-1,1.327992611E0
5.704567167E0,-6.581775042E-1,-1.461857708E0,1.599663717E-1,1.611153259E0
5.714513167E0,-2.317236945E-1,-2.153824809E0,4.431131119E-1,2.211109769E0
5.724459167E0,-9.865100652E-2,-2.050876392E0,4.429452968E-1,2.100482452E0
5.734404167E0,1.963416079E-1,-2.035315781E0,-2.065762818E-1,2.055172527E0
5.744350167E0,-2.021739131E-1,-2.142697558E0,-2.249295223E-1,2.163936322E0
5.754296167E0,-6.899232075E-1,-1.621039383E0,-4.470956504E-1,1.817596554E0
5.764242167E0,-1.104330291E0,-1.105143639E0,-1.216759969E0,1.980250660E0
5.774188167E0,-1.413251266E0,-1.159932634E0,-1.202326702E0,2.188221276E0
5.784134167E0,-1.282519510E0,-1.255073265E0,-1.209831018E0,2.164198763E0
5.794080167E0,-1.297959083E0,-1.257000507E0,-1.007365329E0,2.068703208E0
5.804026167E0,-1.548240963E0,-1.200909337E0,-6.285745132E-1,2.057751014E0
5.813971167E0,-1.779511206E0,-1.364015663E0,-3.873786217E-1,2.275359545E0
5.823917167E0,-1.327765557E0,-2.437731687E0,-3.376696873E-1,2.796340103E0
5.833863167E0,-2.229084322E-1,-2.394503807E0,-1.009092012E0,2.607988370E0
5.843809167E0,6.118941611E-1,-2.075056967E0,-5.587792236E-1,2.234392558E0
5.853755167E0,8.513417351E-1,-1.628042008E0,3.074802205E-1,1.862752699E0
5.863701167E0,7.898123619E-1,-1.098959624E0,-3.991835654E-2,1.353923667E0
5.873647167E0,4.078380293E-1,-5.442494774E-1,-5.768728477E-1,8.918080702E-1
5.883593167E0,1.983925188E-1,-8.727413750E-1,-7.615764499E-1,1.175174790E0
5.893538167E0,-2.624201149E-2,-1.638155937E0,-1.072608269E0,1.958247180E0
5.903484167E0,-1.992672622E-1,-1.749317354E0,-1.226827120E0,2.145908532E0
5.913430167E0,-9.321777374E-2,-1.644100217E0,-1.364430816E0,2.138557113E0
5.923376167E0,4.750412482E-1,-1.394540468E0,-1.298827687E0,1.964016463E0
5.933322167E0,1.213514472E0,-1.470736704E0,-1.070408254E0,2.186654444E0
5.943268167E0,1.983220598E0,-1.597103221E0,-9.729708374E-1,2.725908085E0
5.953214167E0,2.445019949E0,-1.878433231E0,-7.020348376E-1,3.162196526E0
5.963160167E0,2.861412455E0,-2.012239160E0,-2.262229264E-1,3.505419303E0
5.973105167E0,3.286794763E0,-1.779082605E0,-4.979874766E-1,3.770430513E0
5.983051167E0,2.895031899E0,-1.835575479E0,-9.112075755E-1,3.546948869E0
5.992997167E0,2.593590975E0,-2.015352218E0,-1.040542431E0,3.445444421E0
6.002943167E0,2.415908417E0,-1.883939554E0,-1.281176405E0,3.320731049E0
6.012889167E0,2.440002161E0,-1.718423005E0,-1.102767330E0,3.181616564E0
6.022835167E0,2.764290496E0,-1.875416653E0,-6.026830423E-1,3.394365392E0
6.032781167E0,2.997004124E0,-2.123987052E0,-3.924294466E-1,3.694232747E0
6.042727167E0,2.948174903E0,-1.877473118E0,-5.576898873E-2,3.495676007E0
6.052672167E0,2.784133899E0,-1.616468614E0,1.845737940E-1,3.224661197E0
6.062618167E0,2.463762322E0,-1.712195721E0,-3.232729653E-1,3.017655443E0
6.072564167E0,1.952094115E0,-1.909335181E0,-6.190828742E-1,2.799909976E0
6.082510167E0,1.620847009E0,-1.918229381E0,-6.240185089E-1,2.587691652E0
6.092456167E0,1.416364616E0,-1.857677370E0,-5.227097967E-1,2.393800214E0
6.102402167E0,1.263021093E0,-1.825832849E0,-5.209739046E-1,2.280416997E0
6.112348167E0,1.507690523E0,-2.052135297E0,-5.005685838E-1,2.595179935E0
6.122294167E0,1.453642662E0,-2.326773169E0,-6.371484317E-1,2.816541939E0
6.132239167E0,1.081441219E0,-1.903392071E0,-2.586463219E-1,2.204385267E0
6.142185167E0,9.684170258E-1,-1.467541786E0,-3.477236822E-2,1.758612961E0
6.152131167E0,8.658314279E-1,-1.125291975E0,-4.542339313E-1,1.490729537E0
6.162077167E0,5.904641157E-1,-1.125444002E0,-5.004741512E-1,1.365923296E0
6.172023167E0,1.016599837E-1,-1.125459205E0,-7.442448641E-1,1.353105167E0
6.181965958E0,-5.382224599E-1,-9.561840659E-1,-8.167222716E-1,1.367847452E0
6.191911958E0,-1.354532941E0,-7.755834550E-1,-9.508918972E-1,1.827699260E0
6.201857958E0,-1.850401095E0,-7.135140914E-1,-9.735181367E-1,2.209258729E0
6.211802958E0,-2.060132534E0,-7.396184009E-1,-1.021302899E0,2.415417365E0
6.221748958E0,-2.677154118E0,-8.797726518E-1,-9.171158946E-1,2.963487077E0
6.231694958E0,-3.274889832E0,-8.372552079E-1,-6.847225477E-1,3.448875854E0
6.241640958E0,-3.707735817E0,-9.002075011E-1,-6.699881490E-1,3.873830476E0
6.251586958E0,-4.464420194E0,-9.266953880E-1,-6.015242703E-1,4.599091591E0
6.261532958E0,-4.951919228E0,-7.987121165E-1,-2.469695784E-1,5.021995525E0
6.271478958E0,-5.361769284E0,-6.499168503E-1,-1.890900372E-1,5.404323899E0
6.281424958E0,-5.774131304E0,-4.519973713E-1,2.059493141E-1,5.795455897E0
6.291369958E0,-6.177238351E0,-4.636684138E-1,7.014295046E-1,6.234201264E0
6.301315958E0,-6.300328088E0,-5.586932695E-1,6.402009706E-1,6.357368124E0
6.311261958E0,-6.361233271E0,-3.087230462E-1,8.535964215E-1,6.425669264E0
6.321207958E0,-6.094148247E0,-5.769517851E-1,9.562453155E-1,6.195637282E0
6.331153958E0,-6.318082573E0,-9.570640719E-1,1.023549545E0,6.471614382E0
6.341099958E0,-5.961158590E0,-8.147165304E-1,8.498641437E-1,6.076301821E0
6.351045958E0,-5.613024141E0,-9.371133721E-1,9.626123486E-1,5.771554731E0
6.360991958E0,-5.107638767E0,-1.222821193E0,7.567981052E-1,5.306223592E0
6.370936958E0,-4.837859639E0,-1.319689091E0,6.980278869E-1,5.062974236E0
6.380882958E0,-4.323137723E0,-1.414412815E0,4.944380705E-1,4.575429203E0
6.390828958E0,-4.245786662E0,-1.498279429E0,4.658764686E-1,4.526431984E0
6.400774958E0,-3.839564218E0,-1.493406944E0,1.747719602E-1,4.123477043E0
6.410720958E0,-3.481718128E0,-1.470913290E0,7.697859406E-2,3.780459329E0
6.420666958E0,-3.111369522E0,-1.568752996E0,-1.146381712E-1,3.486366042E0
6.430612958E0,-2.795991468E0,-1.727903096E0,7.281259909E-2,3.287631225E0
6.440558958E0,-2.401560373E0,-1.934503936E0,1.526760632E-1,3.087573106E0
6.450503958E0,-1.978184537E0,-2.260451710E0,1.735051610E-1,3.008813726E0
6.460449958E0,-1.759384505E0,-2.538524821E0,2.455976754E-1,3.098364137E0
6.470395958E0,-1.465514264E0,-2.566470419E0,2.137812209E-1,2.963141050E0
6.480341958E0,-1.065362692E0,-2.520435290E0,-1.737973756E-1,2.741860180E0
6.490287958E0,-6.166859543E-1,-2.452977133E0,-3.021004897E-1,2.547285435E0
6.500233958E0,2.190761670E-1,-2.659023657E0,9.020104900E-2,2.669557530E0
6.510179958E0,9.900461689E-1,-2.810259551E0,1.337146392E-1,2.982554235E0
6.520124958E0,1.654183740E0,-2.770587362E0,1.040384848E-1,3.228513928E0
6.530070958E0,2.809275464E0,-2.491893277E0,9.993819796E-2,3.756534091E0
6.540016958E0,3.742442551E0,-2.307869706E0,2.832630998E-1,4.405947890E0
6.549962958E0,3.995531679E0,-2.225704631E0,5.780773010E-1,4.610011699E0
6.559908958E0,4.234539542E0,-2.237600791E0,5.006747838E-1,4.815481043E0
6.569854958E0,4.414759499E0,-2.266984220E0,4.883002482E-2,4.963033675E0
6.579800958E0,4.260629234E0,-2.055648889E0,-3.453768291E-1,4.743199234E0
6.589746958E0,4.210623261E0,-1.986024923E0,-6.564902902E-1,4.701555353E0
6.599691958E0,4.498791590E0,-2.135908356E0,-7.099589843E-1,5.030434577E0
6.609637958E0,4.882542014E0,-2.288968581E0,-7.078224117E-1,5.438713658E0
6.619583958E0,5.249556538E0,-2.318007608E0,-7.266457683E-1,5.784376992E0
6.629529958E0,5.660435704E0,-2.266815235E0,-5.745316225E-1,6.124464895E0
6.639475958E0,5.903109187E0,-2.376631792E0,-4.112043444E-1,6.376846067E0
6.649421958E0,6.210454629E0,-2.397577103E0,-4.150442109E-1,6.670111271E0
6.659367958E0,6.322589023E0,-2.523729027E0,-3.773173177E-1,6.818116199E0
6.669313958E0,6.216809383E0,-2.357148285E0,-2.061448304E-1,6.651869108E0
6.679258958E0,5.677642305E0,-2.232117857E0,-2.379001815E-2,6.100699816E0
6.689204958E0,5.053732116E0,-2.206305909E0,-1.283013966E-1,5.515836774E0
6.699150958E0,4.485311419E0,-2.068223911E0,-1.255198395E-1,4.940781709E0
6.709096958E0,4.118273799E0,-1.995828364E0,-2.646098971E-2,4.576484472E0
6.719042958E0,4.003162295E0,-2.068295832E0,8.821072988E-3,4.505910987E0
6.728988958E0,4.080974702E0,-2.095802304E0,2.166943038E-1,4.592787632E0
6.738934958E0,3.942247757E0,-2.131933419E0,5.935379970E-1,4.520923006E0
6.748880958E0,3.307996767E0,-2.107015509E0,8.420639580E-1,4.011412304E0
6.758825958E0,2.913306786E0,-2.152002232E0,7.022429985E-1,3.689392263E0
6.768771958E0,2.572840376E0,-2.231740127E0,3.065595033E-1,3.419671084E0
6.778717958E0,2.178776633E0,-2.258649014E0,3.431502460E-1,3.156947113E0
6.788663958E0,1.856399168E0,-2.108617061E0,6.686150765E-1,2.887824424E0
6.798609958E0,1.575990387E0,-1.930276984E0,6.953701812E-1,2.587132510E0
6.808555958E0,1.454255596E0,-1.945469220E0,6.015200311E-1,2.502306171E0
6.818501958E0,9.478107069E-1,-1.944492150E0,6.415588403E-1,2.256322806E0
6.828446958E0,4.399815624E-1,-2.031723252E0,3.693527887E-1,2.111375057E0
6.838392958E0,2.592655420E-2,-2.056937615E0,2.552712359E-1,2.072879143E0
6.848338958E0,-6.082975388E-1,-1.893827780E0,-4.417512953E-2,1.989613279E0
6.858284958E0,-1.098181359E0,-1.648739982E0,-2.799015355E-1,2.000672561E0
6.868230958E0,-1.480584293E0,-1.712076437E0,6.549996156E-2,2.264426157E0
6.878176958E0,-1.991851088E0,-1.643855803E0,7.096824110E-2,2.583557460E0
6.888122958E0,-2.588051030E0,-1.495617192E0,5.064414175E-1,3.031725883E0
6.898068958E0,-3.209803305E0,-1.293729792E0,8.219267321E-1,3.556984338E0
6.908013958E0,-3.834066081E0,-1.149780114E0,5.233269338E-1,4.036821535E0
6.917959958E0,-4.659773623E0,-1.068428387E0,1.894287372E-1,4.784444866E0
6.927905958E0,-5.383448421E0,-1.015801692E0,-5.925677978E-2,5.478766407E0
6.937851958E0,-5.701228804E0,-1.137559433E0,-2.034117687E-1,5.817166637E0
6.947797958E0,-5.750215023E0,-1.340999268E0,-1.077641845E-2,5.904520978E0
6.957743958E0,-5.598555790E0,-1.444810150E0,2.776269686E-1,5.788642331E0
6.967689958E0,-5.430558268E0,-1.384723577E0,5.549533173E-1,5.631731143E0
6.977635958E0,-5.211004091E0,-1.244044831E0,4.561950143E-1,5.376832252E0
6.987580958E0,-5.127464921E0,-1.188377584E0,2.195519111E-1,5.267954142E0
6.997526958E0,-4.967228993E0,-1.413078480E0,1.071116352E-1,5.165426174E0
7.007472958E0,-4.753681953E0,-1.618861880E0,1.610334885E-1,5.024354454E0
7.017418958E0,-4.552820155E0,-1.540638413E0,1.951256794E-1,4.810385859E0
7.027364958E0,-4.358876490E0,-1.291827693E0,5.054917932E-2,4.546556748E0
7.037310958E0,-4.192159800E0,-1.130824025E0,-5.376931407E-2,4.342333233E0
7.047256958E0,-4.329687189E0,-1.024358507E0,-1.795049158E-1,4.452833202E0
7.057202958E0,-4.408204186E0,-8.468025416E-1,-1.511914551E-1,4.491346963E0
7.067147958E0,-4.239931552E0,-7.418111068E-1,8.373139724E-3,4.304343550E0
7.077093958E0,-4.011321792E0,-7.586113268E-1,1.435526526E-1,4.084948106E0
7.087039958E0,-3.594198969E0,-8.780570787E-1,2.802781693E-1,3.710499470E0
7.096985958E0,-3.310742911E0,-1.022841155E0,1.392322180E-1,3.467940061E0
7.106931958E0,-3.137826711E0,-1.139459778E0,1.007429210E-1,3.339831462E0
7.116877958E0,-2.874935603E0,-1.261181266E0,3.134885269E-1,3.155013148E0
7.126823958E0,-2.563173467E0,-1.437696428E0,4.408817413E-1,2.971734502E0
7.136768958E0,-2.337522836E0,-1.620713693E0,7.245161393E-1,2.935242668E0
7.146714958E0,-2.074804806E0,-1.711742561E0,9.570132011E-1,2.854952162E0
7.156660958E0,-1.805916940E0,-1.866014915E0,9.595052844E-1,2.768392683E0
7.166606958E0,-1.536602519E0,-2.077532094E0,1.023734683E0,2.779445916E0
7.176552417E0,-1.065807519E0,-2.243960808E0,1.068959241E0,2.704437027E0
7.186498417E0,-7.737190703E-1,-2.422195051E0,9.569780447E-1,2.716887381E0
7.196444417E0,-4.070790607E-1,-2.656732133E0,4.538473573E-1,2.725787301E0
7.206390417E0,2.237831756E-1,-2.849089156E0,-5.261733949E-1,2.905898548E0
7.216335417E0,1.251148321E0,-2.850822855E0,-1.370953385E0,3.401775457E0
7.226281417E0,2.592385571E0,-2.929510006E0,-1.217335335E0,4.096876510E0
7.236227417E0,3.998977735E0,-2.816861057E0,-7.490541259E-1,4.948495855E0
7.246173417E0,5.133674079E0,-2.596226315E0,-4.194858290E-1,5.768099253E0
7.256119417E0,5.591083633E0,-2.643247284E0,-1.362737462E-2,6.184428681E0
7.266065417E0,5.760728316E0,-2.234247998E0,6.012399495E-2,6.179115612E0
7.276011417E0,5.490029129E0,-1.900830406E0,-2.917405392E-1,5.817103111E0
7.285956417E0,5.176268706E0,-1.784550337E0,-3.969015433E-1,5.489618243E0
7.295902417E0,4.810059929E0,-1.837689832E0,-2.597404821E-1,5.155700298E0
7.305848417E0,4.536719262E0,-1.756219992E0,-4.135092437E-2,4.864960454E0
7.315794417E0,4.617736235E0,-1.535451348E0,4.180841053E-1,4.884249492E0
7.325740417E0,4.832446286E0,-1.371458584E0,7.346371579E-1,5.076724093E0
7.335686417E0,5.107319509E0,-1.214984170E0,9.886117007E-1,5.342120571E0
7.345632417E0,5.360095811E0,-1.004897804E0,1.236901434E0,5.591991761E0
7.355578417E0,5.290768883E0,-9.019587421E-1,1.217902661E0,5.503549022E0
7.365523417E0,4.861437951E0,-9.772738034E-1,1.016171382E0,5.061743506E0
7.375469417E0,4.121108236E0,-9.497135371E-1,7.426131986E-1,4.293828509E0
7.385415417E0,3.644584134E0,-8.776009959E-1,4.912640557E-1,3.780809092E0
7.395361417E0,3.338665997E0,-9.298014289E-1,3.401670331E-1,3.482374901E0
7.405307417E0,3.299941350E0,-1.084201836E0,3.264361627E-1,3.488791639E0
7.415253417E0,3.320515071E0,-1.073342972E0,6.566038723E-1,3.550917362E0
7.425199417E0,3.212849704E0,-9.485628051E-1,1.006651969E0,3.497931218E0
7.435145417E0,3.088705130E0,-1.033203006E0,1.061353841E0,3.425504314E0
7.445090417E0,2.884558366E0,-1.140507599E0,1.146344875E0,3.306892971E0
7.455036417E0,2.670167865E0,-1.114988011E0,1.316104748E0,3.178856146E0
7.464982417E0,2.339512059E0,-1.086216787E0,1.242173138E0,2.862896730E0
7.474928417E0,2.087354246E0,-1.122807493E0,1.120646946E0,2.621753992E0
7.484874417E0,2.061182840E0,-1.215825584E0,1.128755280E0,2.645901554E0
7.494820417E0,1.876660355E0,-1.165329030E0,1.291483292E0,2.558862038E0
7.504766417E0,1.746319194E0,-1.174702116E0,1.270801544E0,2.458554932E0
7.514711417E0,1.304377864E0,-1.469063231E0,8.173125480E-1,2.127803607E0
7.524657417E0,5.762511425E-1,-1.583429507E0,5.693315475E-1,1.778609792E0
7.534603417E0,5.468696147E-2,-1.466122667E0,1.832627021E-2,1.467256688E0
7.544549417E0,-1.087266362E-1,-1.451348507E0,-4.613874149E-1,1.526798060E0
7.554495417E0,-3.765229735E-1,-1.304937735E0,-2.947639152E-1,1.389790563E0
7.564441417E0,-8.481804380E-1,-1.085614523E0,-1.169180006E-1,1.382620254E0
7.574387417E0,-1.075834178E0,-8.963910234E-1,7.575477183E-2,1.402381842E0
7.584333417E0,-1.344257337E0,-8.200176162E-1,2.446211904E-1,1.593516930E0
7.594278417E0,-1.824813679E0,-9.705810803E-1,2.275525832E-1,2.079363550E0
7.604224417E0,-2.269519572E0,-1.111425887E0,1.529795337E-1,2.531677177E0
7.614170417E0,-2.824251353E0,-9.956328911E-1,1.687991756E-1,2.999362219E0
7.624116417E0,-3.389664243E0,-9.933951616E-1,1.475352643E-1,3.535311059E0
7.634062417E0,-3.809079174E0,-1.212690307E0,1.438175315E-1,4.000048177E0
7.644008417E0,-4.078638740E0,-1.336483464E0,-1.328026928E-2,4.292045944E0
7.653954417E0,-4.279267234E0,-1.390321702E0,-2.808839408E-1,4.508216752E0
7.663899417E0,-4.598767283E0,-1.461267139E0,-4.254054040E-1,4.844061512E0
7.673845417E0,-4.754058221E0,-1.417790167E0,-4.831859080E-1,4.984442511E0
7.683791417E0,-4.706323891E0,-1.405998087E0,-6.060370783E-1,4.949100538E0
7.693737417E0,-4.627711585E0,-1.551990198E0,-6.010137353E-1,4.917886294E0
7.703683417E0,-4.424098088E0,-1.628061889E0,-4.266467679E-1,4.733419152E0
7.713629417E0,-4.310829919E0,-1.587986827E0,-1.258718419E-1,4.595737207E0
7.723575417E0,-4.324372948E0,-1.446146239E0,-5.105956815E-2,4.560060023E0
7.733521417E0,-4.390440345E0,-1.252880559E0,-1.342198386E-1,4.567678960E0
7.743466417E0,-4.516304001E0,-1.112031074E0,-9.834073864E-2,4.652234499E0
7.753412417E0,-4.576509564E0,-9.907802868E-1,3.944531679E-3,4.682531466E0
7.763358417E0,-4.514646607E0,-8.382498193E-1,1.193831867E-1,4.593359239E0
7.773304417E0,-4.264248953E0,-7.663191265E-1,2.157973409E-1,4.337929532E0
7.783250417E0,-3.896085743E0,-8.266226310E-1,3.454721387E-1,3.997766888E0
7.793196417E0,-3.704262864E0,-8.873003572E-1,3.027917037E-1,3.821066357E0
7.803142417E0,-3.580336975E0,-8.426282144E-1,1.768198013E-2,3.678198991E0
7.813088417E0,-3.408401061E0,-8.493665457E-1,-1.025684217E-1,3.514134545E0
7.823033417E0,-3.193939224E0,-8.918114841E-1,5.643622912E-2,3.316588690E0
7.832979417E0,-2.888649078E0,-1.023696603E0,2.802629665E-1,3.077465769E0
7.842925417E0,-2.472864683E0,-1.102677868E0,7.465040090E-1,2.808598664E0
7.852871417E0,-2.015028720E0,-1.161508459E0,1.094784127E0,2.570602056E0
7.862817417E0,-1.733605739E0,-1.320108336E0,1.216136656E0,2.495408432E0
7.872763417E0,-1.520396815E0,-1.532610186E0,1.312623315E0,2.526555051E0
7.882709417E0,-1.368878939E0,-1.728004838E0,1.219577815E0,2.519365062E0
7.892654417E0,-1.288350792E0,-1.889090366E0,1.035872333E0,2.510287168E0
7.902600417E0,-1.376400358E0,-2.062837456E0,6.159750060E-1,2.555230229E0
7.912546417E0,-1.407102334E0,-2.141944436E0,3.025249245E-1,2.580578283E0
7.922492417E0,-1.003867525E0,-2.224031158E0,9.302273255E-2,2.441867693E0
7.932438417E0,-3.270423728E-1,-2.426179343E0,-1.416868061E-1,2.452219010E0
7.942384417E0,4.058257100E-1,-2.593705580E0,-6.358021103E-2,2.626032290E0
7.952330417E0,1.282956882E0,-2.524680954E0,1.549909759E-1,2.836197187E0
7.962276417E0,2.219303392E0,-2.345853218E0,-2.974997543E-2,3.229430279E0
7.972221417E0,2.901688369E0,-2.148673412E0,-2.323187218E-1,3.618088558E0
7.982167417E0,3.361157312E0,-1.916781026E0,-3.027262149E-1,3.881117254E0
7.992113417E0,3.743418451E0,-1.790513912E0,-3.712959281E-1,4.166171196E0
8.002059417E0,4.132567025E0,-1.797434676E0,-6.711993997E-1,4.556247388E0
8.012005417E0,4.412613571E0,-1.903382131E0,-8.680735427E-1,4.883397766E0
8.021951417E0,4.642299803E0,-1.990923720E0,-7.918176645E-1,5.112895455E0
8.031897417E0,4.935179234E0,-1.988561445E0,-7.129751243E-1,5.368305526E0
8.041842417E0,5.166216173E0,-1.900080208E0,-2.550695801E-1,5.510458677E0
8.051788417E0,5.466606937E0,-1.513048326E0,5.751518659E-1,5.701219721E0
8.061734417E0,5.498674822E0,-1.359863555E0,8.858905935E-1,5.733188976E0
8.071680417E0,5.322443250E0,-1.547485503E0,6.188399224E-1,5.577282168E0
8.081626417E0,5.091523256E0,-1.506769586E0,4.040385085E-1,5.325148896E0
8.091572417E0,4.632319191E0,-1.584778460E0,4.602606565E-1,4.917493643E0
8.101518417E0,4.315189018E0,-1.509010824E0,5.131003363E-1,4.600134986E0
8.111464417E0,4.447203653E0,-1.273780262E0,6.152085091E-1,4.666756689E0
8.121409417E0,4.511687331E0,-1.182925640E0,8.478164488E-1,4.740614768E0
8.131355417E0,4.180062788E0,-1.117604640E0,1.082034858E0,4.460130545E0
8.141301417E0,3.868672827E0,-1.116296033E0,1.007507417E0,4.150640610E0
8.151247417E0,3.488273442E0,-1.153618226E0,8.786552489E-1,3.777687343E0
8.161193417E0,2.825021724E0,-1.083266866E0,9.877525985E-1,3.182745676E0
8.171139417E0,2.289063306E0,-9.812499100E-1,9.272152054E-1,2.657515803E0
8.181085833E0,1.993787102E0,-1.042625209E0,8.286527842E-1,2.397690507E0
8.191030833E0,1.953079663E0,-1.246837462E0,9.265199715E-1,2.495508582E0
8.200976833E0,2.011707356E0,-1.453399125E0,1.074078990E0,2.704252425E0
8.210922833E0,1.818422380E0,-1.535467136E0,9.858727187E-1,2.576094776E0
8.220868833E0,1.602685996E0,-1.538076748E0,9.590358992E-1,2.419510765E0
8.230814833E0,1.461252082E0,-1.638043086E0,8.510933746E-1,2.354315767E0
8.240760833E0,1.189509532E0,-1.626534596E0,5.637904336E-1,2.092464426E0
8.250706833E0,8.887145063E-1,-1.648202623E0,4.022229481E-1,1.915246371E0
8.260651833E0,5.239537919E-1,-1.657878011E0,3.256267619E-1,1.768931842E0
8.270597833E0,1.246563520E-1,-1.568143131E0,3.395302713E-1,1.609314416E0
8.280543833E0,-1.108572154E-1,-1.505380288E0,3.276013666E-1,1.544597614E0
8.290489833E0,-4.955006558E-1,-1.486556931E0,1.144779575E-1,1.571138954E0
8.300435833E0,-1.098854228E0,-1.413439254E0,-1.512149171E-1,1.796707291E0
8.310381833E0,-1.553374234E0,-1.322150184E0,-3.805595988E-1,2.075061018E0
8.320327833E0,-1.746797496E0,-1.244534828E0,-5.027471832E-1,2.202935124E0
8.330273833E0,-1.819827173E0,-1.224508114E0,-4.408340134E-1,2.237303218E0
8.340218833E0,-1.602870330E0,-1.274571390E0,-2.667780447E-1,2.065162475E0
8.350164833E0,-1.525859284E0,-1.387895107E0,7.143324092E-2,2.063880348E0
8.360110833E0,-1.690383560E0,-1.416478636E0,3.243649328E-1,2.229130080E0
8.370056833E0,-2.047635572E0,-1.172317037E0,3.799192556E-1,2.389869727E0
8.380002833E0,-2.562815032E0,-9.148389888E-1,4.230073877E-1,2.753885712E0
8.389948833E0,-3.252890267E0,-8.354145044E-1,2.595016234E-1,3.368464573E0
8.399894833E0,-4.023305661E0,-7.050841606E-1,7.024961829E-2,4.085225468E0
8.409840833E0,-4.570601538E0,-5.124353617E-1,-2.696830145E-1,4.607137652E0
8.419785833E0,-4.891359908E0,-3.840211505E-1,-5.449254886E-1,4.936579563E0
8.429731833E0,-5.054128557E0,-3.971194983E-1,-5.980469312E-1,5.104858421E0
8.439677833E0,-5.138794486E0,-5.429882330E-1,-6.049698883E-1,5.202694836E0
8.449623833E0,-4.961210454E0,-6.625421584E-1,-6.556184703E-1,5.048010188E0
8.459569833E0,-4.563480798E0,-6.650634778E-1,-5.467706506E-1,4.643988003E0
8.469515833E0,-4.091098279E0,-6.562710196E-1,-3.304318576E-1,4.156556507E0
8.479461833E0,-3.779563307E0,-6.384288257E-1,-6.714365043E-2,3.833692531E0
8.489407833E0,-3.586864514E0,-6.876951259E-1,2.033614826E-1,3.657851490E0
8.499352833E0,-3.391593824E0,-6.992767060E-1,2.506255500E-1,3.471989307E0
8.509298833E0,-3.222466912E0,-6.805235159E-1,2.995252298E-1,3.307131781E0
8.519244833E0,-3.047221473E0,-6.755539674E-1,3.173177223E-1,3.137295397E0
8.529190833E0,-3.078834445E0,-6.203673613E-1,2.304352605E-1,3.149155063E0
8.539136833E0,-3.359342921E0,-4.592525965E-1,2.229951172E-1,3.397914748E0
8.549082833E0,-3.484378319E0,-3.282632715E-1,2.343954335E-1,3.507647397E0
8.559028833E0,-3.402172607E0,-3.109496659E-1,1.923802654E-1,3.421765379E0
8.568973833E0,-3.126347165E0,-4.662926441E-1,1.795299858E-1,3.166023759E0
8.578919833E0,-2.882415654E0,-7.227328116E-1,2.987171446E-1,2.986619268E0
8.588865833E0,-2.708165411E0,-8.530555540E-1,7.838894248E-1,2.945563835E0
8.598811833E0,-2.439342303E0,-1.066918636E0,1.140964267E0,2.896636965E0
8.608757833E0,-2.027281561E0,-1.344904624E0,1.251606889E0,2.735901822E0
8.618703833E0,-1.683192800E0,-1.667717121E0,1.354602816E0,2.729352888E0
8.628649833E0,-1.559819766E0,-1.960067963E0,1.225032756E0,2.788477967E0
8.638594833E0,-1.644062794E0,-2.051542389E0,1.148776001E0,2.869051228E0
8.648540833E0,-1.491965898E0,-2.038797213E0,1.105796773E0,2.757796733E0
8.658486833E0,-1.321726553E0,-2.205244054E0,1.045295048E0,2.775374598E0
8.668432833E0,-9.677799717E-1,-2.380692683E0,1.067557152E0,2.782799669E0
8.678378833E0,-7.027774340E-1,-2.378823329E0,8.052463069E-1,2.607895352E0
8.688324833E0,-4.487258542E-1,-2.332391174E0,2.864094134E-1,2.392369920E0
8.698270833E0,1.281031394E-1,-2.494319286E0,-1.073168725E-1,2.499911204E0
8.708216833E0,8.211730260E-1,-2.584393889E0,-4.582929953E-1,2.750172610E0
8.718161833E0,1.816459762E0,-2.317247470E0,-5.423310790E-1,2.993874564E0
8.728107833E0,2.981692312E0,-2.032234883E0,-3.756233793E-1,3.627886518E0
8.738053833E0,3.883911840E0,-1.916135493E0,-1.802240503E-1,4.334608070E0
8.747999833E0,4.814242442E0,-1.824472786E0,4.292890515E-1,5.166228831E0
8.757945833E0,5.649909546E0,-1.690777954E0,7.190664612E-1,5.941150103E0
8.767891833E0,5.789097252E0,-1.537291467E0,3.537927997E-1,6.000173447E0
8.777837833E0,5.504612669E0,-1.490885625E0,2.053795029E-1,5.706634851E0
8.787782833E0,5.474898289E0,-1.567682955E0,3.246824366E-1,5.704170387E0
8.797728833E0,5.509091637E0,-1.527569886E0,2.105639367E-1,5.720830149E0
8.807674833E0,5.465476670E0,-1.490776282E0,1.911032335E-1,5.668365691E0
8.817620833E0,5.581993552E0,-1.516209331E0,1.689781004E-1,5.786717234E0
8.827566833E0,5.571308935E0,-1.567368960E0,-1.995947063E-2,5.787618429E0
8.837512833E0,5.230337909E0,-1.544532074E0,1.282310472E-1,5.455131270E0
8.847458833E0,4.884059367E0,-1.512840750E0,1.886094692E-1,5.116473059E0
8.857403833E0,4.596382204E0,-1.598338737E0,3.696083486E-2,4.866495884E0
8.867349833E0,4.210696059E0,-1.550260007E0,8.677326500E-2,4.487849929E0
8.877295833E0,3.971218664E0,-1.513188660E0,2.275677129E-1,4.255831841E0
8.887241833E0,3.643865804E0,-1.420957019E0,4.297756860E-1,3.934664406E0
8.897187833E0,3.122901693E0,-1.296256959E0,6.506307954E-1,3.443271340E0
8.907133833E0,2.675039765E0,-1.303975868E0,6.642355120E-1,3.049163758E0
8.917079833E0,2.220647667E0,-1.342328925E0,6.444081885E-1,2.673646371E0
8.927025833E0,2.138705956E0,-1.420489826E0,6.711977917E-1,2.653744710E0
8.936970833E0,2.219183816E0,-1.441807020E0,8.413978871E-1,2.776965016E0
8.946916833E0,1.963924494E0,-1.348663799E0,1.062916217E0,2.608770658E0
8.956862833E0,1.813848688E0,-1.367271978E0,1.168797525E0,2.554519011E0
8.966808833E0,1.732458808E0,-1.527121405E0,9.614611781E-1,2.501583679E0
8.976754833E0,1.555844829E0,-1.641897570E0,9.604121876E-1,2.457411714E0
8.986700833E0,1.258010175E0,-1.645076117E0,8.903496802E-1,2.254237695E0
8.996646833E0,9.132438684E-1,-1.624331365E0,5.971620647E-1,1.956800776E0
9.006591833E0,6.303272161E-1,-1.656645418E0,3.949869091E-1,1.815984884E0
9.016537833E0,3.800393793E-1,-1.787110832E0,2.617803929E-1,1.845731300E0
9.026483833E0,2.535671380E-1,-1.844440443E0,1.770373178E-1,1.870186903E0
9.036429833E0,4.997322857E-3,-1.829409006E0,4.330155551E-1,1.879964030E0
9.046375833E0,-4.157661228E-1,-1.749403308E0,6.495560771E-1,1.911856820E0
9.056321833E0,-7.764777866E-1,-1.648201454E0,7.025324357E-1,1.952700081E0
9.066267833E0,-1.194564815E0,-1.452648343E0,3.005942104E-1,1.904607357E0
9.076213833E0,-1.440490520E0,-1.176507152E0,-8.620085914E-2,1.861884154E0
9.086158833E0,-1.595547569E0,-8.295813221E-1,-1.451045036E-1,1.804170871E0
9.096104833E0,-1.748848700E0,-6.372184521E-1,-6.476894997E-2,1.862448428E0
9.106050833E0,-2.012408144E0,-6.873688513E-1,3.003787771E-3,2.126563307E0
9.115996833E0,-2.297856349E0,-8.335656148E-1,6.457840383E-2,2.445229193E0
9.125942833E0,-2.594877362E0,-8.866758746E-1,1.451242380E-3,2.742186124E0
9.135888833E0,-2.807183623E0,-9.306504446E-1,-1.259116395E-1,2.960108762E0
9.145834833E0,-3.036672219E0,-1.104412737E0,-1.810274577E-1,3.236336911E0
9.155779833E0,-3.250671541E0,-9.716967291E-1,-6.904743075E-2,3.393497834E0
9.165725833E0,-3.588357893E0,-6.065585768E-1,2.253641166E-2,3.639331473E0
9.175671833E0,-3.941208122E0,-7.755279064E-1,-1.017825560E-1,4.018074748E0
9.185618167E0,-4.096770663E0,-9.295049751E-1,-1.222927612E-1,4.202673540E0
9.195564167E0,-4.129582606E0,-8.413611227E-1,-2.511390817E-1,4.221896716E0
9.205510167E0,-4.019320783E0,-7.469057858E-1,-4.266963961E-1,4.110337897E0
9.215456167E0,-4.020391993E0,-7.336671048E-1,-3.972195222E-1,4.106044635E0
9.225402167E0,-4.005247120E0,-7.251342630E-1,-3.903578146E-1,4.089034533E0
9.235347167E0,-3.884433704E0,-7.144923306E-1,-3.524561262E-1,3.965293156E0
9.245293167E0,-3.743175207E0,-7.476039433E-1,-1.811718839E-1,3.821399683E0
9.255239167E0,-3.612221550E0,-7.958007878E-1,-1.512774092E-1,3.701935747E0
9.265185167E0,-3.497056252E0,-8.175354731E-1,-1.300409798E-1,3.593699673E0
9.275131167E0,-3.424324198E0,-8.334551024E-1,-1.196719661E-1,3.526324574E0
9.285077167E0,-3.368435049E0,-8.191200686E-1,-1.217905585E-1,3.468738288E0
9.295023167E0,-3.307976009E0,-7.266539544E-1,-9.526524939E-2,3.388186346E0
9.304968167E0,-3.248344350E0,-6.310473007E-1,-5.626256682E-2,3.309550904E0
9.314914167E0,-3.222980882E0,-6.095792484E-1,3.293502688E-2,3.280286168E0
9.324860167E0,-3.123002850E0,-6.673070544E-1,7.872208759E-2,3.194470641E0
9.334806167E0,-3.102412173E0,-6.917671269E-1,9.381499372E-2,3.179984953E0
9.344752167E0,-2.934355593E0,-7.711471725E-1,5.613670550E-2,3.034511829E0
9.354698167E0,-2.690193994E0,-8.380983764E-1,1.033477094E-1,2.819615818E0
9.364644167E0,-2.284020959E0,-9.704489332E-1,6.028993162E-1,2.553822715E0
9.374589167E0,-2.035330984E0,-1.270773039E0,1.034018619E0,2.612782202E0
9.384535167E0,-1.794768492E0,-1.515786577E0,1.226601418E0,2.650161113E0
9.394481167E0,-1.615842378E0,-1.675716112E0,1.198683887E0,2.618360964E0
9.404427167E0,-1.582302749E0,-1.763751791E0,1.134896538E0,2.627259507E0
9.414373167E0,-1.540022848E0,-1.932982491E0,8.423416277E-1,2.611059382E0
9.424319167E0,-1.538337826E0,-2.147836091E0,5.393419093E-1,2.696399977E0
9.434265167E0,-1.501710429E0,-2.251341164E0,4.695407724E-1,2.746659750E0
9.444211167E0,-1.204287858E0,-2.239435063E0,2.840858030E-1,2.558531491E0
9.454156167E0,-5.927898458E-1,-2.211209384E0,-6.501043998E-2,2.290212457E0
9.464102167E0,1.789426330E-1,-2.336032235E0,-2.119036069E-1,2.352439204E0
9.474048167E0,1.258802034E0,-2.518562427E0,-3.528946674E-1,2.837652887E0
9.483994167E0,2.746347145E0,-2.526383663E0,-5.984981900E-1,3.779317020E0
9.493940167E0,4.197277283E0,-2.178171446E0,-3.132628244E-1,4.739166703E0
9.503886167E0,5.268067653E0,-1.842549453E0,9.386009037E-2,5.581786005E0
9.513832167E0,5.818972431E0,-2.003508682E0,2.957795765E-1,6.161328814E0
9.523777167E0,5.945827190E0,-2.215073808E0,6.897432594E-1,6.382410103E0
9.533723167E0,5.522949538E0,-1.972610825E0,6.230347880E-1,5.897655247E0
9.543669167E0,5.030705781E0,-1.534033399E0,2.707950819E-1,5.266363935E0
9.553615167E0,4.650632086E0,-1.424524405E0,2.665453255E-2,4.863985921E0
9.563561167E0,4.569618913E0,-1.523292648E0,1.991045634E-1,4.820941830E0
9.573507167E0,4.723476698E0,-1.526737828E0,7.122885150E-1,5.014929256E0
9.583453167E0,5.132337406E0,-1.392162405E0,1.137077622E0,5.438009648E0
9.593398167E0,5.504298674E0,-1.232319410E0,1.339696070E0,5.797473638E0
9.603344167E0,5.493862563E0,-1.235686821E0,1.498906251E0,5.827192097E0
9.613290167E0,5.203971645E0,-1.357700086E0,1.298784710E0,5.532767131E0
9.623236167E0,4.701472164E0,-1.378751816E0,7.763750218E-1,4.960600292E0
9.633182167E0,4.147872404E0,-1.267198051E0,3.576085465E-1,4.351841019E0
9.643128167E0,3.635618306E0,-1.312026315E0,1.257436417E-1,3.867162394E0
9.653074167E0,3.069439723E0,-1.329308930E0,1.520346236E-1,3.348378260E0
9.663019167E0,2.674599762E0,-1.261091804E0,2.596146208E-1,2.968372648E0
9.672965167E0,2.477229044E0,-1.329421197E0,5.148391521E-1,2.858160914E0
9.682911167E0,2.305896855E0,-1.381954921E0,7.130211711E-1,2.781251319E0
9.692857167E0,2.179743031E0,-1.446459065E0,9.145307674E-1,2.771261452E0
9.702803167E0,1.941895109E0,-1.427153313E0,9.806517398E-1,2.601807262E0
9.712749167E0,1.915137227E0,-1.426996023E0,1.028653214E0,2.600422213E0
9.722695167E0,1.745398989E0,-1.456109310E0,1.227588428E0,2.583339950E0
9.732641167E0,1.667049369E0,-1.500417171E0,1.213182058E0,2.549924703E0
9.742586167E0,1.480443960E0,-1.522039590E0,1.118479968E0,2.399857552E0
9.752532167E0,9.394015338E-1,-1.350502748E0,9.970140034E-1,1.923634538E0
9.762478167E0,4.597187658E-1,-1.236691373E0,6.709720892E-1,1.480185948E0
9.772424167E0,1.747638472E-1,-1.295661712E0,4.108750000E-1,1.370437865E0
9.782370167E0,8.444198012E-2,-1.287448128E0,3.477736759E-1,1.336263320E0
9.792316167E0,-6.477720916E-2,-1.312713363E0,2.141262797E-1,1.331639036E0
9.802262167E0,-5.528983864E-1,-1.356668052E0,8.540326238E-2,1.467493968E0
9.812207167E0,-8.417493778E-1,-1.247044453E0,-1.127378992E-1,1.508764964E0
9.822153167E0,-1.007797731E0,-1.089254415E0,-2.923881184E-1,1.512488763E0
9.832099167E0,-1.294369478E0,-9.459146011E-1,-1.301414788E-1,1.608441352E0
9.842045167E0,-1.447288493E0,-8.759450644E-1,8.201597035E-2,1.693709053E0
9.851991167E0,-1.767478513E0,-1.107654433E0,6.990521729E-2,2.087047047E0
9.861937167E0,-2.245198956E0,-1.360747070E0,2.315672084E-1,2.635559582E0
9.871883167E0,-2.798437065E0,-1.419054335E0,2.428126466E-1,3.147049920E0
9.881828167E0,-3.286155077E0,-1.339608800E0,1.080740869E-2,3.548729876E0
9.891774167E0,-3.697024888E0,-1.101710154E0,-2.124854779E-1,3.863535733E0
9.901720167E0,-3.929267523E0,-8.175477523E-1,-3.914195593E-1,4.032460398E0
9.911666167E0,-4.098471910E0,-8.163748008E-1,-3.564614689E-1,4.194163158E0
9.921612167E0,-4.113912360E0,-7.667810565E-1,-2.955475882E-1,4.195184915E0
9.931558167E0,-4.015494073E0,-6.559722269E-1,-2.238132157E-1,4.074872338E0
9.941504167E0,-3.991740344E0,-5.808752668E-1,-1.357939821E-1,4.036068267E0
9.951450167E0,-3.966081008E0,-5.342133164E-1,-1.088119324E-1,4.003376383E0
9.961395167E0,-3.981303941E0,-5.899782121E-1,-2.973590191E-1,4.035749961E0
9.971341167E0,-4.093579545E0,-7.098180664E-1,-3.766162366E-1,4.171699290E0
9.981287167E0,-3.941313664E0,-7.467999512E-1,-2.229274722E-1,4.017631171E0
9.991233167E0,-3.649399901E0,-7.199565536E-1,-9.038340904E-2,3.720836766E0
1.000117917E1,-3.468896939E0,-6.871361321E-1,1.304045304E-1,3.538701369E0
1.001112517E1,-3.374105387E0,-6.212403506E-1,3.155619496E-1,3.445302030E0
1.002107117E1,-3.331537657E0,-5.214418280E-1,3.153204596E-1,3.386808487E0
1.003101617E1,-3.316973997E0,-4.302451444E-1,3.162665391E-1,3.359680328E0
1.004096217E1,-3.214552706E0,-3.135142547E-1,3.103566121E-1,3.244682036E0
1.005090817E1,-3.014141436E0,-2.775404298E-1,3.000462898E-1,3.041727315E0
1.006085417E1,-2.849624761E0,-2.718341321E-1,3.097982761E-1,2.879275958E0
1.007080017E1,-2.715107226E0,-2.303522301E-1,1.699170902E-1,2.730154064E0
1.008074617E1,-2.552550538E0,-1.896129245E-1,8.585057437E-2,2.561022770E0
1.009069217E1,-2.334838526E0,-2.205183828E-1,3.825429013E-1,2.376223552E0
1.010063717E1,-1.988569046E0,-3.583618140E-1,4.719585961E-1,2.074987942E0
1.011058317E1,-1.765879592E0,-5.559199351E-1,6.661130530E-1,1.967507130E0
1.012052917E1,-1.689349918E0,-7.033861291E-1,9.501058853E-1,2.061881759E0
1.013047517E1,-1.651594593E0,-9.772790658E-1,7.958446419E-1,2.077548499E0
1.014042117E1,-1.753504837E0,-1.226888516E0,5.555654842E-1,2.211037687E0
1.015036717E1,-1.863972921E0,-1.454563306E0,2.837214484E-1,2.381312101E0
1.016031317E1,-1.899936659E0,-1.645477821E0,7.063948140E-3,2.513445139E0
1.017025917E1,-1.823577870E0,-1.799439102E0,3.110890489E-2,2.562105597E0
1.018020379E1,-1.778161815E0,-2.033891400E0,2.640778371E-1,2.714463256E0
1.019014979E1,-1.538270876E0,-2.207431498E0,7.239776838E-1,2.786247439E0
1.020009579E1,-1.002452206E0,-2.292670453E0,9.073446125E-1,2.661676629E0
1.021004179E1,-3.349378681E-1,-2.447231659E0,5.606578974E-1,2.532876516E0
1.021998779E1,4.064852759E-1,-2.607253579E0,1.278061008E-1,2.641843278E0
1.022993379E1,1.385805020E0,-2.443197665E0,3.868104916E-2,2.809122035E0
1.023987979E1,2.208616143E0,-2.003279471E0,1.462371093E-1,2.985380914E0
1.024982479E1,2.447357959E0,-1.726178752E0,1.138312189E-1,2.997033802E0
1.025977079E1,2.402551037E0,-1.746296098E0,-1.841312329E-1,2.975853803E0
1.026971679E1,2.239775956E0,-1.958986228E0,-6.647711170E-1,3.048957857E0
1.027966279E1,2.051092739E0,-1.880721831E0,-1.113899186E0,2.997476843E0
1.028960879E1,2.142799299E0,-1.610874583E0,-1.289666562E0,2.974852198E0
1.029955479E1,2.616139008E0,-1.470305180E0,-7.953364458E-1,3.104599925E0
1.030950079E1,3.482049081E0,-1.516488243E0,-1.129892564E-1,3.799627477E0
1.031944579E1,4.251753745E0,-1.609099368E0,3.071596469E-1,4.556419399E0
1.032939179E1,4.849649087E0,-1.598363296E0,6.180488672E-1,5.143524657E0
1.033933779E1,5.395666178E0,-1.535268331E0,4.514441516E-1,5.627971586E0
1.034928379E1,5.722103364E0,-1.444916570E0,1.451083774E-1,5.903499576E0
1.035922979E1,5.620902094E0,-1.298360202E0,2.170421400E-1,5.772987689E0
1.036917579E1,5.455441679E0,-1.223360306E0,2.193922091E-1,5.595228976E0
1.037912179E1,5.309574698E0,-1.291866285E0,-1.025350195E-1,5.465438263E0
1.038906679E1,5.071136938E0,-1.345844856E0,-3.111198930E-1,5.255903710E0
1.039901279E1,4.730566740E0,-1.253920779E0,-6.642093457E-2,4.894383591E0
1.040895879E1,4.290124928E0,-1.150405181E0,2.729592825E-1,4.450068623E0
1.041890479E1,3.895226203E0,-1.143261638E0,4.429319943E-1,4.083628667E0
1.042885079E1,3.526423600E0,-1.170155321E0,5.255489123E-1,3.752482984E0
1.043879679E1,3.284262334E0,-1.114133148E0,6.328195918E-1,3.525355639E0
1.044874279E1,3.114873759E0,-1.089968945E0,8.219331640E-1,3.400888848E0
1.045868879E1,2.941952296E0,-1.281075248E0,8.530103843E-1,3.320220447E0
1.046863379E1,2.649942054E0,-1.441715804E0,1.103609329E0,3.212271922E0
1.047857979E1,2.209949893E0,-1.496648056E0,1.092684903E0,2.884058639E0
1.048852579E1,1.944520509E0,-1.509903694E0,9.156802569E-1,2.626678417E0
1.049847179E1,1.641851377E0,-1.514925867E0,9.787028629E-1,2.438961997E0
1.050841779E1,1.169214797E0,-1.588145286E0,8.185381244E-1,2.135245502E0
1.051836379E1,7.618861330E-1,-1.654229933E0,5.420637151E-1,1.900205311E0
1.052830979E1,5.298734399E-1,-1.748956581E0,3.427583729E-1,1.859327375E0
1.053825479E1,2.535200314E-1,-1.792720066E0,3.197163232E-1,1.838569055E0
1.054820079E1,2.076751198E-1,-1.842435433E0,4.926801051E-1,1.918444934E0
1.055814679E1,2.366119668E-2,-1.789761960E0,5.008204526E-1,1.858663189E0
1.056809279E1,-7.207862735E-2,-1.709145813E0,3.763121814E-1,1.751566612E0
1.057803879E1,-3.849219871E-1,-1.583908979E0,4.984084761E-1,1.704506849E0
1.058798479E1,-9.330543812E-1,-1.468118321E0,2.778662659E-1,1.761582114E0
1.059793079E1,-1.238994007E0,-1.255277917E0,-3.919578686E-2,1.764189646E0
1.060787579E1,-1.643545608E0,-9.651437545E-1,2.918696165E-2,1.906199494E0
1.061782179E1,-1.932451417E0,-7.477659112E-1,1.802389607E-2,2.072160032E0
1.062776779E1,-2.090554428E0,-5.824966997E-1,2.248709039E-1,2.181808228E0
1.063771379E1,-2.169881848E0,-3.826102173E-1,5.032758446E-1,2.260102739E0
1.064765979E1,-2.093092411E0,-4.080087680E-1,3.952660771E-1,2.168811257E0
1.065760579E1,-2.267682377E0,-5.443588203E-1,4.871240808E-1,2.382435678E0
1.066755179E1,-2.459465788E0,-4.881635696E-1,4.840966849E-1,2.553747292E0
1.067749679E1,-2.837456997E0,-3.345238853E-1,3.172693366E-1,2.874670116E0
1.068744279E1,-3.280901939E0,-2.346627975E-1,2.282307141E-1,3.297191747E0
1.069738879E1,-3.644778847E0,-1.583560485E-1,8.065985486E-2,3.649108862E0
1.070733479E1,-3.879083210E0,-1.801234782E-2,-3.019560635E-2,3.879242551E0
1.071728079E1,-4.081104803E0,1.414236814E-1,-2.941115852E-1,4.094132227E0
1.072722679E1,-4.357795047E0,2.707646763E-1,-4.299586308E-1,4.387317587E0
1.073717279E1,-4.397945538E0,2.543994892E-1,-3.857343847E-1,4.422152765E0
1.074711879E1,-4.094758636E0,1.323926568E-1,-2.468940032E-1,4.104330975E0
1.075706379E1,-3.848666871E0,8.834265769E-2,-4.342851318E-2,3.849925602E0
1.076700979E1,-3.545160418E0,1.282294393E-1,1.241404814E-1,3.549650129E0
1.077695579E1,-3.278645206E0,6.251433671E-2,3.352863622E-1,3.296337266E0
1.078690179E1,-3.182472542E0,-1.606230140E-3,4.572962643E-1,3.215160016E0
1.079684779E1,-3.061395124E0,-9.655448735E-2,5.247513521E-1,3.107543541E0
1.080679379E1,-3.007151966E0,-1.239510316E-1,5.252809636E-1,3.055199977E0
1.081673979E1,-2.872119584E0,-1.207099199E-1,5.320907772E-1,2.923484631E0
1.082668479E1,-2.798562488E0,-2.253066677E-1,4.428008705E-1,2.842320831E0
1.083663079E1,-2.937880587E0,-3.444507033E-1,3.330107720E-1,2.976690244E0
1.084657679E1,-2.955589757E0,-4.466231954E-1,1.642779623E-1,2.993655013E0
1.085652279E1,-2.859702145E0,-6.450180531E-1,2.430563293E-2,2.931643806E0
1.086646879E1,-2.604219166E0,-8.147995609E-1,-6.946492195E-2,2.729593590E0
1.087641479E1,-2.002533220E0,-1.036245897E0,-1.230020285E-1,2.258113008E0
1.088636079E1,-1.436596420E0,-1.073393843E0,4.657932919E-1,1.852821364E0
1.089630579E1,-5.707075435E-1,-1.194077450E0,8.393227834E-1,1.567160104E0
1.090625179E1,-3.172539876E-1,-1.429950621E0,8.129471630E-1,1.675199081E0
1.091619779E1,-4.680959255E-1,-1.379602586E0,7.005749340E-1,1.616546420E0
1.092614379E1,-7.705969495E-1,-1.224780010E0,3.750462592E-1,1.494846289E0
1.093608979E1,-1.338031222E0,-1.157934641E0,2.733222485E-2,1.769713884E0
1.094603579E1,-1.811527051E0,-1.171575025E0,-3.671476941E-1,2.188381988E0
1.095598179E1,-2.124461554E0,-1.373509787E0,-6.573831600E-1,2.613813048E0
1.096592779E1,-2.025716407E0,-1.735209777E0,-3.589482898E-1,2.691342380E0
1.097587279E1,-7.446177703E-1,-2.214063994E0,-2.764534324E-1,2.352224797E0
1.098581879E1,9.838089439E-1,-2.443933244E0,5.530413508E-2,2.635099294E0
1.099576479E1,2.031678813E0,-2.284132349E0,6.141624422E-1,3.118040233E0
1.100571079E1,2.709223757E0,-1.966233267E0,1.041719622E0,3.505873129E0
1.101565679E1,2.973138421E0,-1.665113940E0,8.088003176E-1,3.502329861E0
1.102560279E1,2.755872552E0,-1.460214055E0,1.475943942E-1,3.122313679E0
1.103554879E1,2.316928504E0,-1.184947608E0,-2.450106881E-1,2.613864718E0
1.104549379E1,1.982750774E0,-9.587656116E-1,-5.661122167E-1,2.273986626E0
1.105543979E1,1.956974786E0,-8.975043333E-1,-8.814351614E-1,2.326411891E0
1.106538579E1,2.213351803E0,-9.282788140E-1,-8.316910706E-1,2.540145232E0
1.107533179E1,2.769731914E0,-9.902610540E-1,-4.818772280E-1,2.980643806E0
1.108527779E1,3.466950985E0,-1.102498943E0,-3.028378236E-1,3.650611428E0
1.109522379E1,4.051779554E0,-1.071118106E0,2.236019120E-2,4.191027503E0
1.110516979E1,4.492661369E0,-9.194764155E-1,2.431036918E-1,4.592226307E0
1.111511479E1,4.755181471E0,-8.053972381E-1,3.954898793E-1,4.839093694E0
1.112506079E1,4.624395629E0,-8.072145528E-1,3.258284909E-1,4.705613082E0
1.113500679E1,4.206851807E0,-7.786514890E-1,8.765312478E-2,4.279203586E0
1.114495279E1,3.831081077E0,-6.977166688E-1,-6.841724709E-2,3.894697895E0
1.115489879E1,3.583334550E0,-6.162503368E-1,8.379951730E-2,3.636904362E0
1.116484479E1,3.519608378E0,-6.729145342E-1,2.000613141E-1,3.588938790E0
1.117479079E1,3.472427195E0,-7.463239878E-1,2.860270786E-1,3.563223486E0
1.118473604E1,3.458910479E0,-6.592951995E-1,5.507884187E-1,3.564000525E0
1.119468204E1,3.395005090E0,-6.795756823E-1,6.155346376E-1,3.516641232E0
1.120462804E1,3.388874284E0,-8.504424334E-1,6.261210215E-1,3.549612483E0
1.121457404E1,3.048209361E0,-9.048466820E-1,7.651595505E-1,3.270442930E0
1.122452004E1,2.558488677E0,-8.683284813E-1,7.352756739E-1,2.800087317E0
1.123446604E1,2.251869167E0,-7.716675746E-1,5.318761843E-1,2.439114156E0
1.124441204E1,2.032298618E0,-8.447425675E-1,3.241006386E-1,2.224605336E0
1.125435704E1,1.668838617E0,-9.151594162E-1,4.286881770E-1,1.950977355E0
1.126430304E1,1.594450047E0,-9.913229084E-1,5.138299227E-1,1.946538787E0
1.127424904E1,1.578383945E0,-1.194725322E0,4.083806509E-1,2.021246948E0
1.128419504E1,1.483696035E0,-1.405255491E0,5.052998583E-1,2.105094977E0
1.129414104E1,1.289336048E0,-1.538504180E0,4.506377475E-1,2.057293595E0
1.130408704E1,9.676142031E-1,-1.633124408E0,1.530554013E-1,1.904415536E0
1.131403304E1,6.293141860E-1,-1.599493563E0,-9.268494621E-3,1.718866460E0
1.132397804E1,4.077348259E-1,-1.593567410E0,-2.079750089E-1,1.657998306E0
1.133392404E1,3.456417811E-1,-1.614281171E0,-2.957031242E-1,1.677144084E0
1.134387004E1,1.526838838E-1,-1.589479621E0,-2.503415215E-1,1.616300935E0
1.135381604E1,-1.880812463E-1,-1.517043729E0,-1.530530624E-1,1.536301230E0
1.136376204E1,-4.888295674E-1,-1.318008016E0,-3.182943535E-1,1.441322578E0
1.137370804E1,-7.427704887E-1,-1.188874598E0,-4.401702813E-1,1.469312997E0
1.138365404E1,-1.036233179E0,-1.026763467E0,-3.793247399E-1,1.507285533E0
1.139359904E1,-1.290801214E0,-8.561481464E-1,-4.655446391E-1,1.617371087E0
1.140354504E1,-1.491392286E0,-7.635083699E-1,-4.265396176E-1,1.728910648E0
1.141349104E1,-1.927652461E0,-6.566978663E-1,-1.502221330E-1,2.041975217E0
1.142343704E1,-2.176182223E0,-4.868695807E-1,-6.839605093E-2,2.231028704E0
1.143338304E1,-2.352880402E0,-4.825835717E-1,-3.337371424E-2,2.402092191E0
1.144332904E1,-2.594077463E0,-4.521716183E-1,-1.253189877E-2,2.633221241E0
1.145327504E1,-2.762914938E0,-4.356076258E-1,-1.077871348E-1,2.799119687E0
1.146322104E1,-2.910191390E0,-4.182337940E-1,-1.054638898E-1,2.941981656E0
1.147316604E1,-3.103149799E0,-3.323229933E-1,1.009244040E-2,3.120909980E0
1.148311204E1,-3.235060060E0,-2.149974418E-1,4.369595021E-2,3.242490837E0
1.149305804E1,-3.382333004E0,-1.021222061E-1,1.855045246E-1,3.388955211E0
1.150300404E1,-3.502425165E0,5.674371958E-2,2.663314636E-1,3.512995067E0
1.151295004E1,-3.583150363E0,1.509657526E-1,2.381318043E-1,3.594226473E0
1.152289604E1,-3.579354058E0,7.990804911E-2,3.246192867E-1,3.594932329E0
1.153284204E1,-3.310093578E0,-5.164845586E-3,6.155258667E-1,3.366840992E0
1.154278704E1,-3.134945496E0,-3.497804403E-3,9.285964639E-1,3.269585125E0
1.155273304E1,-2.965320693E0,3.666964352E-2,1.010239674E0,3.132898925E0
1.156267904E1,-2.798975302E0,1.390953201E-1,9.240039146E-1,2.950829287E0
1.157262504E1,-2.745158406E0,1.649540466E-1,9.766252010E-1,2.918373056E0
1.158257104E1,-2.692505398E0,2.026066071E-1,9.753756510E-1,2.870887044E0
1.159251704E1,-2.491345977E0,2.345341587E-1,8.973483588E-1,2.658391455E0
1.160246304E1,-2.474614754E0,1.681513041E-1,8.161262941E-1,2.611140588E0
1.161240804E1,-2.601080966E0,1.144083756E-1,7.201179367E-1,2.701348054E0
1.162235404E1,-2.647996978E0,5.937672079E-2,5.389429830E-1,2.702937870E0
1.163230004E1,-2.678111308E0,-3.508212447E-2,4.018784009E-1,2.708323685E0
1.164224604E1,-2.549082554E0,-1.625672132E-1,3.689087293E-1,2.580764154E0
1.165219204E1,-2.102226201E0,-4.213035822E-1,2.268421465E-1,2.155993754E0
1.166213804E1,-1.792563946E0,-7.113248938E-1,3.585968721E-1,1.961596370E0
1.167208404E1,-1.412381492E0,-9.201003134E-1,5.414188403E-1,1.770463337E0
1.168202904E1,-8.926859352E-1,-1.194498450E0,4.594878007E-1,1.560398591E0
1.169197504E1,-7.871821381E-1,-1.256102375E0,3.778201783E-1,1.529770238E0
1.170192104E1,-8.966773908E-1,-1.173567756E0,1.428234317E-1,1.483809339E0
1.171186704E1,-1.139848764E0,-1.165409721E0,-3.249345247E-1,1.662232676E0
1.172181304E1,-1.440789020E0,-1.235816045E0,-6.585857861E-1,2.009191264E0
1.173175904E1,-1.626299538E0,-1.374061764E0,-8.410646689E-1,2.289167031E0
1.174170504E1,-1.670365178E0,-1.522954679E0,-7.353921065E-1,2.377038564E0
1.175165104E1,-1.619628450E0,-1.735008633E0,-2.924117996E-1,2.391433865E0
1.176159604E1,-1.438191395E0,-1.771733240E0,2.088590348E-1,2.291518112E0
1.177154204E1,-1.061086623E0,-1.821128179E0,6.154597201E-1,2.195723874E0
1.178148804E1,-3.421930933E-1,-2.178775463E0,6.753621787E-1,2.306571634E0
1.179143404E1,8.936355230E-1,-2.458407442E0,7.962153554E-1,2.734284274E0
1.180138004E1,1.728910571E0,-2.170919729E0,1.048570658E0,2.966736365E0
1.181132604E1,2.117217731E0,-1.546226597E0,1.058200584E0,2.827227632E0
1.182127204E1,2.287142788E0,-1.038629222E0,5.656597884E-1,2.574828885E0
1.183121704E1,2.280391885E0,-9.322490734E-1,-8.968283951E-2,2.465221794E0
1.184116304E1,2.382190740E0,-1.001950808E0,-7.044984157E-1,2.678629530E0
1.185110904E1,2.359861393E0,-1.142372861E0,-9.339821881E-1,2.783214738E0
1.186105504E1,2.569600434E0,-1.204936314E0,-8.757180463E-1,2.970117844E0
1.187100104E1,3.118610129E0,-1.161776261E0,-7.004291922E-1,3.400890218E0
1.188094704E1,3.572010248E0,-1.067914417E0,-3.891023809E-1,3.748479568E0
1.189089304E1,3.918530281E0,-1.010951427E0,-7.983729780E-2,4.047626013E0
1.190083804E1,4.221280396E0,-1.177039833E0,9.433897734E-3,4.382319015E0
1.191078404E1,4.477501878E0,-1.254529474E0,7.853044510E-2,4.650595047E0
1.192073004E1,4.682698801E0,-1.115261076E0,8.044365406E-2,4.814347984E0
1.193067604E1,4.532662756E0,-1.029701693E0,8.814377926E-2,4.648987692E0
1.194062204E1,4.225534245E0,-1.028636915E0,1.021525385E-1,4.350134332E0
1.195056804E1,4.024562520E0,-1.030516795E0,-3.488390386E-2,4.154549943E0
1.196051404E1,3.787003012E0,-1.033196574E0,-1.166114603E-1,3.927147209E0
1.197045904E1,3.660095920E0,-1.017585093E0,-1.081845993E-1,3.800458587E0
1.198040504E1,3.371317434E0,-1.015739712E0,2.979273319E-2,3.521135614E0
1.199035104E1,3.006376626E0,-9.923666364E-1,2.737128425E-1,3.177736722E0
1.200029704E1,2.839010310E0,-1.036301445E0,3.873141561E-1,3.046951342E0
1.201024304E1,2.649109118E0,-1.090571208E0,3.532729822E-1,2.886507661E0
1.202018904E1,2.474667087E0,-1.164530885E0,4.059856313E-1,2.764947324E0
1.203013504E1,2.195564573E0,-1.203738220E0,5.424192989E-1,2.561973496E0
1.204008004E1,2.011325240E0,-1.263549389E0,6.499918409E-1,2.462615616E0
1.205002604E1,1.827442002E0,-1.334062132E0,6.355682947E-1,2.350151719E0
1.205997204E1,1.701606705E0,-1.339375497E0,7.529587504E-1,2.292670709E0
1.206991804E1,1.700477608E0,-1.532504936E0,7.334028107E-1,2.403762709E0
1.207986404E1,1.676496276E0,-1.850912726E0,6.848025084E-1,2.589492645E0
1.208981004E1,1.284755047E0,-1.900308250E0,7.152710335E-1,2.402785805E0
1.209975604E1,8.856065650E-1,-1.740796207E0,4.275939437E-1,1.999376653E0
1.210970104E1,6.253600795E-1,-1.707898602E0,3.029091597E-2,1.819041067E0
1.211964704E1,3.429800920E-1,-1.734063722E0,1.088627301E-2,1.767690824E0
1.212959304E1,9.859677359E-2,-1.655157886E0,5.820084572E-2,1.659113104E0
1.213953904E1,-1.404734723E-1,-1.623620344E0,-2.741824470E-1,1.652589432E0
1.214948504E1,-2.221088254E-1,-1.680250043E0,-4.022733803E-1,1.741951896E0
1.215943104E1,-5.321021792E-1,-1.507228593E0,-3.650913745E-1,1.639561670E0
1.216937704E1,-8.652440751E-1,-1.115198511E0,-5.202162516E-1,1.504307142E0
1.217932204E1,-1.054408518E0,-9.369747931E-1,-6.317900433E-1,1.545593007E0
1.218926742E1,-1.347654569E0,-9.081526977E-1,-6.071608400E-1,1.734807899E0
1.219921342E1,-1.587837431E0,-8.698037338E-1,-4.957539133E-1,1.877114324E0
1.220915942E1,-1.807375820E0,-7.015658909E-1,-3.263559097E-1,1.966039225E0
1.221910542E1,-1.988150678E0,-5.156232637E-1,-2.162926000E-1,2.065282779E0
1.222905142E1,-2.251749884E0,-4.735578096E-1,-9.262384281E-2,2.302870755E0
1.223899742E1,-2.593370535E0,-5.001907074E-1,-1.200725734E-1,2.643894646E0
1.224894242E1,-3.005712674E0,-4.577258885E-1,-1.728637214E-1,3.045275609E0
1.225888842E1,-3.441483145E0,-4.077228391E-1,-1.929011062E-2,3.465604747E0
1.226883442E1,-3.626950394E0,-3.343373591E-1,2.726483569E-2,3.642429683E0
1.227878042E1,-3.868053607E0,-2.122024727E-1,1.396845733E-1,3.876387542E0
1.228872642E1,-3.894571314E0,-1.143364549E-1,2.906058870E-1,3.907071836E0
1.229867242E1,-3.749507741E0,-7.542674303E-2,3.349641806E-1,3.765195679E0
1.230861842E1,-3.579181858E0,-1.523807788E-1,5.922298287E-1,3.631046522E0
1.231856442E1,-3.360608259E0,-1.691383141E-1,7.866288453E-1,3.455586865E0
1.232850942E1,-3.170310041E0,1.798077285E-2,8.983229434E-1,3.295174225E0
1.233845542E1,-3.078047410E0,1.863460851E-1,8.737323318E-1,3.205075492E0
1.234840142E1,-3.081182979E0,2.438990593E-1,7.658038406E-1,3.184278698E0
1.235834742E1,-3.089529587E0,2.432716531E-1,6.156182528E-1,3.159645550E0
1.236829342E1,-3.084353047E0,2.131526452E-1,4.456291687E-1,3.123660213E0
1.237823942E1,-3.194333619E0,2.098787892E-1,2.791753113E-1,3.213371318E0
1.238818542E1,-3.363382763E0,3.102573556E-1,2.449755317E-1,3.386534548E0
1.239813042E1,-3.267556254E0,2.754681766E-1,1.518586224E-1,3.282661668E0
1.240807642E1,-3.206362218E0,5.360142589E-2,1.583788526E-1,3.210718868E0
1.241802242E1,-2.954394294E0,-7.459409952E-2,2.116592664E-1,2.962905595E0
1.242796842E1,-2.584531299E0,-2.212668264E-1,1.919510798E-1,2.601077904E0
1.243791442E1,-2.302163993E0,-3.747346026E-1,3.123535824E-1,2.353284902E0
1.244786042E1,-2.038965906E0,-4.826426286E-1,5.889099258E-1,2.176497363E0
1.245780642E1,-1.806623868E0,-6.290282571E-1,7.514736307E-1,2.055305079E0
1.246775142E1,-1.682016048E0,-8.518217915E-1,7.518158390E-1,2.029779645E0
1.247769742E1,-1.666634070E0,-9.697846895E-1,7.357475442E-1,2.063849781E0
1.248764342E1,-1.614556282E0,-1.096661083E0,5.516619196E-1,2.028247617E0
1.249758942E1,-1.780251171E0,-1.309528969E0,2.475114691E-1,2.223830542E0
1.250753542E1,-1.820896191E0,-1.473132893E0,3.620303571E-2,2.342454721E0
1.251748142E1,-1.667772962E0,-1.685280402E0,-1.277406120E-1,2.374437691E0
1.252742742E1,-1.548733006E0,-1.913461561E0,1.614101223E-1,2.466974321E0
1.253737242E1,-1.163966336E0,-2.054759527E0,6.238137102E-1,2.442539230E0
1.254731842E1,-8.213656917E-1,-2.208204499E0,4.879911498E-1,2.406022459E0
1.255726442E1,-4.630445158E-1,-2.403003904E0,2.927974235E-1,2.464663936E0
1.256721042E1,6.122561038E-2,-2.519740641E0,-5.084080920E-3,2.520489500E0
1.257715642E1,5.368650287E-1,-2.498028175E0,-2.766779655E-1,2.570003798E0
1.258710242E1,1.091100673E0,-2.298487848E0,-9.704696909E-2,2.546166762E0
1.259704842E1,1.825778469E0,-2.114030414E0,-6.296398759E-2,2.794021488E0
1.260699342E1,2.692628775E0,-2.006208342E0,-1.676100712E-1,3.362025396E0
1.261693942E1,3.505848418E0,-1.800420265E0,-2.413891420E-2,3.941201460E0
1.262688542E1,4.010066103E0,-1.581512790E0,-1.401595134E-1,4.312940707E0
1.263683142E1,4.004375008E0,-1.401789261E0,-3.530040103E-1,4.257304801E0
1.264677742E1,3.843145638E0,-1.232077920E0,-3.939169782E-1,4.054991366E0
1.265672342E1,3.745166768E0,-1.231697266E0,-5.229523100E-1,3.977038018E0
1.266666942E1,3.614426535E0,-1.317865344E0,-4.925707622E-1,3.878591780E0
1.267661542E1,3.610168592E0,-1.308354848E0,-1.555464613E-1,3.843085268E0
1.268656042E1,3.969085892E0,-1.345906836E0,2.224029404E-1,4.196971658E0
1.269650642E1,4.263755740E0,-1.330213494E0,4.658551262E-1,4.490668319E0
1.270645242E1,4.504673889E0,-1.179792117E0,6.430896413E-1,4.700804247E0
1.271639842E1,4.654232216E0,-1.147132494E0,6.321119325E-1,4.835013545E0
1.272634442E1,4.675444161E0,-1.241218287E0,6.024548547E-1,4.874766947E0
1.273629042E1,4.553981704E0,-1.205598219E0,6.127906854E-1,4.750550374E0
1.274623642E1,4.319798378E0,-1.050825344E0,7.226756550E-1,4.504126112E0
1.275618142E1,4.261769441E0,-9.662605727E-1,7.255985320E-1,4.429766528E0
1.276612742E1,4.057087364E0,-1.026594483E0,6.068183394E-1,4.228721156E0
1.277607342E1,3.640185859E0,-1.144940373E0,8.259383605E-1,3.904358554E0
1.278601942E1,3.080836824E0,-1.174669957E0,1.179254027E0,3.501720306E0
1.279596542E1,2.560072103E0,-1.160489289E0,1.184462800E0,3.050189615E0
1.280591142E1,2.260934690E0,-1.257594000E0,8.521801528E-1,2.723890481E0
1.281585742E1,1.952678544E0,-1.362287811E0,7.127397007E-1,2.485312749E0
1.282580242E1,1.794423068E0,-1.530122781E0,6.242181914E-1,2.439442195E0
1.283574842E1,1.728943316E0,-1.680734192E0,5.483559769E-1,2.472813517E0
1.284569442E1,1.657634474E0,-1.761830980E0,6.018743724E-1,2.492800275E0
1.285564042E1,1.683241332E0,-1.965798234E0,7.347247931E-1,2.690257349E0
1.286558642E1,1.594719603E0,-2.167265219E0,6.105710093E-1,2.759160398E0
1.287553242E1,1.130928617E0,-2.116018467E0,3.778072413E-1,2.428841700E0
1.288547842E1,5.995623833E-1,-1.991975634E0,1.385532832E-1,2.084859465E0
1.289542342E1,1.935833301E-1,-1.910722725E0,4.645262003E-2,1.921065768E0
1.290536942E1,-1.324370956E-1,-1.843931150E0,-1.375732899E-2,1.848732251E0
1.291531542E1,-4.508325329E-1,-1.808201154E0,-1.311320702E-1,1.868164074E0
1.292526142E1,-8.700184728E-1,-1.764459888E0,-2.976865728E-1,1.989690462E0
1.293520742E1,-1.224014317E0,-1.627423958E0,-4.601594996E-1,2.087694075E0
1.294515342E1,-1.526145359E0,-1.381209986E0,-6.004008740E-1,2.144141294E0
1.295509942E1,-1.788793515E0,-1.165988011E0,-6.785969315E-1,2.240491927E0
1.296504442E1,-1.984250000E0,-9.947903073E-1,-6.416646749E-1,2.310538763E0
1.297499042E1,-2.073498977E0,-8.728366846E-1,-5.350600664E-1,2.312472953E0
1.298493642E1,-2.119327991E0,-7.748765266E-1,-4.215083078E-1,2.295572699E0
1.299488242E1,-2.347063007E0,-5.874685872E-1,-3.308033750E-1,2.441977677E0
1.300482842E1,-2.715016886E0,-3.447875029E-1,-5.718927741E-2,2.737419538E0
1.301477442E1,-2.938199553E0,-1.577111006E-1,2.308007115E-1,2.951467156E0
1.302472042E1,-3.168309708E0,-8.188616216E-2,4.033789426E-1,3.194934479E0
1.303466542E1,-3.486315209E0,-6.331949830E-3,3.896641521E-1,3.508029644E0
1.304461142E1,-3.752606181E0,9.688193142E-2,2.131747185E-1,3.759904616E0
1.305455742E1,-3.907265912E0,2.071779603E-1,4.485165238E-2,3.913011792E0
1.306450342E1,-3.922393828E0,2.200956291E-1,1.623175371E-1,3.931915871E0
1.307444942E1,-3.903497089E0,1.497068471E-1,4.352469988E-1,3.930539609E0
1.308439542E1,-3.780824259E0,1.059585643E-1,6.294754229E-1,3.834331572E0
1.309434142E1,-3.598674136E0,9.409339428E-2,7.920952611E-1,3.686017364E0
1.310428642E1,-3.433183315E0,8.386252105E-2,7.391569094E-1,3.512852620E0
1.311423242E1,-3.341640184E0,6.792242646E-2,6.603658247E-1,3.406942265E0
1.312417842E1,-3.309349812E0,4.199470282E-2,5.888989623E-1,3.361601065E0
1.313412442E1,-3.369170337E0,2.291056037E-2,5.116535890E-1,3.407876618E0
1.314407042E1,-3.363550870E0,3.468275964E-2,4.268303704E-1,3.390702216E0
1.315401642E1,-3.294789953E0,-3.828698337E-2,2.891446678E-1,3.307674616E0
1.316396242E1,-3.358125531E0,-1.073613113E-1,2.666828813E-1,3.370408476E0
1.317390742E1,-3.327086172E0,-1.845141524E-1,1.112672514E-1,3.334055828E0
1.318385417E1,-3.204481754E0,-3.233638895E-1,2.157556795E-2,3.220828002E0
1.319380017E1,-3.107564447E0,-5.199069339E-1,4.438679874E-2,3.151068104E0
1.320374617E1,-3.071297384E0,-6.110047996E-1,9.669993684E-2,3.132977077E0
1.321369217E1,-2.855201835E0,-6.570276493E-1,2.048137848E-1,2.936973193E0
1.322363817E1,-2.596247073E0,-8.825389695E-1,2.686029607E-1,2.755271574E0
1.323358417E1,-2.431582171E0,-1.174636043E0,2.494648777E-1,2.711935547E0
1.324353017E1,-2.362119003E0,-1.403945130E0,2.836383449E-1,2.762447976E0
1.325347517E1,-2.297127347E0,-1.553682967E0,3.294011396E-1,2.792710139E0
1.326342117E1,-2.181209367E0,-1.757827392E0,2.437247392E-1,2.811944734E0
1.327336717E1,-2.071096648E0,-2.035261402E0,2.577739173E-1,2.915163408E0
1.328331317E1,-2.031206358E0,-2.278048321E0,4.957111555E-1,3.092092006E0
1.329325917E1,-1.830740417E0,-2.395392584E0,4.646436562E-1,3.050476984E0
1.330320517E1,-1.458639108E0,-2.404024243E0,3.395623579E-1,2.832360006E0
1.331315017E1,-9.923947030E-1,-2.303865532E0,4.995604507E-1,2.557773305E0
1.332309617E1,-3.947101530E-1,-2.267388847E0,5.978455677E-1,2.377870394E0
1.333304217E1,3.134891117E-1,-2.243878362E0,5.617816957E-1,2.334280232E0
1.334298817E1,1.158455628E0,-2.227208535E0,4.681068890E-1,2.553742618E0
1.335293417E1,2.119617428E0,-2.120886859E0,2.245050144E-1,3.006882374E0
1.336288017E1,3.033082321E0,-1.868868940E0,9.162586927E-3,3.562631533E0
1.337282617E1,3.807479961E0,-1.522189863E0,-5.449429572E-2,4.100845676E0
1.338277217E1,4.353880044E0,-1.370993146E0,-1.189318547E-1,4.566184231E0
1.339271717E1,4.525609260E0,-1.413942699E0,-2.024944136E-1,4.745669301E0
1.340266317E1,4.536847023E0,-1.385828117E0,-2.112465260E-1,4.748486662E0
1.341260917E1,4.616814129E0,-1.322741337E0,-1.447485544E-1,4.804744478E0
1.342255517E1,4.642864645E0,-1.335061421E0,3.577253446E-2,4.831134523E0
1.343250117E1,4.751117072E0,-1.312071338E0,3.932778776E-1,4.944624567E0
1.344244717E1,4.957801527E0,-1.301667972E0,6.704762453E-1,5.169494548E0
1.345239317E1,5.184662384E0,-1.351521918E0,8.568177988E-1,5.425999657E0
1.346233817E1,5.443663048E0,-1.406184613E0,7.806066518E-1,5.676281290E0
1.347228417E1,5.636705949E0,-1.454664463E0,4.275725283E-1,5.837064409E0
1.348223017E1,5.518641894E0,-1.498636694E0,2.753255045E-1,5.725130953E0
1.349217617E1,5.108441589E0,-1.561798317E0,3.248099059E-1,5.351718503E0
1.350212217E1,4.707041929E0,-1.499067634E0,2.675351129E-1,4.947223720E0
1.351206817E1,4.191303475E0,-1.447380586E0,4.056587720E-1,4.452695187E0
1.352201417E1,3.721165118E0,-1.476318457E0,4.662569030E-1,4.030382304E0
1.353195917E1,3.365055066E0,-1.607441098E0,5.216148325E-1,3.765573597E0
1.354190517E1,2.973787462E0,-1.650181906E0,7.150636035E-1,3.475316985E0
1.355185117E1,2.593638630E0,-1.591694546E0,7.414216822E-1,3.132117332E0
1.356179717E1,2.429933256E0,-1.714939234E0,7.197577482E-1,3.060007095E0
1.357174317E1,2.136809704E0,-1.880504900E0,1.082085729E0,3.045187008E0
1.358168917E1,1.746183246E0,-1.768521364E0,1.137893309E0,2.733427323E0
1.359163517E1,1.503659745E0,-1.575874904E0,7.905669451E-1,2.317190203E0
1.360158017E1,1.245727075E0,-1.467461094E0,7.904475888E-1,2.080885725E0
1.361152617E1,9.877555221E-1,-1.443385769E0,9.859896630E-1,2.007784616E0
1.362147217E1,7.698354958E-1,-1.537544067E0,1.071014026E0,2.025773801E0
1.363141817E1,6.409679791E-1,-1.739815044E0,8.235247761E-1,2.028790131E0
1.364136417E1,2.310912450E-1,-1.730052533E0,7.620372105E-1,1.904517167E0
1.365131017E1,-1.648315474E-1,-1.599185999E0,7.103174186E-1,1.757588158E0
1.366125617E1,-4.573686236E-1,-1.599135128E0,4.690741646E-1,1.728134771E0
1.367120117E1,-8.187275742E-1,-1.616894876E0,2.890904349E-1,1.835275773E0
1.368114717E1,-1.137189743E0,-1.564483944E0,1.419265419E-1,1.939317835E0
1.369109317E1,-1.388485091E0,-1.497399423E0,3.727526888E-3,2.042084664E0
1.370103917E1,-1.710120398E0,-1.408891289E0,-1.772566249E-1,2.222814961E0
1.371098517E1,-2.111275790E0,-1.300017303E0,-3.435209594E-1,2.503105491E0
1.372093117E1,-2.466544720E0,-1.222446971E0,-4.920688884E-1,2.796489092E0
1.373087717E1,-2.884108130E0,-1.084291298E0,-6.849621373E-1,3.156412593E0
1.374082217E1,-3.302391041E0,-8.796054214E-1,-1.007851233E0,3.563040330E0
1.375076817E1,-3.672830279E0,-6.894457823E-1,-1.292818211E0,3.954288390E0
1.376071417E1,-3.919528985E0,-4.775748467E-1,-1.279142743E0,4.150541092E0
1.377066017E1,-3.970458818E0,-1.899374449E-1,-1.113902183E0,4.128122761E0
1.378060617E1,-3.980129236E0,3.854367614E-2,-8.462477139E-1,4.069281207E0
1.379055217E1,-3.982143894E0,1.636115259E-1,-6.061797138E-1,4.031338806E0
1.380049817E1,-3.959234795E0,2.034784269E-1,-3.841702910E-1,3.983030310E0
1.381044317E1,-3.917708162E0,1.938059628E-1,-2.392913803E-1,3.929791134E0
1.382038917E1,-3.865782256E0,1.552652103E-1,3.532251813E-2,3.869060275E0
1.383033517E1,-3.779412449E0,1.093932188E-1,3.147765955E-1,3.794075597E0
1.384028117E1,-3.633590199E0,-1.266214550E-2,5.448336142E-1,3.674232128E0
1.385022717E1,-3.554019242E0,-6.784407377E-2,7.085299248E-1,3.624592425E0
1.386017317E1,-3.512880864E0,-1.247170168E-1,8.031804856E-1,3.605687894E0
1.387011917E1,-3.539346532E0,-2.434780598E-1,7.336829654E-1,3.622781546E0
1.388006417E1,-3.611843235E0,-2.233805948E-1,6.015264630E-1,3.668398088E0
1.389001017E1,-3.602273682E0,-2.078340179E-1,5.736796832E-1,3.653584409E0
1.389995617E1,-3.506910565E0,-3.436841333E-1,5.404172122E-1,3.564911115E0
1.390990217E1,-3.344024678E0,-5.128698099E-1,5.237993523E-1,3.423434277E0
1.391984817E1,-3.238047695E0,-6.193078458E-1,4.651763741E-1,3.329396964E0
1.392979417E1,-3.035067451E0,-7.043333781E-1,4.357216100E-1,3.146040887E0
1.393974017E1,-2.769945338E0,-8.521878272E-1,3.589687550E-1,2.920219141E0
1.394968617E1,-2.574983965E0,-1.035718478E0,3.340561080E-1,2.795505083E0
1.395963117E1,-2.381309272E0,-1.139705946E0,2.431190042E-1,2.651163960E0
1.396957717E1,-2.187959685E0,-1.250241711E0,6.802997869E-2,2.520892698E0
1.397952317E1,-2.054318647E0,-1.381560234E0,4.163213890E-2,2.476018380E0
1.398946917E1,-1.746593721E0,-1.518379818E0,2.978799695E-1,2.333409388E0
1.399941517E1,-1.353790053E0,-1.647888628E0,4.188904363E-1,2.173419801E0
1.400936117E1,-1.076548123E0,-1.795882825E0,4.895762934E-1,2.150310659E0
1.401930717E1,-7.732969013E-1,-1.922185607E0,5.097268949E-1,2.133683930E0
1.402925217E1,-5.625682193E-1,-2.020218855E0,5.157864010E-1,2.159583950E0
1.403919817E1,-4.116837430E-1,-2.008498111E0,5.586219335E-1,2.124995678E0
1.404914417E1,-1.622441545E-1,-2.019183898E0,3.021197125E-1,2.048097434E0
1.405909017E1,2.500997391E-1,-2.064401001E0,-9.765496988E-2,2.081787181E0
1.406903617E1,8.129430699E-1,-2.077457834E0,-5.254781610E-1,2.291906365E0
1.407898217E1,1.427934501E0,-2.000778617E0,-5.418374278E-1,2.517081606E0
1.408892817E1,2.210367969E0,-1.789547952E0,-1.509862909E-1,2.847982671E0
1.409887317E1,3.117323157E0,-1.522823702E0,9.019498251E-2,3.470566355E0
1.410881917E1,3.737838453E0,-1.411169364E0,1.023824072E-1,3.996663287E0
1.411876517E1,4.295293867E0,-1.436873140E0,-2.208500661E-2,4.529309172E0
1.412871117E1,4.461663525E0,-1.409333339E0,-7.575140968E-2,4.679572645E0
1.413865717E1,4.387192217E0,-1.278632866E0,4.200478926E-2,4.569914874E0
1.414860317E1,4.558118609E0,-1.144013590E0,1.655440307E-1,4.702405467E0
1.415854917E1,4.699415991E0,-1.074615326E0,1.455803939E-1,4.822914306E0
1.416849417E1,4.727075075E0,-1.098815197E0,1.733757182E-1,4.856201472E0
1.417844017E1,4.764448138E0,-1.048913305E0,4.419705659E-1,4.898522549E0
1.418838596E1,4.880288497E0,-9.617664027E-1,6.256339484E-1,5.013345018E0
1.419833196E1,4.940069261E0,-9.549824631E-1,7.455223346E-1,5.086460396E0
1.420827796E1,4.832017393E0,-9.023043126E-1,9.869928990E-1,5.013651378E0
1.421822396E1,4.819112003E0,-8.125746953E-1,1.032565513E0,4.995028496E0
1.422816996E1,4.508271096E0,-6.888616455E-1,1.184186227E0,4.711829333E0
1.423811496E1,4.170197951E0,-6.496771145E-1,1.318473455E0,4.421651677E0
1.424806096E1,3.963051858E0,-7.466642958E-1,1.394444574E0,4.267055573E0
1.425800696E1,3.665701061E0,-8.680478150E-1,1.437059081E0,4.031874264E0
1.426795296E1,3.255691961E0,-1.023573226E0,1.452847148E0,3.709177419E0
1.427789896E1,2.811566988E0,-1.164111055E0,1.419980534E0,3.358036360E0
1.428784496E1,2.131271806E0,-1.267971053E0,1.295150081E0,2.797764078E0
1.429779096E1,1.530544073E0,-1.396388188E0,9.009845960E-1,2.259256155E0
1.430773596E1,1.355818452E0,-1.588501967E0,5.100110696E-1,2.149812425E0
1.431768196E1,1.456947216E0,-1.825170359E0,3.627062587E-1,2.363365790E0
1.432762796E1,1.511596463E0,-1.923042224E0,6.753662717E-1,2.537545046E0
1.433757396E1,1.459824192E0,-1.908455760E0,8.983276212E-1,2.565206147E0
1.434751996E1,1.188282421E0,-1.896965396E0,7.542066193E-1,2.362058520E0
1.435746596E1,6.710559967E-1,-1.940203217E0,6.827366871E-1,2.163523529E0
1.436741196E1,1.539701982E-1,-2.037444752E0,4.006301665E-1,2.082160530E0
1.437735696E1,-2.608221805E-1,-2.052355737E0,2.141367499E-1,2.079915101E0
1.438730296E1,-5.747564480E-1,-1.991993176E0,2.400597775E-1,2.087105767E0
1.439724896E1,-7.279501359E-1,-1.934271802E0,2.598380027E-1,2.082986940E0
1.440719496E1,-8.971776932E-1,-1.836849003E0,2.053471971E-1,2.054533899E0
1.441714096E1,-1.189078227E0,-1.651716800E0,7.280543625E-2,2.036510753E0
1.442708696E1,-1.413834964E0,-1.498527351E0,-9.534120837E-2,2.062426598E0
1.443703296E1,-1.761491403E0,-1.362546843E0,-3.883943196E-1,2.260583113E0
1.444697796E1,-2.135587197E0,-1.223954968E0,-6.347684687E-1,2.541993204E0
1.445692396E1,-2.392944501E0,-1.000725816E0,-7.387114978E-1,2.696911237E0
1.446686996E1,-2.633701412E0,-8.485251313E-1,-6.799879110E-1,2.849344063E0
1.447681596E1,-2.724161639E0,-6.521668589E-1,-3.709847832E-1,2.825598690E0
1.448676196E1,-2.617953691E0,-5.582453728E-1,4.641755501E-2,2.677213853E0
1.449670796E1,-2.620223580E0,-5.196414703E-1,2.738502886E-1,2.685254708E0
1.450665396E1,-2.878230509E0,-3.869804263E-1,1.881628150E-1,2.910218198E0
1.451659896E1,-3.222336811E0,-1.715163767E-1,3.921142817E-3,3.226900644E0
1.452654496E1,-3.472528644E0,-1.154953730E-1,-5.954767875E-3,3.474453889E0
1.453649096E1,-3.705525570E0,-6.660270989E-2,-6.376096308E-2,3.706672515E0
1.454643696E1,-3.884137835E0,8.781114578E-2,-7.602257431E-2,3.885874027E0
1.455638296E1,-3.955893404E0,2.382722837E-1,-2.097984631E-2,3.963118275E0
1.456632896E1,-3.886256574E0,3.609375125E-1,-3.745258570E-2,3.903161378E0
1.457627496E1,-3.721924379E0,4.058961689E-1,4.324015975E-2,3.744241244E0
1.458621996E1,-3.565354362E0,3.935842717E-1,1.470855403E-1,3.590027084E0
1.459616596E1,-3.449954299E0,4.208533466E-1,2.962164001E-1,3.488129349E0
1.460611196E1,-3.300527533E0,4.839681923E-1,4.330131797E-1,3.363808500E0
1.461605796E1,-3.289858704E0,4.305959773E-1,5.244724399E-1,3.359115140E0
1.462600396E1,-3.337321430E0,1.994619745E-1,5.955424225E-1,3.395904914E0
1.463594996E1,-3.331458135E0,1.178956550E-1,5.131493068E-1,3.372808162E0
1.464589596E1,-3.243104660E0,1.105609077E-1,5.415065485E-1,3.289860315E0
1.465584096E1,-3.101220218E0,5.337455392E-2,6.514792264E-1,3.169359693E0
1.466578696E1,-2.963881109E0,-7.150793910E-2,7.797753239E-1,3.065575667E0
1.467573296E1,-2.789951586E0,-2.118586564E-1,8.545477635E-1,2.925571025E0
1.468567896E1,-2.741571431E0,-3.203794706E-1,7.952605051E-1,2.872506952E0
1.469562496E1,-2.666526219E0,-3.946513885E-1,7.098782927E-1,2.787478966E0
1.470557096E1,-2.573730907E0,-6.505413330E-1,5.963113314E-1,2.720823774E0
1.471551696E1,-2.529598462E0,-9.181812572E-1,6.605330551E-1,2.770961767E0
1.472546296E1,-2.255314200E0,-1.099732041E0,6.796101809E-1,2.599562021E0
1.473540796E1,-1.783644457E0,-1.286994385E0,7.556380177E-1,2.325667841E0
1.474535396E1,-1.449944006E0,-1.472167518E0,1.017401490E0,2.303197910E0
1.475529996E1,-1.085964772E0,-1.778618921E0,1.006199394E0,2.314139575E0
1.476524596E1,-8.347365198E-1,-2.055253032E0,8.929306412E-1,2.391270628E0
1.477519196E1,-6.368021303E-1,-2.094857978E0,7.048655478E-1,2.300170068E0
1.478513796E1,-3.115238625E-1,-2.100851374E0,1.553640282E-1,2.129497968E0
1.479508396E1,1.263913670E-1,-2.214817700E0,-3.019034386E-1,2.238869784E0
1.480502896E1,7.015208673E-1,-2.342695137E0,-5.522204018E-1,2.507049941E0
1.481497496E1,1.511628915E0,-2.391983072E0,-4.932418398E-1,2.872262611E0
1.482492096E1,2.442748306E0,-2.344631150E0,-3.146234715E-1,3.400485619E0
1.483486696E1,3.378687265E0,-2.296547157E0,-3.027349492E-1,4.096499106E0
1.484481296E1,3.914944183E0,-2.305590461E0,-4.763364065E-1,4.568307313E0
1.485475896E1,4.363287045E0,-2.192746800E0,-5.974766815E-1,4.919694172E0
1.486470496E1,4.897046617E0,-2.043431132E0,-7.073271525E-1,5.353222213E0
1.487464996E1,5.092682759E0,-1.913258663E0,-7.580014622E-1,5.492771851E0
1.488459596E1,5.182632231E0,-1.719860251E0,-5.199999046E-1,5.485252595E0
1.489454196E1,5.338824225E0,-1.521021005E0,-3.715040159E-1,5.563682615E0
1.490448796E1,5.318689338E0,-1.357512390E0,-2.981974733E-1,5.497291869E0
1.491443396E1,5.283905421E0,-1.190793654E0,-1.609715080E-1,5.418815171E0
1.492437996E1,5.180840060E0,-1.063900888E0,2.797716816E-2,5.289023685E0
1.493432596E1,4.895019388E0,-9.293880308E-1,3.027740890E-1,4.991657948E0
1.494427096E1,4.664462505E0,-7.998417985E-1,6.239008337E-1,4.773490297E0
1.495421696E1,4.422062379E0,-6.837289596E-1,8.121665597E-1,4.547717614E0
1.496416296E1,4.087505165E0,-6.621030325E-1,8.660743797E-1,4.230385766E0
1.497410896E1,3.743456458E0,-6.734109628E-1,8.066450340E-1,3.888138988E0
1.498405496E1,3.314631017E0,-6.059545594E-1,8.812005419E-1,3.482883016E0
1.499400096E1,2.762771389E0,-5.827966619E-1,8.936802542E-1,2.961624908E0
1.500394696E1,2.395337620E0,-6.943153435E-1,9.040567231E-1,2.652740973E0
1.501389196E1,2.224889237E0,-7.754554009E-1,1.018031820E0,2.566681122E0
1.502383796E1,1.904384928E0,-8.250175703E-1,9.884215200E-1,2.298763374E0
1.503378396E1,1.596626673E0,-8.649119532E-1,9.377401936E-1,2.043684440E0
1.504372996E1,1.400552429E0,-9.733386272E-1,9.200009108E-1,1.937869156E0
1.505367596E1,1.271376033E0,-1.098953192E0,1.106965631E0,2.012329010E0
1.506362196E1,1.329734023E0,-1.218806494E0,1.432957259E0,2.303703182E0
1.507356796E1,1.377108018E0,-1.259821204E0,1.598149288E0,2.457164444E0
1.508351296E1,1.148418809E0,-1.446960756E0,1.479458996E0,2.366719272E0
1.509345896E1,7.208333436E-1,-1.788925223E0,1.182447338E0,2.262307643E0
1.510340496E1,2.816928300E-1,-1.899634066E0,7.702782762E-1,2.069127608E0
1.511335096E1,-1.396372108E-1,-1.874299834E0,3.858905053E-1,1.918700055E0
1.512329696E1,-3.817937268E-1,-1.846467088E0,2.691543166E-1,1.904639389E0
1.513324296E1,-5.719261032E-1,-1.806002017E0,1.688781130E-1,1.901910242E0
1.514318896E1,-6.816556831E-1,-1.690587920E0,2.750998020E-2,1.823046567E0
1.515313396E1,-7.228651048E-1,-1.648976794E0,-7.161435843E-2,1.801884304E0
1.516307996E1,-9.117715394E-1,-1.516949589E0,-3.277715206E-2,1.770180142E0
1.517302596E1,-1.447004026E0,-1.320419993E0,-1.247971237E-1,1.962881537E0
1.518297196E1,-1.911841590E0,-1.217157580E0,-3.615754437E-1,2.295070291E0
1.519291742E1,-2.386189943E0,-1.027696098E0,-3.704070783E-1,2.624359564E0
1.520286342E1,-2.712921829E0,-7.161102551E-1,-3.619753933E-1,2.829096134E0
1.521280942E1,-2.798587631E0,-4.688776982E-1,-4.018814341E-1,2.865911323E0
1.522275442E1,-2.946647610E0,-3.559580237E-1,-2.950423157E-1,2.982698144E0
1.523270042E1,-3.084689554E0,-2.738666242E-1,-2.512150590E-1,3.106995587E0
1.524264642E1,-3.236427139E0,-2.063827389E-1,-2.119112083E-1,3.249917049E0
1.525259242E1,-3.420448079E0,-1.233493531E-1,-2.454894837E-1,3.431464004E0
1.526253842E1,-3.588698201E0,-8.059568167E-2,-2.927876294E-1,3.601523988E0
1.527248442E1,-3.757134265E0,-1.085266614E-1,-3.080278122E-1,3.771301772E0
1.528243042E1,-3.810467011E0,-1.320336378E-1,-1.462271873E-1,3.815556855E0
1.529237642E1,-3.626108979E0,-1.421586764E-1,8.256968340E-2,3.629833766E0
1.530232142E1,-3.395703540E0,-1.770074970E-1,2.572973692E-1,3.410034621E0
1.531226742E1,-3.353728717E0,-1.848527062E-1,4.115469182E-1,3.383938194E0
1.532221342E1,-3.387793134E0,-1.314740592E-1,4.308930159E-1,3.417615622E0
1.533215942E1,-3.529676114E0,-5.379146039E-2,3.537682414E-1,3.547768166E0
1.534210542E1,-3.628033006E0,3.821155429E-3,2.435061081E-1,3.636197645E0
1.535205142E1,-3.622588371E0,-1.972850561E-3,6.311485489E-2,3.623138678E0
1.536199742E1,-3.554453690E0,-7.343868971E-2,-8.980972409E-2,3.556346449E0
1.537194242E1,-3.364936368E0,-1.298678291E-1,-1.264051080E-2,3.367465248E0
1.538188842E1,-3.012933986E0,-2.952955002E-1,1.809175483E-1,3.032771306E0
1.539183442E1,-2.788218471E0,-4.510624015E-1,1.469814599E-1,2.828289781E0
1.540178042E1,-2.668216065E0,-4.861000872E-1,1.894953954E-1,2.718745808E0
1.541172642E1,-2.413120464E0,-4.904305351E-1,4.516822064E-1,2.503535360E0
1.542167242E1,-2.195258472E0,-6.759626877E-1,6.457735133E-1,2.386023626E0
1.543161842E1,-2.113275684E0,-8.100481135E-1,7.501615155E-1,2.384293263E0
1.544156342E1,-1.923482958E0,-9.376138937E-1,6.934552181E-1,2.249396951E0
1.545150942E1,-1.874873008E0,-1.120516554E0,5.774207683E-1,2.259230153E0
1.546145542E1,-1.807415435E0,-1.249130155E0,3.689897132E-1,2.227830807E0
1.547140142E1,-1.553506381E0,-1.302129318E0,1.940036352E-1,2.036310449E0
1.548134742E1,-1.356604902E0,-1.474632704E0,1.013205894E-1,2.006286205E0
1.549129342E1,-9.750354892E-1,-1.558020431E0,2.558402431E-1,1.855687501E0
1.550123942E1,-3.840519945E-1,-1.585886507E0,3.011784204E-1,1.659289121E0
1.551118442E1,3.404073536E-2,-1.788490191E0,3.846649289E-2,1.789227656E0
1.552113042E1,4.344285348E-1,-1.819056510E0,-5.458373984E-2,1.871008852E0
1.553107642E1,9.765975729E-1,-1.771458421E0,-7.405493142E-2,2.024176842E0
1.554102242E1,1.374604386E0,-1.788901250E0,-3.556510448E-1,2.283898545E0
1.555096842E1,1.760065706E0,-1.754237786E0,-4.582696795E-1,2.526893864E0
1.556091442E1,2.245974589E0,-1.725187064E0,-3.845316124E-1,2.858065224E0
1.557086042E1,2.708843104E0,-1.646020442E0,-3.137183225E-1,3.185221098E0
1.558080542E1,3.223081162E0,-1.475941896E0,-2.547894984E-1,3.554092619E0
1.559075142E1,3.600800476E0,-1.302886532E0,-2.697215148E-1,3.838753323E0
1.560069742E1,3.829868950E0,-1.187582948E0,-1.635325885E-1,4.013102582E0
1.561064342E1,4.031619524E0,-1.017713732E0,1.012843001E-1,4.159321548E0
1.562058942E1,4.301449231E0,-7.203453934E-1,3.404658258E-1,4.374617692E0
1.563053542E1,4.442322105E0,-5.717120951E-1,4.264965310E-1,4.499219898E0
1.564048142E1,4.376319319E0,-5.022027344E-1,4.692928870E-1,4.429967741E0
1.565042642E1,4.277577388E0,-3.749164510E-1,5.884351319E-1,4.334107355E0
1.566037242E1,4.248861712E0,-2.559530944E-1,7.205512154E-1,4.317120787E0
1.567031842E1,4.224896899E0,-2.307042325E-1,7.942530298E-1,4.305091883E0
1.568026442E1,4.229001644E0,-2.327998745E-1,9.653419751E-1,4.344022999E0
1.569021042E1,4.221264609E0,-2.963310421E-1,9.653027987E-1,4.340356722E0
1.570015642E1,4.173887251E0,-3.736095983E-1,1.122425669E0,4.338289790E0
1.571010242E1,4.019770142E0,-4.852931714E-1,1.289181828E0,4.249241255E0
1.572004742E1,3.683546471E0,-5.171254134E-1,1.150465407E0,3.893520765E0
1.572999342E1,3.308878527E0,-5.428286040E-1,1.081620875E0,3.523243352E0
1.573993942E1,2.936148350E0,-7.215148365E-1,1.001784747E0,3.185141044E0
1.574988542E1,2.671537868E0,-9.235665429E-1,1.004814774E0,2.999957078E0
1.575983142E1,2.334277778E0,-1.015630369E0,1.059459343E0,2.757319693E0
1.576977742E1,1.948775235E0,-1.042904121E0,1.030296940E0,2.438623732E0
1.577972342E1,1.670443823E0,-1.130196619E0,9.349417162E-1,2.223025636E0
1.578966842E1,1.497927281E0,-1.186846198E0,9.530458653E-1,2.135576376E0
1.579961442E1,1.324532340E0,-1.270145048E0,1.032599573E0,2.105686643E0
1.580956042E1,1.073617791E0,-1.394736350E0,1.053897471E0,2.051498118E0
1.581950642E1,8.244924903E-1,-1.464553274E0,1.118460088E0,2.018825680E0
1.582945242E1,5.777687873E-1,-1.482699523E0,9.651460934E-1,1.861107635E0
1.583939842E1,2.630131687E-1,-1.553979421E0,6.635642517E-1,1.710071777E0
1.584934442E1,-7.043037035E-2,-1.494918450E0,5.934561360E-1,1.609947761E0
1.585928942E1,-3.571375532E-1,-1.411054759E0,4.436913649E-1,1.521671710E0
1.586923542E1,-6.906298435E-1,-1.369382823E0,7.314515948E-2,1.535424733E0
1.587918142E1,-1.176513730E0,-1.312482398E0,-2.383125929E-1,1.778647658E0
1.588912742E1,-1.653369954E0,-1.190250447E0,-5.068880717E-1,2.099348434E0
1.589907342E1,-1.969512970E0,-1.038383639E0,-7.489242446E-1,2.349065654E0
1.590901942E1,-2.074644154E0,-1.032300196E0,-7.598749101E-1,2.438688569E0
1.591896542E1,-2.088093042E0,-1.046646339E0,-5.295285273E-1,2.394995109E0
1.592891042E1,-2.077056130E0,-1.007506247E0,-2.943792415E-1,2.327206511E0
1.593885642E1,-2.079581250E0,-9.016593647E-1,-2.567114782E-1,2.281128793E0
1.594880242E1,-2.097516415E0,-7.644556189E-1,-2.439517573E-1,2.245769348E0
1.595874842E1,-2.373377232E0,-6.559166783E-1,-2.377010472E-1,2.473792223E0
1.596869442E1,-2.627051959E0,-6.528135610E-1,-2.490411007E-1,2.718379850E0
1.597864042E1,-2.798833507E0,-6.411957282E-1,-3.573841596E-1,2.893496915E0
1.598858642E1,-3.021459226E0,-5.887719315E-1,-4.020662792E-1,3.104436428E0
1.599853242E1,-3.177718171E0,-4.590993994E-1,-3.242889555E-1,3.227046383E0
