"Time (s)","Linear Acceleration x (m/s^2)","Linear Acceleration y (m/s^2)","Linear Acceleration z (m/s^2)","Absolute acceleration (m/s^2)"
1.217374986E-3,-2.417667442E-2,-6.824534808E-2,-6.585777462E-2,9.787331403E-2
1.116337499E-2,-1.916709525E-2,-5.515588989E-2,-5.702497065E-2,8.161738178E-2
2.110937500E-2,-1.255261070E-2,-5.196705602E-2,-4.445111811E-2,6.952729571E-2
3.105537497E-2,-3.660151432E-3,-5.561234730E-2,9.028100967E-4,5.573997620E-2
4.100137498E-2,3.635414969E-4,-5.104040938E-2,-5.684078336E-3,5.135722246E-2
5.094737498E-2,-3.866357147E-3,-6.155140992E-2,-1.780944943E-2,6.419268860E-2
6.089337499E-2,-3.106378997E-3,-5.167716203E-2,-1.601435423E-2,5.419075758E-2
7.083937500E-2,1.539944641E-2,-3.684191711E-2,4.342727065E-3,4.016626800E-2
8.078537497E-2,1.760116065E-2,-3.275610209E-2,-1.452097535E-2,3.992019295E-2
9.073137498E-2,3.208087202E-2,-2.351445897E-2,-7.274988770E-2,8.291355915E-2
1.006773750E-1,2.474914881E-2,-3.953171854E-2,-1.193030798E-1,1.280956752E-1
1.106233750E-1,1.289215120E-3,-4.485721637E-2,-6.137237549E-2,7.602894455E-2
1.205693750E-1,-2.482328968E-2,-5.916617534E-2,-2.260416627E-2,6.802779099E-2
1.305153750E-1,-3.907279890E-2,-6.317443253E-2,-1.781471193E-2,7.638754153E-2
1.404613750E-1,-4.625763366E-2,-6.301925291E-2,-3.143580079E-2,8.425796390E-2
1.504073750E-1,-3.574471450E-2,-5.488602262E-2,-6.735992432E-3,6.584476963E-2
1.603533750E-1,-4.222135551E-2,-3.030861293E-2,7.484436035E-4,5.197898659E-2
1.702983750E-1,-4.633980074E-2,-2.335139475E-2,-7.035369873E-3,5.236564904E-2
1.802443750E-1,-5.653222853E-2,-1.808114396E-2,-5.523630738E-2,8.107940727E-2
1.901903750E-1,-7.537579003E-2,-1.929634156E-2,-7.499580324E-2,1.080658550E-1
2.001363750E-1,-8.027691705E-2,-1.735958842E-2,-4.610529542E-2,9.418830600E-2
2.100823750E-1,-7.507642172E-2,-2.268064602E-2,-2.425074220E-2,8.209128638E-2
2.200283750E-1,-5.328843540E-2,-2.150033073E-2,-3.098673463E-2,6.528475543E-2
2.299743750E-1,-3.994841945E-2,-2.845055966E-2,-3.053883791E-2,5.777483174E-2
2.399203750E-1,-3.669776497E-2,-3.264925336E-2,-1.317494631E-2,5.085547079E-2
2.498663750E-1,-4.335838771E-2,-6.057767493E-2,-7.785567641E-3,7.490139884E-2
2.598123750E-1,-3.569121248E-2,-5.811696558E-2,-3.817179322E-2,7.815708627E-2
2.697583750E-1,-2.957260380E-2,-6.790432750E-2,-5.029599488E-2,8.952778166E-2
2.797043750E-1,-1.144637232E-2,-5.861894905E-2,-5.344004273E-2,8.014386311E-2
2.896503750E-1,1.472341692E-2,-4.603046020E-2,-2.649607301E-2,5.511464557E-2
2.995963750E-1,2.507646041E-2,-4.303388095E-2,-2.215510011E-2,5.451231271E-2
3.095423750E-1,1.992645670E-2,-4.401497978E-2,-4.550595582E-2,6.637148587E-2
3.194883750E-1,1.286921916E-2,-5.197191652E-2,-3.398109376E-2,6.341460117E-2
3.294343750E-1,-5.349370921E-3,-5.909655693E-2,-4.793547392E-3,5.953147829E-2
3.393803750E-1,3.423796012E-3,-6.541383390E-2,-4.944405556E-3,6.568971907E-2
3.493263750E-1,9.109002678E-3,-6.211693618E-2,-3.024296880E-2,6.968590138E-2
3.592713750E-1,8.787748427E-3,-5.823057516E-2,-5.838561773E-2,8.292710512E-2
3.692173750E-1,2.433040137E-3,-5.779223498E-2,-3.308997810E-2,6.663939345E-2
3.791633750E-1,-7.050746223E-3,-4.964779448E-2,-3.249180794E-2,5.975227278E-2
3.891093750E-1,-2.656310129E-2,-4.615739959E-2,-4.012768686E-2,6.668084537E-2
3.990553750E-1,-4.843500886E-2,-4.182654968E-2,-3.324200571E-2,7.211408521E-2
4.090013750E-1,-4.161103867E-2,-3.128473249E-2,-2.785204232E-2,5.904192822E-2
4.189473750E-1,-3.353310568E-2,-2.169294166E-2,-5.548422933E-3,4.032168017E-2
4.288933750E-1,-4.726170565E-2,-1.392971221E-2,-2.620722055E-2,5.580792160E-2
4.388393750E-1,-4.267831998E-2,-1.415633750E-2,-3.384193003E-2,5.627714560E-2
4.487853750E-1,-5.129123210E-2,-2.810710883E-2,-3.489092052E-2,6.810415840E-2
4.587313750E-1,-6.370696770E-2,-3.827264856E-2,-3.414247692E-2,8.178680878E-2
4.686773750E-1,-7.092862621E-2,-4.800470861E-2,-4.282500744E-2,9.575647929E-2
4.786233750E-1,-6.664081729E-2,-4.427415761E-2,-5.045913219E-2,9.459029328E-2
4.885693750E-1,-4.583488454E-2,-4.635648815E-2,-4.237711072E-2,7.775332885E-2
4.985153750E-1,-2.636872248E-2,-3.610472026E-2,-3.444419324E-2,5.643813249E-2
5.084613750E-1,-2.027951432E-2,-2.807563436E-2,-1.663123548E-2,3.842002004E-2
5.184073750E-1,-1.857852731E-2,-3.213542014E-2,-2.905598402E-2,4.713912507E-2
5.283533750E-1,-1.403210701E-2,-3.676451460E-2,-3.130131483E-2,5.028222221E-2
5.382983750E-1,-7.915905733E-3,-4.224610568E-2,-3.369691908E-2,5.461572452E-2
5.482443750E-1,1.055148337E-4,-4.495709413E-2,-3.803789198E-2,5.889000486E-2
5.581903750E-1,-4.553062376E-4,-5.267787645E-2,-3.998443007E-2,6.613562292E-2
5.681363750E-1,1.501727148E-2,-5.570403895E-2,-4.687128067E-2,7.433286857E-2
5.780823750E-1,1.629091382E-2,-6.111544518E-2,-3.848871231E-2,7.403966834E-2
5.880283750E-1,-9.625065140E-5,-6.252652450E-2,-2.397007585E-2,6.696372201E-2
5.979743750E-1,-1.654067673E-2,-7.320629943E-2,-1.513902605E-2,7.656334876E-2
6.079203750E-1,-7.196899205E-3,-6.082832862E-2,-1.738552630E-2,6.367210885E-2
6.178663750E-1,-1.415846169E-2,-4.759603391E-2,-1.977996111E-2,5.345176651E-2
6.278123750E-1,-3.429373708E-3,-3.967979014E-2,-2.891097307E-2,4.921474082E-2
6.377583750E-1,-9.302175497E-3,-2.819440593E-2,-4.477856219E-2,5.372685200E-2
6.477043750E-1,-2.122128149E-2,-1.967726938E-2,-5.241210222E-2,5.987124667E-2
6.576503750E-1,-3.279251928E-2,-3.117234718E-2,-4.148541033E-2,6.138488266E-2
6.675963750E-1,-5.217112385E-2,-3.237498240E-2,-2.905949235E-2,6.792952042E-2
6.775423750E-1,-6.075815746E-2,-3.654025560E-2,-2.022727311E-2,7.372846502E-2
6.874883750E-1,-5.813278961E-2,-4.113115129E-2,-2.950855851E-2,7.708403116E-2
6.974343750E-1,-4.954053918E-2,-4.067773626E-2,-3.609544694E-2,7.356510409E-2
7.073803750E-1,-4.288960547E-2,-3.545512201E-2,-3.579665422E-2,6.616633878E-2
7.173263750E-1,-4.733808034E-2,-4.064652675E-2,-3.594517350E-2,7.200756547E-2
7.272723750E-1,-4.442917735E-2,-3.597111139E-2,-4.163392961E-2,7.071956412E-2
7.372183750E-1,-5.212615510E-2,-3.037778366E-2,-3.983941913E-2,7.229885962E-2
7.471638750E-1,-4.753213938E-2,-3.345721979E-2,-3.639774799E-2,6.858196475E-2
7.571098750E-1,-3.884484429E-2,-2.412426875E-2,-2.966175556E-2,5.450433023E-2
7.670558750E-1,-2.419902175E-2,-2.171774665E-2,-2.142829120E-2,3.894129989E-2
7.770018750E-1,-1.076931043E-2,-2.762126002E-2,-3.310401142E-2,4.443858261E-2
7.869478750E-1,-4.815278021E-3,-4.261104503E-2,-2.307486713E-2,4.869638132E-2
7.968938750E-1,-1.060184252E-2,-5.492577455E-2,-2.846424580E-2,6.276506244E-2
8.068398750E-1,-1.365943837E-2,-6.410075940E-2,-3.534992695E-2,7.446546144E-2
8.167858750E-1,-1.157023279E-2,-6.487376131E-2,-2.996054828E-2,7.238860164E-2
8.267318750E-1,-6.717578270E-3,-5.780004649E-2,-3.100836933E-2,6.593550031E-2
8.366778750E-1,2.784160869E-3,-5.646587634E-2,-3.026051044E-2,6.412367140E-2
8.466238750E-1,3.890910884E-3,-4.574101388E-2,-2.547047138E-2,5.249880428E-2
8.565698750E-1,9.818269936E-3,-4.634366996E-2,-2.936237812E-2,5.573404183E-2
8.665158750E-1,-6.298593292E-4,-4.250327353E-2,-2.756728292E-2,5.066438662E-2
8.764618750E-1,-1.678254589E-2,-4.086279150E-2,-1.634004414E-2,4.710009149E-2
8.864078750E-1,-2.953233110E-2,-3.883833926E-2,-2.247728169E-2,5.371967395E-2
8.963538750E-1,-2.694311092E-2,-3.435521507E-2,-3.131008565E-2,5.372646919E-2
9.062998750E-1,-2.552103609E-2,-3.569311283E-2,-2.607156515E-2,5.103967178E-2
9.162458750E-1,-2.128141645E-2,-3.336190104E-2,-3.131067038E-2,5.046061044E-2
9.261918750E-1,-3.731109678E-2,-3.801751809E-2,-3.265786886E-2,6.248188556E-2
9.361368750E-1,-5.970949131E-2,-4.483256671E-2,-3.804724753E-2,8.380200138E-2
9.460828750E-1,-6.192924969E-2,-4.304538351E-2,-4.178946555E-2,8.622352602E-2
9.560288750E-1,-6.080876329E-2,-3.622023932E-2,-3.610070944E-2,7.945358803E-2
9.659748750E-1,-5.747526107E-2,-2.708116002E-2,-4.283728659E-2,7.662785385E-2
9.759208750E-1,-4.401303832E-2,-2.096221330E-2,-1.544600487E-2,5.113844928E-2
9.858668750E-1,-2.334706872E-2,-2.948941802E-2,-2.832040429E-2,4.708244569E-2
9.958128750E-1,-3.059045786E-2,-2.006643813E-2,-3.101597071E-2,4.796278234E-2
1.005758875E0,-3.314341617E-2,-2.772090937E-2,-3.505756617E-2,5.564142159E-2
1.015704875E0,-3.117989374E-2,-3.937357876E-2,-3.460791528E-2,6.099321502E-2
1.025650875E0,-1.932006846E-2,-4.014643449E-2,-3.206320703E-2,5.489126062E-2
1.035596875E0,-1.434116433E-2,-4.653513429E-2,-3.221231103E-2,5.838510683E-2
1.045542875E0,-2.349484339E-4,-4.972098974E-2,-3.894888818E-2,6.316049329E-2
1.055488875E0,1.047620047E-3,-4.770176345E-2,-1.410056055E-2,4.975320645E-2
1.065434875E0,4.258508887E-3,-6.079716478E-2,-2.472787499E-2,6.577155879E-2
1.075380875E0,-1.562033412E-3,-5.866309096E-2,-3.236258447E-2,6.701593141E-2
1.085326875E0,-1.312904567E-2,-4.525870996E-2,-3.730114281E-2,6.010073146E-2
1.095272875E0,-6.910344525E-3,-3.811395147E-2,-3.520608544E-2,5.234400262E-2
1.105218875E0,-1.109847212E-3,-3.827793389E-2,-3.984526634E-2,5.526370630E-2
1.115164875E0,-2.220672006E-3,-3.213703270E-2,-2.772047997E-2,4.249876780E-2
1.125110875E0,4.658357939E-3,-4.646477127E-2,-3.819752097E-2,6.033014070E-2
1.135056875E0,-1.331205895E-2,-4.812739050E-2,-2.577335715E-2,5.619361680E-2
1.145002875E0,-2.045802799E-2,-5.786473589E-2,-1.454845726E-2,6.307548000E-2
1.154947875E0,-2.733470078E-2,-4.968117842E-2,-1.589624047E-2,5.889054098E-2
1.164893875E0,-4.369066031E-2,-5.091586369E-2,-2.891915917E-2,7.305899493E-2
1.174839875E0,-3.528189825E-2,-4.643325570E-2,-3.760110497E-2,6.938805858E-2
1.184785875E0,-3.560725012E-2,-3.295686258E-2,-3.176324487E-2,5.799081631E-2
1.194731875E0,-3.439512231E-2,-2.630349405E-2,-3.879919946E-2,5.814014204E-2
1.204677875E0,-4.435569429E-2,-1.986882508E-2,-3.835071802E-2,6.191102809E-2
1.214623875E0,-4.709481790E-2,-2.201748041E-2,-3.445705712E-2,6.236970500E-2
1.224569875E0,-4.814166136E-2,-2.678379256E-2,-1.814040184E-2,5.800056277E-2
1.234515875E0,-4.895426902E-2,-2.245220262E-2,-2.143472314E-2,5.796610401E-2
1.244461875E0,-4.799787467E-2,-3.298607582E-2,-2.547807276E-2,6.356893394E-2
1.254407875E0,-3.294356473E-2,-3.815483630E-2,-4.014815211E-2,6.444334029E-2
1.264353875E0,-3.363485180E-2,-3.579061058E-2,-4.643566310E-2,6.759098956E-2
1.274299875E0,-3.489970505E-2,-3.858654811E-2,-3.580951810E-2,6.316037281E-2
1.284245875E0,-3.821797709E-2,-4.896083343E-2,-3.536045194E-2,7.147124278E-2
1.294191875E0,-3.406898016E-2,-4.847165903E-2,-1.275745511E-2,6.060486613E-2
1.304137875E0,-1.980131258E-2,-4.757792582E-2,-1.634939969E-2,5.406527421E-2
1.314083875E0,-7.518962016E-3,-3.979366923E-2,-1.320535183E-2,4.259638738E-2
1.324029875E0,-7.575067878E-4,-3.726700969E-2,-1.844328761E-2,4.158796323E-2
1.333975875E0,3.014564007E-3,-2.728995130E-2,-2.727433741E-2,3.870036847E-2
1.343921875E0,-1.080186297E-3,-3.806398062E-2,-3.805251002E-2,5.383332557E-2
1.353867875E0,-9.651875538E-3,-4.828512371E-2,-4.943002224E-2,6.977061682E-2
1.363813875E0,-1.097542935E-2,-5.298338433E-2,-3.969967067E-2,6.711008058E-2
1.373758875E0,-1.145311032E-2,-5.799843156E-2,-2.009103298E-2,6.243910157E-2
1.383704875E0,-9.905183315E-3,-6.515065895E-2,-2.667850614E-2,7.109475162E-2
1.393650875E0,-1.227069268E-2,-4.969481888E-2,-1.320652127E-2,5.286357089E-2
1.403596875E0,-1.580434782E-2,-4.254392539E-2,-1.634998441E-2,4.823986927E-2
1.413542875E0,-1.922566334E-2,-4.219126976E-2,-2.218842924E-2,5.140093158E-2
1.423488875E0,-3.355830810E-2,-3.231779389E-2,-2.982196927E-2,5.531681205E-2
1.433434875E0,-3.704695338E-2,-3.041169295E-2,-4.898154080E-2,6.853130060E-2
1.443380875E0,-3.548320235E-2,-2.680125198E-2,-4.434119046E-2,6.279734014E-2
1.453326875E0,-3.893347529E-2,-2.043082930E-2,-4.613803983E-2,6.373345278E-2
1.463272875E0,-3.773697051E-2,-2.283167778E-2,-3.371504545E-2,5.551638266E-2
1.473218875E0,-3.811482855E-2,-2.537158035E-2,-2.518337309E-2,5.225571285E-2
1.483164875E0,-4.773619350E-2,-4.194317880E-2,-1.785037994E-2,6.600462470E-2
1.493110875E0,-5.374330309E-2,-4.791641565E-2,-1.470691681E-2,7.348890337E-2
1.503056875E0,-4.666982125E-2,-4.217705829E-2,-2.488633454E-2,6.764840063E-2
1.513002875E0,-4.210130030E-2,-4.212341922E-2,-3.461493194E-2,6.888465320E-2
1.522948875E0,-3.128476904E-2,-3.507308413E-2,-4.284781158E-2,6.359868679E-2
1.532894875E0,-2.217469742E-2,-3.384559368E-2,-4.329687774E-2,5.926095712E-2
1.542840875E0,-1.727954095E-2,-2.975452986E-2,-4.688940704E-2,5.815953125E-2
1.552786875E0,-1.170190478E-2,-3.203241779E-2,-2.653057158E-2,4.320742521E-2
1.562732875E0,-1.519234534E-2,-3.760053396E-2,-2.308831573E-2,4.666559583E-2
1.572678875E0,-4.107595906E-3,-3.986256588E-2,-1.904672027E-2,4.436974257E-2
1.582623875E0,9.848858183E-4,-4.656060623E-2,-2.952317655E-2,5.514052961E-2
1.592569875E0,-8.092149035E-3,-5.295936049E-2,-1.814566433E-2,5.656360910E-2
1.602515875E0,3.763368493E-3,-5.179006811E-2,-2.697905302E-2,5.851703512E-2
1.612461875E0,3.402823694E-3,-5.233023207E-2,-3.431438506E-2,6.266984458E-2
1.622407875E0,-1.573873110E-2,-5.555861230E-2,-3.551247954E-2,6.779087889E-2
1.632353875E0,-2.702943044E-2,-5.360873491E-2,-3.311921418E-2,6.856652912E-2
1.642299875E0,-1.997955673E-2,-4.348829640E-2,-4.464466095E-2,6.544891414E-2
1.652245875E0,-1.335046784E-2,-4.736501408E-2,-3.416586578E-2,5.990814581E-2
1.662191875E0,-1.372262028E-2,-2.409835371E-2,-1.919699371E-2,3.372781532E-2
1.672137875E0,-1.441329522E-2,-2.426870868E-2,-3.102181792E-2,4.194122658E-2
1.682083875E0,-2.228055029E-2,-2.040181249E-2,-3.266722441E-2,4.449499326E-2
1.692029875E0,-4.055209878E-2,-3.022339890E-2,-2.533306181E-2,5.656580750E-2
1.701975875E0,-4.787622975E-2,-3.679485159E-2,-2.413613677E-2,6.502728333E-2
1.711921875E0,-4.393676413E-2,-3.565337460E-2,-3.236960113E-2,6.518737178E-2
1.721867875E0,-3.802008995E-2,-4.506317998E-2,-3.880621612E-2,7.058427473E-2
1.731813875E0,-3.494303383E-2,-4.102723074E-2,-4.239816070E-2,6.857006129E-2
1.741759875E0,-2.415286529E-2,-3.274572328E-2,-3.955407500E-2,5.674652539E-2
1.751709000E0,-3.522486962E-2,-3.329203594E-2,-2.413672149E-2,5.414547462E-2
1.761655000E0,-3.274394627E-2,-3.271696229E-2,-1.874792755E-2,4.994046882E-2
1.771601000E0,-2.935430622E-2,-3.424977789E-2,-2.578271270E-2,5.195643226E-2
1.781547000E0,-2.208269970E-2,-3.089230666E-2,-1.949520171E-2,4.268539711E-2
1.791493000E0,-1.223815384E-2,-2.816063826E-2,-3.221815825E-2,4.450622066E-2
1.801438000E0,-6.702160807E-3,-2.977915669E-2,-4.029959500E-2,5.055466833E-2
1.811384000E0,-5.453524450E-3,-4.087323883E-2,-3.880329251E-2,5.662206364E-2
1.821330000E0,-9.532450726E-3,-4.812767372E-2,-3.281574368E-2,5.902553370E-2
1.831276000E0,-1.982812755E-2,-4.956518428E-2,-2.742578030E-2,6.001696060E-2
1.841222000E0,-1.246303867E-2,-4.614286378E-2,-2.488107204E-2,5.388468202E-2
1.851168000E0,-3.243688066E-3,-5.284384601E-2,-3.625799954E-2,6.416880943E-2
1.861114000E0,5.790191595E-3,-4.541129944E-2,-2.233636379E-2,5.093746738E-2
1.871060000E0,1.671120529E-3,-3.947207237E-2,-3.056807399E-2,4.995242025E-2
1.881006000E0,-4.660025309E-3,-3.540315032E-2,-3.715437770E-2,5.153199657E-2
1.890952000E0,-1.607342024E-2,-2.971391912E-2,-4.194441676E-2,5.385727365E-2
1.900898000E0,-1.555396822E-2,-2.789040553E-2,-3.460966945E-2,4.709171761E-2
1.910844000E0,-1.709244832E-2,-3.228857608E-2,-3.715437770E-2,5.210711772E-2
1.920790000E0,-2.643386411E-2,-3.460805689E-2,-2.562776148E-2,5.052968368E-2
1.930736000E0,-3.267517297E-2,-3.561888973E-2,-2.622651637E-2,5.499274857E-2
1.940682000E0,-2.814579638E-2,-3.802429264E-2,-1.604885280E-2,4.995596422E-2
1.950628000E0,-4.445893419E-2,-3.938965861E-2,-2.278426051E-2,6.361811505E-2
1.960574000E0,-3.791993811E-2,-4.225218130E-2,-2.667558253E-2,6.272762736E-2
1.970520000E0,-4.880045070E-2,-3.756063585E-2,-3.445881128E-2,7.056695423E-2
1.980466000E0,-5.136042110E-2,-3.335184657E-2,-3.266313136E-2,6.940546574E-2
1.990412000E0,-3.637529103E-2,-2.722885247E-2,-3.341215968E-2,5.639986364E-2
2.000358000E0,-3.316180292E-2,-2.573986814E-2,-3.954998195E-2,5.767535919E-2
2.010304000E0,-2.434210494E-2,-1.734002308E-2,-3.386181056E-2,4.516455124E-2
2.020249000E0,-2.451426433E-2,-2.272562390E-2,-2.024013698E-2,3.907769546E-2
2.030195000E0,-2.341175811E-2,-2.631283589E-2,-1.874324977E-2,3.989718239E-2
2.040141000E0,-2.586530462E-2,-4.275048285E-2,-2.727492213E-2,5.692573358E-2
2.050087000E0,-2.096834374E-2,-4.501594087E-2,-3.191468775E-2,5.903095515E-2
2.060033000E0,-1.754166066E-2,-5.040635194E-2,-2.143472314E-2,5.751484617E-2
2.069979000E0,-7.420436433E-3,-5.680508793E-2,-2.877005517E-2,6.410613829E-2
2.079925000E0,-1.047100193E-2,-5.048412904E-2,-3.595569849E-2,6.285778727E-2
2.089871000E0,-1.235502049E-2,-4.866713875E-2,-3.865009546E-2,6.336376571E-2
2.099817000E0,-5.857091965E-3,-4.819720077E-2,-2.293277979E-2,5.369532640E-2
2.109763000E0,-1.040066175E-2,-4.134305804E-2,-1.784453273E-2,4.621525247E-2
2.119709000E0,-1.215940372E-2,-3.502621047E-2,-2.637737453E-2,4.550222419E-2
2.129655000E0,-1.062629119E-2,-3.299992641E-2,-2.727609158E-2,4.411233817E-2
2.139601000E0,2.416142598E-3,-3.233793480E-2,-3.026928127E-2,4.435999505E-2
2.149547000E0,-1.112823810E-2,-3.412221266E-2,-3.041896999E-2,4.704760159E-2
2.159493000E0,-1.657031480E-2,-4.042800077E-2,-3.685616970E-2,5.716096416E-2
2.169439000E0,-2.316636692E-2,-3.863550483E-2,-3.775313258E-2,5.877654132E-2
2.179385000E0,-3.404514362E-2,-3.759814939E-2,-3.146620631E-2,5.968931882E-2
2.189331000E0,-3.084603600E-2,-4.277678618E-2,-3.146503687E-2,6.141156176E-2
2.199277000E0,-3.558148126E-2,-4.213428682E-2,-3.176324487E-2,6.364152464E-2
2.209223000E0,-3.137555163E-2,-2.875127099E-2,-2.233110130E-2,4.805974312E-2
2.219169000E0,-1.842864216E-2,-1.940578042E-2,-2.337775290E-2,3.553475055E-2
2.229114000E0,-2.472493311E-2,-2.010990396E-2,-2.936530173E-2,4.333649155E-2
2.239060000E0,-3.330077022E-2,-1.993123041E-2,-3.834604025E-2,5.455835450E-2
2.249006000E0,-4.328483613E-2,-2.932523916E-2,-4.762557149E-2,7.072299308E-2
2.258952000E0,-3.300611167E-2,-2.479780404E-2,-3.879393697E-2,5.665071966E-2
2.268898000E0,-2.254549768E-2,-2.831798318E-2,-2.951265156E-2,4.670336433E-2
2.278844000E0,-1.659279004E-2,-3.864918640E-2,-3.041195333E-2,5.190344108E-2
2.288790000E0,-1.789719878E-2,-4.272277253E-2,-2.666739643E-2,5.344805936E-2
2.298736000E0,-1.546614122E-2,-4.836653248E-2,-2.726556659E-2,5.763622220E-2
2.308682000E0,-1.416106552E-2,-4.016948075E-2,-3.549786150E-2,5.544565927E-2
2.318628000E0,-2.439960408E-2,-3.841178488E-2,-2.008109272E-2,4.973988522E-2
2.328574000E0,-1.653939765E-2,-3.677832864E-2,-1.065070331E-2,4.170892726E-2
2.338520000E0,-8.698318005E-3,-2.797620429E-2,-2.726556659E-2,4.002174239E-2
2.348466000E0,3.219942888E-3,-2.730529568E-2,-3.205560565E-2,4.223161207E-2
2.358412000E0,8.513788101E-3,-3.121139562E-2,-4.178537250E-2,5.284555950E-2
2.368358000E0,1.404190566E-3,-3.780834309E-2,-3.534875751E-2,5.177815384E-2
2.378304000E0,-1.136790086E-2,-5.083505334E-2,-2.891272724E-2,5.957665327E-2
2.388250000E0,-1.441917441E-2,-4.696016748E-2,-3.669595599E-2,6.131690719E-2
2.398196000E0,-1.664823809E-2,-5.327011260E-2,-3.445004046E-2,6.558714825E-2
2.408142000E0,-2.153554650E-2,-5.037741279E-2,-1.693646014E-2,5.734550692E-2
2.418088000E0,-1.306409589E-2,-4.701436386E-2,-1.933147967E-2,5.248549435E-2
2.428034000E0,-1.210925014E-2,-3.562895791E-2,-3.684622943E-2,5.266593970E-2
2.437980000E0,-2.896897014E-2,-3.539116352E-2,-4.178712666E-2,6.195078402E-2
2.447925000E0,-1.934436638E-2,-2.416014690E-2,-4.103926778E-2,5.140173838E-2
2.457871000E0,-3.142584225E-2,-1.764012229E-2,-2.876420796E-2,4.611005460E-2
2.467817000E0,-3.098343643E-2,-1.882063402E-2,-2.711763203E-2,4.527201746E-2
2.477763000E0,-2.607959137E-2,-2.279126347E-2,-2.651887715E-2,4.362152704E-2
2.487709000E0,-2.898355164E-2,-2.409195375E-2,-2.412385762E-2,4.474850843E-2
2.497655000E0,-2.869530218E-2,-3.150642419E-2,-2.547164083E-2,4.964755401E-2
2.507601000E0,-3.569684043E-2,-2.509867983E-2,-3.729646504E-2,5.740413269E-2
2.517547000E0,-3.812177669E-2,-4.556492590E-2,-4.358280659E-2,7.368102442E-2
2.527493000E0,-3.914821885E-2,-4.772532590E-2,-4.298405170E-2,7.521913635E-2
2.537439000E0,-3.307054524E-2,-4.421426933E-2,-3.924183369E-2,6.773835019E-2
2.547385000E0,-1.785881729E-2,-3.163465180E-2,-3.011199117E-2,4.718496118E-2
2.557331000E0,2.940692659E-4,-3.072302520E-2,-2.681942403E-2,4.078323503E-2
2.567277000E0,-1.085707348E-2,-3.763838097E-2,-2.906417012E-2,4.877755377E-2
2.577223000E0,-1.194641432E-2,-3.151885866E-2,-1.873506367E-2,3.856368599E-2
2.587169000E0,-1.119008155E-2,-3.457402427E-2,-1.319716573E-2,3.866194851E-2
2.597115000E0,-8.006350282E-3,-4.089842297E-2,-3.639833272E-2,5.533191910E-2
2.607061000E0,-4.038690124E-5,-4.716060364E-2,-3.594868183E-2,5.929951005E-2
2.617007000E0,-6.515127565E-3,-4.625520798E-2,-2.921210468E-2,5.509390358E-2
2.626953000E0,-1.641628635E-3,-4.711325033E-2,-3.385128558E-2,5.803673696E-2
2.636899000E0,-8.636383200E-4,-4.770135232E-2,-3.100719988E-2,5.690001168E-2
2.646845000E0,-1.151230881E-2,-4.278972315E-2,-4.268116593E-2,6.152378066E-2
2.656791000E0,-1.273058076E-2,-4.029843469E-2,-4.642338395E-2,6.277867554E-2
2.666736000E0,-7.825675886E-3,-3.874390216E-2,-2.337073624E-2,4.591865057E-2
2.676682000E0,-1.284033939E-2,-3.573961189E-2,-1.917945206E-2,4.254463016E-2
2.686628000E0,-1.292906175E-2,-2.661046830E-2,-1.453968644E-2,3.296483191E-2
2.696574000E0,-2.020814632E-2,-2.485796184E-2,-2.456941545E-2,4.037256023E-2
2.706520000E0,-2.617737235E-2,-3.571005605E-2,-4.073521256E-2,6.016494385E-2
2.716466000E0,-3.273539015E-2,-3.774973389E-2,-3.399922013E-2,6.043670364E-2
2.726412000E0,-3.999516063E-2,-3.813241131E-2,-3.399863541E-2,6.488143707E-2
2.736358000E0,-2.571666200E-2,-3.318408173E-2,-3.190240860E-2,5.272849001E-2
2.746300250E0,-3.230078214E-2,-2.779611918E-2,-4.642162979E-2,6.301533528E-2
2.756246250E0,-3.095469371E-2,-2.774438046E-2,-5.091229141E-2,6.572674590E-2
2.766192250E0,-2.352418911E-2,-2.786094562E-2,-6.904392242E-3,3.711186328E-2
2.776138250E0,-2.241227710E-2,-3.471478685E-2,-3.669361711E-2,5.526163341E-2
2.786084250E0,-2.608747597E-2,-3.393850502E-2,-1.603715837E-2,4.571180345E-2
2.796030250E0,-2.712377161E-2,-2.965355576E-2,-5.705245256E-2,6.978549060E-2
2.805976250E0,-2.277502831E-2,-2.448503282E-2,-5.136603534E-2,6.129182925E-2
2.815922250E0,-1.956324868E-2,-2.596493569E-2,-2.053074360E-2,3.845009775E-2
2.825868250E0,-1.310213477E-2,-2.765270708E-2,-3.250584126E-2,4.464266860E-2
2.835814250E0,-7.937750565E-3,-3.904086306E-2,-3.909156024E-2,5.581529320E-2
2.845760250E0,1.652290667E-3,-3.957669185E-2,-3.594868183E-2,5.349160988E-2
2.855706250E0,-8.946459219E-3,-3.514627482E-2,-4.064399600E-3,3.649409693E-2
2.865651250E0,-3.611683496E-3,-3.970305566E-2,-9.901674986E-3,4.107821873E-2
2.875597250E0,-4.262501439E-3,-4.909916120E-2,-3.519848406E-2,6.056261082E-2
2.885543250E0,4.622182860E-3,-4.525846328E-2,-3.654626727E-2,5.835514308E-2
2.895489250E0,5.898780786E-3,-3.695459935E-2,-3.968973041E-2,5.455009375E-2
2.905435250E0,-2.786307894E-3,-3.489087484E-2,-3.265436053E-2,4.786902882E-2
2.915381250E0,-7.944388068E-3,-3.801626185E-2,-2.651712298E-2,4.702666561E-2
2.925327250E0,-2.088241708E-2,-3.711865943E-2,-3.040902972E-2,5.233143711E-2
2.935273250E0,-2.500957374E-2,-3.195264440E-2,-3.430152118E-2,5.313233120E-2
2.945219250E0,-2.591249804E-2,-2.565328367E-2,-1.289603412E-2,3.867630042E-2
2.955165250E0,-1.637550202E-2,-3.380459008E-2,-3.459972918E-2,5.106905752E-2
2.965111250E0,-2.343211373E-2,-3.104033715E-2,-3.460031390E-2,5.205524187E-2
2.975057250E0,-2.313069433E-2,-3.374111124E-2,-4.403070331E-2,6.010153444E-2
2.985003250E0,-3.518481620E-2,-3.429923711E-2,-3.684564471E-2,6.141669554E-2
2.994949250E0,-3.798985345E-2,-3.739238678E-2,-2.427354634E-2,5.857153410E-2
3.004895250E0,-3.032065911E-2,-3.714636975E-2,-2.217965841E-2,5.283116885E-2
3.014841250E0,-2.702344618E-2,-4.340884279E-2,-1.963611960E-2,5.477382101E-2
3.024787250E0,-3.247807155E-2,-3.188948077E-2,-3.131242454E-2,5.524700939E-2
3.034733250E0,-1.904725931E-2,-2.456181407E-2,-2.502608299E-2,3.990470683E-2
3.044679250E0,-1.201612866E-2,-2.633716579E-2,-4.253966331E-2,5.145538460E-2
3.054625250E0,-1.803840904E-2,-3.127549572E-2,-4.358748436E-2,5.659867159E-2
3.064571250E0,-1.885640253E-2,-3.023480097E-2,-2.861802757E-2,4.570228231E-2
3.074516250E0,-2.518054085E-2,-3.954743293E-2,-3.146269798E-2,5.646202665E-2
3.084462250E0,-1.645405571E-2,-4.603895236E-2,-2.981612206E-2,5.726536666E-2
3.094408250E0,-6.202301527E-3,-3.929899022E-2,-2.532546043E-2,4.716204112E-2
3.104354250E0,-4.619245548E-3,-4.111868484E-2,-2.367829978E-2,4.767332119E-2
3.114300250E0,1.290681493E-3,-3.885908774E-2,-1.843860984E-2,4.303111539E-2
3.124246250E0,-1.145735869E-2,-4.170838568E-2,-2.307954490E-2,4.902576768E-2
3.134192250E0,-1.117452704E-2,-3.873189710E-2,-3.879569113E-2,5.594761441E-2
3.144138250E0,-1.682449509E-2,-3.550701605E-2,-3.819635153E-2,5.479756467E-2
3.154084250E0,-1.148742617E-2,-3.705939699E-2,-3.700001121E-2,5.361306459E-2
3.164030250E0,-7.219484076E-3,-3.198489089E-2,-3.834720969E-2,5.045456061E-2
3.173976250E0,-1.204467495E-2,-3.471494674E-2,-3.161180198E-2,4.847172110E-2
3.183922250E0,-9.972028867E-3,-3.500353424E-2,-2.322923362E-2,4.317737907E-2
3.193868250E0,-1.640996405E-2,-3.703733745E-2,-3.041487694E-2,5.065684579E-2
3.203814250E0,-2.228580822E-2,-4.154564579E-2,-3.206086814E-2,5.701400879E-2
3.213760250E0,-2.277147886E-2,-3.257339944E-2,-2.667090476E-2,4.786338643E-2
3.223706250E0,-1.832595501E-2,-3.606170668E-2,-2.023545921E-2,4.523009093E-2
3.233652250E0,-1.878224339E-2,-3.018494432E-2,-2.263047874E-2,4.214311448E-2
3.243598250E0,-1.873922068E-2,-2.725463504E-2,-4.418506980E-2,5.519324158E-2
3.253544250E0,-1.945497469E-2,-2.333975057E-2,-4.343721092E-2,5.300972825E-2
3.263489250E0,-2.825444039E-2,-2.842217782E-2,-2.128328025E-2,4.537743505E-2
3.273435250E0,-2.698800657E-2,-2.953352338E-2,-2.592421532E-2,4.767228169E-2
3.283381250E0,-2.511319280E-2,-2.812272272E-2,-3.849806786E-2,5.388563087E-2
3.293327250E0,-1.601579319E-2,-2.706896310E-2,-4.673270166E-2,5.633098436E-2
3.303273250E0,-9.466701527E-3,-3.804309509E-2,-1.948935449E-2,4.378048036E-2
3.313219250E0,-8.643573448E-3,-2.952109348E-2,-1.814157128E-2,3.571166379E-2
3.323165250E0,-1.177473916E-2,-4.875599359E-2,-2.861919701E-2,5.774815868E-2
3.333111250E0,-1.708671074E-2,-4.418555859E-2,-4.089308739E-2,6.258245655E-2
3.343057250E0,-1.273351350E-2,-4.048964778E-2,-2.517577171E-2,4.934950278E-2
3.353003250E0,-2.872134056E-3,-4.327669114E-2,-3.041546166E-2,5.297378086E-2
3.362949250E0,1.342091309E-3,-3.547598470E-2,-2.278192163E-2,4.218249225E-2
3.372895250E0,7.887158445E-3,-2.241309023E-2,-3.610421777E-2,4.322115712E-2
3.382841250E0,3.913162281E-3,-2.847779032E-2,-4.254200220E-2,5.134315273E-2
3.392787250E0,-8.913098113E-3,-2.898351509E-2,-2.607624292E-2,3.999322330E-2
3.402733250E0,-1.960791136E-2,-3.858325448E-2,-2.517928004E-2,5.007128775E-2
3.412679250E0,-1.519710991E-2,-3.424864043E-2,-3.595686793E-2,5.193089516E-2
3.422625250E0,-2.039084896E-2,-4.062381397E-2,-2.787250757E-2,5.331939292E-2
3.432571250E0,-1.665703632E-2,-4.027852675E-2,-3.655503809E-2,5.688661869E-2
3.442517250E0,-1.408208243E-2,-3.682808022E-2,-3.191468775E-2,5.072632288E-2
3.452463250E0,-1.674722505E-2,-2.824651924E-2,-2.742402613E-2,4.278332158E-2
3.462409250E0,-2.406737717E-2,-2.503636130E-2,-4.179238915E-2,5.433840099E-2
3.472354250E0,-2.365505710E-2,-2.475548938E-2,-1.948876977E-2,3.939807265E-2
3.482300250E0,-1.960040591E-2,-2.504781362E-2,-3.760227442E-2,4.924936467E-2
3.492246250E0,-1.617277266E-2,-2.538781094E-2,-3.161531031E-2,4.365349202E-2
3.502192250E0,-2.848021144E-2,-3.115224738E-2,-3.221289575E-2,5.309666292E-2
3.512138250E0,-1.945481481E-2,-2.584333645E-2,-3.745141625E-2,4.948713406E-2
3.522084250E0,-1.656624916E-2,-3.201334124E-2,-3.760052025E-2,5.208736653E-2
3.532030250E0,-2.323158165E-2,-3.625393847E-2,-2.652413964E-2,5.057256592E-2
3.541976250E0,-1.530974647E-2,-3.837003667E-2,-1.963845849E-2,4.574185286E-2
3.551922250E0,-2.139150856E-2,-3.627642740E-2,-3.625332177E-2,5.556868869E-2
3.561868250E0,-1.457440885E-2,-3.141095926E-2,-2.877005517E-2,4.501974933E-2
3.571814250E0,-5.356666236E-3,-2.636660286E-2,-2.173585474E-2,3.458813382E-2
3.581760250E0,-6.757243406E-3,-3.122563907E-2,-3.865126491E-2,5.014599837E-2
3.591706250E0,-1.023245380E-2,-3.132900231E-2,-3.311278224E-2,4.671900945E-2
3.601652250E0,-1.405511672E-2,-3.136885017E-2,-3.206496119E-2,4.700758240E-2
3.611598250E0,-3.591638510E-3,-3.626036583E-2,-3.910033107E-2,5.344670137E-2
3.621544250E0,-1.250865608E-3,-4.303192121E-2,-3.386122584E-2,5.477128375E-2
3.631490250E0,-1.087406238E-2,-3.977511346E-2,-3.266371608E-2,5.260440316E-2
3.641436250E0,-3.230614057E-3,-4.003149102E-2,-2.533013821E-2,4.748234453E-2
3.651382250E0,-9.744745768E-3,-4.297830499E-2,-1.650025785E-2,4.705691531E-2
3.661328250E0,-8.564480720E-3,-3.298989935E-2,-1.829827666E-2,3.868476080E-2
3.671274250E0,-1.158473663E-2,-2.897632028E-2,-2.443668365E-2,3.963565021E-2
3.681219250E0,-2.135786423E-2,-3.619489986E-2,-3.745843291E-2,5.629709883E-2
3.691165250E0,-2.218951188E-2,-2.869841308E-2,-7.443271637E-2,8.280218969E-2
3.701111250E0,-3.048532675E-2,-2.354315601E-2,-3.281866729E-2,5.060336219E-2
3.711057250E0,-2.314810351E-2,-1.799634106E-2,7.446429133E-3,3.025148417E-2
3.721003250E0,-1.559911055E-2,-2.375176000E-2,-4.239991486E-2,5.104146484E-2
3.730949250E0,-2.758957999E-2,-2.503435132E-2,-1.156403840E-2,3.900808447E-2
3.740895250E0,-3.453156800E-2,-2.192862557E-2,-7.822405100E-3,4.164713471E-2
3.750842250E0,-2.284363259E-2,-2.623902849E-2,7.098519802E-4,3.479686848E-2
3.760788250E0,-3.053114060E-2,-3.163877226E-2,-4.449555695E-2,6.255411293E-2
3.770734250E0,-2.924013934E-2,-3.448399086E-2,-6.739617705E-2,8.115649115E-2
3.780680250E0,-1.774491536E-2,-3.607979651E-2,-7.353282988E-2,8.380758204E-2
3.790626250E0,-1.574128469E-2,-4.765146369E-2,-3.087154448E-2,5.891945599E-2
3.800572250E0,-1.959371815E-2,-4.306867188E-2,-7.222480774E-3,4.786427182E-2
3.810518250E0,-1.144743212E-2,-5.032356815E-2,-2.548333526E-2,5.755784560E-2
3.820464250E0,-5.865529315E-3,-6.262182497E-2,-1.859823883E-2,6.558804681E-2
3.830410250E0,4.437260097E-3,-5.645402202E-2,-1.111380279E-2,5.770842652E-2
3.840356250E0,1.740179800E-2,-3.176955803E-2,-1.156228423E-2,3.802385841E-2
3.850302250E0,2.875285614E-2,-2.612863032E-2,-6.126010895E-2,7.254125038E-2
3.860248250E0,1.942128925E-2,-2.976264287E-2,-8.850404084E-2,9.537277720E-2
3.870194250E0,3.506488432E-3,-3.418507023E-2,-5.497435212E-2,6.483127238E-2
3.880139250E0,1.089455048E-3,-3.164540977E-2,-8.421159983E-3,3.276484102E-2
3.890085250E0,-9.516517064E-3,-3.768977709E-2,1.373277068E-2,4.122708314E-2
3.900031250E0,-2.066540315E-2,-4.227127155E-2,-1.949812531E-2,5.093227048E-2
3.909977250E0,-1.538299655E-2,-4.231886697E-2,-3.341859162E-2,5.607428422E-2
3.919923250E0,-1.935982039E-2,-3.886096981E-2,-3.251987457E-2,5.424499850E-2
3.929869250E0,-3.758277304E-2,-3.215476164E-2,-1.216220856E-2,5.093439744E-2
3.939815250E0,-4.014583150E-2,-4.068133139E-2,-5.063220978E-2,7.635626482E-2
3.949761250E0,-4.673128097E-2,-3.216645150E-2,-8.221652985E-2,9.989019473E-2
3.959707250E0,-4.405999420E-2,-2.005764904E-2,-3.820921540E-2,6.167281829E-2
3.969653250E0,-3.773364948E-2,-1.227284427E-2,-2.279186189E-2,4.575937038E-2
3.979599250E0,-2.735825866E-2,-7.926723082E-4,-1.306209505E-2,3.032690181E-2
3.989545250E0,-2.729461994E-2,-4.707392324E-3,-2.398878694E-2,3.664174830E-2
3.999491250E0,-3.615663257E-2,-2.089400187E-2,-2.009688020E-2,4.634378046E-2
4.009437250E0,-3.474351130E-2,-2.239521510E-2,-2.922789216E-2,5.062535844E-2
4.019383250E0,-3.128722213E-2,-3.255465637E-2,-3.057392120E-2,5.452944688E-2
4.029329250E0,-3.007073175E-2,-4.079095297E-2,-5.437208891E-2,7.432681081E-2
4.039275250E0,-2.502802445E-2,-4.604972860E-2,-5.676769316E-2,7.726286623E-2
4.049221250E0,8.173105563E-3,-4.866544398E-2,-2.248956084E-2,5.423011561E-2
4.059167250E0,2.663434595E-2,-4.801967382E-2,-1.934609771E-2,5.821983300E-2
4.069112250E0,2.748052028E-2,-5.281847457E-2,-3.177026153E-2,6.748570048E-2
4.079058250E0,3.612000525E-2,-5.634513590E-2,-1.979516387E-2,6.979453869E-2
4.089004250E0,4.386816442E-2,-5.410771254E-2,-1.889703155E-2,7.217449831E-2
4.098950250E0,3.940204283E-2,-4.599974861E-2,-9.916293025E-3,6.137451196E-2
4.108896250E0,4.386808219E-2,-4.280724195E-2,-4.284839630E-2,7.478538403E-2
4.118842250E0,3.720730870E-2,-3.926846136E-2,-1.109573489E-1,1.234420073E-1
4.128788250E0,1.831558077E-3,-3.180417538E-2,2.930098236E-2,4.328288049E-2
4.138734250E0,3.219618551E-3,-3.355404146E-2,-2.882092595E-3,3.383114097E-2
4.148680250E0,-2.108646206E-2,-3.601740489E-2,2.955767512E-3,4.184051743E-2
4.158626250E0,-4.190419888E-2,-5.402024184E-2,-4.434645295E-2,8.149083569E-2
4.168572250E0,-4.646208521E-2,-4.567929835E-2,-6.709913850E-2,9.352870173E-2
4.178518250E0,-4.916595650E-2,-3.519416717E-2,-1.785505772E-2,6.304541036E-2
4.188464250E0,-6.215477862E-2,-1.412369359E-2,-7.379186153E-3,6.416500304E-2
4.198410250E0,-6.485306308E-2,-3.116351240E-3,-8.656510413E-2,1.082088198E-1
4.208356250E0,-7.004616260E-2,-5.464739227E-3,-6.695529699E-2,9.705328467E-2
4.218302250E0,-6.664425710E-2,4.328830792E-3,2.525178552E-2,7.139921885E-2
4.228248250E0,-6.684012512E-2,5.743870684E-3,2.330407798E-2,7.101883149E-2
4.238194250E0,-6.225425895E-2,-4.775982904E-3,-3.746954262E-2,7.281737014E-2
4.248140250E0,-5.327171145E-2,-1.416576614E-2,-4.764720619E-2,7.286151541E-2
4.258085250E0,-4.048939196E-2,-2.638432723E-2,-2.609027624E-2,5.492017935E-2
4.268031250E0,-1.651525504E-2,-3.801113640E-2,-3.088148475E-2,5.168429394E-2
4.277977250E0,-9.599606912E-3,-5.599622615E-2,-4.016277015E-2,6.957569908E-2
4.287923250E0,-1.181146698E-3,-6.397695375E-2,-1.030326176E-1,1.212854732E-1
4.297869250E0,5.938441353E-3,-6.455390491E-2,-5.602977455E-2,8.568434723E-2
4.307815250E0,2.469063097E-2,-5.177239856E-2,6.671439171E-2,8.798192184E-2
4.317761250E0,4.810692525E-2,-4.495496538E-2,6.372061729E-2,9.162719158E-2
4.327707250E0,6.312937243E-2,-3.408240134E-2,-4.630117714E-2,8.538575261E-2
4.337653250E0,5.901112363E-2,-1.797594890E-2,-9.584697425E-2,1.139828493E-1
4.347599250E0,3.797768850E-2,-2.057344198E-2,-4.704845130E-2,6.386805233E-2
4.357545250E0,2.640568784E-2,-3.508827318E-2,-2.744039834E-2,5.178245578E-2
4.367491250E0,1.368974796E-2,-4.962908339E-2,-5.453464150E-2,7.499654820E-2
4.377437250E0,-9.522857638E-3,-6.419535639E-2,-7.833573282E-2,1.017261797E-1
4.387383250E0,-7.966982075E-3,-5.892773685E-2,-3.193339884E-2,6.749587347E-2
4.397329250E0,-1.899014389E-2,-5.196996136E-2,4.156200886E-2,6.920190047E-2
4.407275250E0,-3.236761399E-2,-4.477739731E-2,3.227955401E-2,6.398943157E-2
4.417221250E0,-4.234437088E-2,-3.460488204E-2,-5.648527265E-2,7.862016047E-2
4.427167250E0,-6.281586574E-2,-1.525193669E-2,-7.759079754E-2,1.009890411E-1
4.437113250E0,-6.347823193E-2,-8.871824993E-4,-4.211515546E-2,7.618372097E-2
4.447059250E0,-6.276434172E-2,1.867448104E-2,-2.564822674E-2,7.032730884E-2
4.457005250E0,-6.063022678E-2,4.385585329E-3,-7.115301311E-2,9.358423496E-2
4.466950250E0,-5.740773944E-2,-9.554670146E-4,-7.609157145E-2,9.532307543E-2
4.476896250E0,-7.261848524E-2,-4.203732354E-3,-2.310176432E-2,7.632042504E-2
4.486842250E0,-7.427218746E-2,-2.169793921E-2,2.614640951E-2,8.167492348E-2
4.496788250E0,-6.877541645E-2,-3.837681122E-2,2.255329549E-2,8.192367598E-2
4.506734250E0,-5.422102061E-2,-4.867604205E-2,-4.136495769E-2,8.378744459E-2
4.516680250E0,-2.975369389E-2,-3.460533428E-2,-5.947553873E-2,7.496766749E-2
4.526626250E0,-1.355895763E-2,-2.877033840E-2,-2.789238811E-2,4.230322704E-2
4.536572250E0,9.302915535E-3,-2.816726206E-2,-3.582589030E-2,4.651272197E-2
4.546518250E0,2.316188101E-2,-2.534821889E-2,-6.202141643E-2,7.089189677E-2
4.556464250E0,1.996985857E-2,-2.689869035E-2,-5.902881145E-2,6.787293552E-2
4.566410250E0,2.283908273E-2,-3.628035600E-2,4.590064287E-3,4.311561923E-2
4.576356250E0,3.147477157E-2,-4.585852008E-2,2.105523884E-2,5.947258353E-2
4.586302250E0,4.048722667E-2,-5.618922081E-2,-7.384448647E-3,6.964893495E-2
4.596248250E0,4.975243223E-2,-5.716671081E-2,-4.839857340E-2,8.992084989E-2
4.606194250E0,4.239081056E-2,-5.850179460E-2,-4.540538371E-2,8.532930130E-2
4.616140250E0,3.432027339E-2,-5.447393553E-2,-2.340289593E-2,6.850537464E-2
4.626086250E0,2.248113263E-2,-7.381007927E-2,-5.094737470E-2,9.246060845E-2
4.636032250E0,8.654646613E-3,-6.030454600E-2,-7.340126753E-2,9.539018425E-2
4.645978250E0,1.496247668E-3,-4.320309845E-2,-3.987157881E-2,5.880892169E-2
4.655923250E0,-7.391154673E-3,-3.012482763E-2,7.128925323E-3,3.182696944E-2
4.665869250E0,-5.889763283E-3,-1.086410384E-2,2.688725173E-2,2.959125495E-2
4.675815250E0,-3.633368444E-2,-1.840292355E-3,-6.793295145E-3,3.700908212E-2
4.685761250E0,-5.961166465E-2,5.034726765E-4,-3.702983201E-2,7.017843334E-2
4.695707250E0,-8.229472722E-2,-6.700178236E-4,-6.487251878E-2,1.047917685E-1
4.705653250E0,-1.116705905E-1,-4.748528400E-3,-6.053271532E-2,1.271104989E-1
4.715599250E0,-1.179901881E-1,-8.441415103E-3,-6.008481860E-2,1.326767779E-1
4.725545250E0,-1.099007845E-1,-9.369043889E-3,-5.903816700E-2,1.251058215E-1
4.735491250E0,-1.087815452E-1,-7.400587876E-3,-3.089610279E-2,1.133259125E-1
4.745437000E0,-9.199571480E-2,-1.276304194E-2,8.022964597E-3,9.322271581E-2
4.755383000E0,-8.902663574E-2,-7.000313988E-3,1.026712596E-2,8.988971099E-2
4.765329000E0,-6.458153757E-2,-4.017621875E-3,-2.116692066E-2,6.808050243E-2
4.775275000E0,-4.702865757E-2,-1.054795677E-2,-4.436691821E-2,6.550860597E-2
4.785221000E0,-1.595659470E-2,-1.579728092E-2,-3.314084888E-2,4.003102376E-2
4.795167000E0,5.605524648E-3,-1.550412985E-2,-5.529477954E-2,5.770019578E-2
4.805113000E0,3.303000303E-2,-3.091484585E-2,-5.993454516E-2,7.509233315E-2
4.815059000E0,3.842374426E-2,-5.836266284E-2,-9.361392260E-2,1.168167413E-1
4.825005000E0,7.388472263E-2,-6.431471268E-2,9.063184261E-5,9.795582024E-2
4.834950000E0,6.311739021E-2,-8.895398408E-2,-3.950378895E-3,1.091431249E-1
4.844896000E0,6.302045890E-2,-8.972019774E-2,5.442763746E-2,1.224077605E-1
4.854842000E0,6.118451541E-2,-8.833194997E-2,7.124247551E-3,1.076885937E-1
4.864788000E0,7.401622103E-2,-6.929935895E-2,-4.047618091E-2,1.091747377E-1
4.874734000E0,6.930004874E-2,-6.074803447E-2,-5.439606249E-2,1.070128593E-1
4.884680000E0,6.285525222E-2,-4.247319235E-2,-3.703217089E-2,8.441644674E-2
4.894626000E0,3.334096069E-2,-2.814434371E-2,-6.322886646E-2,7.682195843E-2
4.904572000E0,1.638596306E-2,-2.586348650E-2,-6.487544239E-2,7.173731765E-2
4.914518000E0,-1.370976554E-2,-2.402911445E-2,-4.511770070E-2,5.292412426E-2
4.924464000E0,-3.813385027E-2,-1.813557789E-2,3.530548811E-3,4.237398373E-2
4.934410000E0,-5.091783713E-2,-1.637858095E-2,1.820004344E-2,5.649889939E-2
4.944356000E0,-7.572450792E-2,-2.216955369E-2,-1.772641897E-2,8.086974799E-2
4.954302000E0,-8.626780976E-2,-2.379417515E-2,-4.616961479E-2,1.006972249E-1
4.964248000E0,-1.012534743E-1,-1.593816684E-2,-4.242681205E-2,1.109338794E-1
4.974194000E0,-1.211396355E-1,-1.118901260E-2,-3.464358330E-2,1.264918304E-1
4.984140000E0,-1.148495846E-1,-2.390698073E-3,-7.880058646E-2,1.393042531E-1
4.994086000E0,-1.157350723E-1,4.848415288E-3,-6.787155569E-2,1.342559576E-1
5.004032000E0,-7.906256000E-2,1.520596753E-2,-5.002877712E-3,8.066683722E-2
5.013978000E0,-6.227263200E-2,1.386078359E-2,1.116291940E-2,6.476583040E-2
5.023924000E0,-4.233792067E-2,5.160291153E-3,-7.547001243E-3,4.331380102E-2
5.033869000E0,-3.647980544E-2,-1.342476403E-2,-2.640602589E-2,4.699232594E-2
5.043815000E0,-1.873613718E-2,-3.294927947E-2,-3.479093313E-2,5.145004259E-2
5.053761000E0,-6.777873114E-3,-4.179693902E-2,-3.599370539E-2,5.557400924E-2
5.063707000E0,1.401361062E-2,-5.822057093E-2,-4.886868954E-2,7.729272268E-2
5.073653000E0,4.725647971E-2,-6.351146513E-2,-6.488538265E-2,1.023571881E-1
5.083599000E0,4.658423263E-2,-7.309215082E-2,-4.796412528E-2,9.906114553E-2
5.093545000E0,4.953383773E-2,-6.829929322E-2,-6.487602711E-2,1.064297582E-1
5.103491000E0,2.486460848E-2,-5.878229650E-2,6.310841382E-2,8.975677707E-2
5.113437000E0,4.844168291E-2,-6.360133410E-2,3.645855904E-2,8.786895281E-2
5.123383000E0,-7.964218352E-3,-3.038894362E-2,7.357492983E-2,8.000116854E-2
5.133329000E0,1.091892423E-1,-5.670342404E-2,-7.731714785E-2,1.453117692E-1
5.143275000E0,4.272166704E-2,-2.551592435E-2,-5.560877502E-2,7.462264461E-2
5.153221000E0,7.519398273E-2,-3.852076693E-2,-1.552985394E-1,1.767925928E-1
5.163167000E0,1.451028134E-2,-1.853507976E-2,-2.102249444E-2,3.156014446E-2
5.173113000E0,-9.168342780E-4,-1.060198870E-2,1.041447580E-2,1.488972987E-2
5.183059000E0,5.376322474E-2,4.686003392E-2,-6.198633313E-3,7.158750008E-2
5.193005000E0,7.747966390E-1,6.641800366E-1,1.535654247E-2,1.020627638E0
5.202951000E0,1.756622134E0,1.607583916E0,7.775335014E-2,2.382455237E0
5.212897000E0,8.434427315E-1,1.149538258E0,1.515165603E-1,1.433803026E0
5.222842000E0,9.277102819E-2,6.557229893E-1,1.766385376E-2,6.624885766E-1
5.232788000E0,-2.350238996E-1,1.529252642E-1,1.098224044E-1,3.011367302E-1
5.242734000E0,-3.227832975E-1,-2.490441705E-1,3.889298880E-1,5.634523172E-1
5.252680000E0,-3.659282938E-1,-5.125760238E-1,5.126645726E-1,8.120730635E-1
5.262626000E0,-4.483483798E-1,-6.268607674E-1,3.115992916E-1,8.313030794E-1
5.272572000E0,-3.699835937E-1,-2.878509166E-1,4.919437945E-2,4.713449869E-1
5.282518000E0,1.614491616E-2,9.228969270E-2,5.327515125E-2,1.077788822E-1
5.292464000E0,2.527724466E-1,-6.057271850E-2,3.254911065E-2,2.619587918E-1
5.302410000E0,5.313966944E-2,-2.289433435E-1,7.084311068E-2,2.454742865E-1
5.312356000E0,-6.005390145E-2,-2.011482750E-1,7.072148860E-2,2.215143981E-1
5.322302000E0,-1.756507602E-1,-2.433849977E-1,7.364918947E-2,3.090528268E-1
5.332248000E0,-3.983263636E-1,-3.986716782E-1,-1.082571048E-1,5.738663604E-1
5.342194000E0,-5.584536433E-1,-5.536871758E-1,-3.102205181E-1,8.453855512E-1
5.352140000E0,-3.812558926E-1,-4.434580976E-1,-2.048618782E-1,6.196608177E-1
5.362086000E0,-1.486334079E-1,-3.004705966E-1,1.370218974E-1,3.621456472E-1
5.372032000E0,1.425391474E-1,-1.114533390E-1,2.386406583E-1,2.994805822E-1
5.381978000E0,3.727430044E-1,-1.915993698E-2,9.604636431E-3,3.733586741E-1
5.391924000E0,4.571102863E-1,2.656216116E-1,-5.264499682E-1,7.460926373E-1
5.401870000E0,2.810760950E-1,2.531381899E-1,-3.309389573E-1,5.025965657E-1
5.411816000E0,-6.558275448E-2,-2.398900255E-1,6.068643862E-1,6.558450314E-1
5.421762000E0,-1.882168286E-1,-4.849306440E-1,6.452946264E-1,8.288476693E-1
5.431707000E0,-3.457612105E-1,-5.048767392E-1,6.084671080E-1,8.629504956E-1
5.441653000E0,8.292283695E-3,-1.355566400E-1,4.909445053E-1,5.093828344E-1
5.451599000E0,1.478749875E-2,2.744429039E-1,2.058459646E-1,3.433804577E-1
5.461545000E0,-4.379984792E-2,3.133852505E-1,3.236416322E-1,4.526285983E-1
5.471491000E0,-3.760845054E-2,-5.803836621E-2,8.780816370E-1,8.808008905E-1
5.481437000E0,3.217510812E-1,8.217669569E-2,1.146673488E0,1.193790960E0
5.491383000E0,6.235106783E-1,2.248711598E-1,8.134348208E-1,1.049289670E0
5.501329000E0,2.902368546E-1,4.631880650E-1,7.596965700E-1,9.359057078E-1
5.511275000E0,1.801791729E-1,7.312462114E-1,6.287464213E-1,9.810747262E-1
5.521221000E0,6.920983717E-2,4.295139866E-1,3.144796300E-1,5.368144036E-1
5.531167000E0,-3.584744460E-1,-2.052018207E-1,-3.262196696E-1,5.263373333E-1
5.541113000E0,-1.261032455E0,-5.186866565E-1,-1.146103384E0,1.781233187E0
5.551059000E0,-1.236363637E0,-2.712700585E-1,-1.266281208E0,1.790433072E0
5.561005000E0,-9.737790687E-1,-1.997436641E-1,-3.264406943E-1,1.046282339E0
5.570951000E0,-6.310919588E-1,-2.571209295E-1,3.886141384E-1,7.844801982E-1
5.580897000E0,-5.371246451E-1,-4.989387455E-1,7.691550261E-1,1.062563979E0
5.590843000E0,-2.752141516E-1,-5.782887509E-1,1.201985809E0,1.361958367E0
5.600789000E0,3.112968078E-1,-6.101566610E-1,9.157932544E-1,1.143623250E0
5.610735000E0,-1.048284437E-1,-1.149939962E0,1.524808831E0,1.912692576E0
5.620680000E0,1.834922053E-1,-1.472042680E0,8.656247288E-1,1.717522987E0
5.630626000E0,3.133971277E-1,-5.611488077E-1,1.009327655E0,1.196598537E0
5.640572000E0,1.509230771E-2,-1.278501742E-1,1.549002855E0,1.554343363E0
5.650518000E0,-1.445513753E-1,-7.112136506E-2,1.641518671E0,1.649405013E0
5.660464000E0,3.411583554E-2,-4.167371991E-1,2.242502512E0,2.281151310E0
5.670410000E0,-2.755058546E-1,-3.598408672E-1,1.301138214E0,1.377806074E0
5.680356000E0,-4.297798522E-2,-4.003910154E-1,8.478427613E-1,9.386146282E-1
5.690302000E0,-4.894156046E-3,-7.674086089E-1,9.792548400E-1,1.244138243E0
5.700248000E0,-3.473510319E-1,-7.616903244E-1,8.580151623E-1,1.198755567E0
5.710194000E0,2.782112516E-2,-2.796425039E-1,1.034806897E0,1.072286929E0
5.720140000E0,1.682490257E-1,-7.386495173E-3,1.362656770E0,1.373024315E0
5.730086000E0,-8.340241827E-2,1.518200308E-2,1.203121338E0,1.206104229E0
5.740032000E0,-1.622673607E-1,-7.189911783E-2,9.103424799E-1,9.274824043E-1
5.749981125E0,1.723754058E-1,-1.814412944E-1,1.068906105E0,1.097813502E0
5.759927125E0,1.205738260E-1,-5.446321777E-1,9.921321630E-1,1.138195276E0
5.769873125E0,-2.795488022E-1,-5.997804844E-1,6.969758266E-1,9.610720396E-1
5.779819125E0,-4.622327761E-1,-2.592208108E-1,8.195217723E-1,9.759459531E-1
5.789765125E0,-4.299458400E-1,-7.692187607E-2,1.011767698E0,1.102018273E0
5.799711125E0,-3.501345623E-1,-4.088443351E-1,1.093052766E0,1.218405619E0
5.809657125E0,-3.680633315E-1,-8.088286766E-1,8.378212184E-1,1.221318483E0
5.819602125E0,-1.125988816E-1,-6.792055535E-1,8.150468981E-1,1.066911495E0
5.829548125E0,1.476806407E-1,-2.545076627E-1,1.121797678E0,1.159747280E0
5.839494125E0,1.157357301E-1,-1.528383234E-1,1.097708319E0,1.114323951E0
5.849440125E0,3.855926628E-1,-8.077688688E-1,9.947856295E-1,1.338196808E0
5.859386125E0,3.663821474E-2,-7.466067007E-1,8.276920867E-1,1.115274905E0
5.869332125E0,-8.913744047E-2,-1.851731336E-1,1.065252764E0,1.084895398E0
5.879278125E0,-3.945185106E-1,-6.882582128E-2,1.092739940E0,1.163813742E0
5.889224125E0,-7.176814751E-1,6.535169810E-2,9.395434749E-1,1.184094373E0
5.899170125E0,-7.410610552E-1,-3.029442430E-2,1.013811300E0,1.256145928E0
5.909116125E0,-2.396685988E-1,-8.985854834E-1,8.087821913E-1,1.232487542E0
5.919062125E0,2.366348440E-1,-1.447805679E0,5.891555089E-1,1.580898968E0
5.929008125E0,5.324742083E-1,-1.377581788E0,7.613495779E-1,1.661599695E0
5.938954125E0,6.022304678E-1,-8.200842744E-1,4.057160747E-1,1.095365367E0
5.948900125E0,3.131914884E-1,-5.981859487E-1,1.815677404E-1,6.992011027E-1
5.958846125E0,-2.313319311E-2,-3.806566626E-1,3.794351792E-1,5.379643990E-1
5.968792125E0,-2.568313462E-1,1.127998066E-1,5.350447905E-1,6.041184193E-1
5.978738125E0,-4.845211928E-1,3.089271140E-1,3.915968031E-1,6.953738593E-1
5.988684125E0,-6.749873722E-1,1.656586361E-1,1.132985741E-1,7.041926606E-1
5.998630125E0,-3.841534437E-1,-1.924096477E-1,4.674129707E-1,6.348781190E-1
6.008575125E0,4.105998154E-1,-1.228673671E0,6.629397690E-1,1.455238927E0
6.018521125E0,3.169361915E-1,-1.839819388E0,7.082738167E-1,1.996756302E0
6.028467125E0,-4.428578809E-1,-1.794357287E0,1.073216087E0,2.137202364E0
6.038413125E0,-2.142976762E-1,-1.113008729E0,2.366181064E-1,1.157886027E0
6.048359125E0,-4.160163836E-1,-7.533622813E-1,-3.881568861E-1,9.440816313E-1
6.058305125E0,-9.296417999E-1,-7.904377216E-1,-6.334306258E-1,1.374867276E0
6.068251125E0,-1.182072824E0,-6.993726003E-1,-8.411243105E-1,1.610561486E0
6.078197125E0,-1.432984157E0,-5.644714880E-1,-8.819612646E-1,1.774803461E0
6.088143125E0,-1.569696444E0,-4.627147329E-1,-5.707642615E-1,1.733154261E0
6.098089125E0,-1.015495006E0,-6.755498743E-1,-3.213132709E-1,1.261285042E0
6.108035125E0,7.620120674E-2,-1.311756758E0,-4.172538006E-1,1.378627270E0
6.117981125E0,9.047978577E-1,-1.596188132E0,-2.189326179E-1,1.847811464E0
6.127927125E0,4.653740466E-2,-1.529997650E0,7.781696784E-1,1.717150718E0
6.137873125E0,3.501330274E-1,-7.054747546E-1,2.001975542E-1,8.126295755E-1
6.147819125E0,1.424098143E-1,-6.566709691E-1,-1.596593928E-1,6.906434960E-1
6.157765125E0,-6.156904659E-1,-8.112935704E-1,-2.915690696E-1,1.059379313E0
6.167711125E0,-9.793858176E-1,-4.824221885E-1,-4.015332690E-1,1.163252644E0
6.177657125E0,-1.082014685E0,-4.242581803E-1,-4.000536311E-1,1.229143478E0
6.187603125E0,-1.172675179E0,-5.805390519E-1,-2.992710221E-1,1.342294979E0
6.197548125E0,-1.018620635E0,-8.773671073E-1,-2.669967306E-1,1.370637914E0
6.207494125E0,-2.532870564E-1,-1.461805667E0,-2.457482412E-1,1.503802627E0
6.217440125E0,3.367195147E-1,-1.789564324E0,-2.805400515E-1,1.842450331E0
6.227386125E0,2.756625965E-1,-1.430659888E0,7.767412037E-2,1.459044500E0
6.237332125E0,2.970332927E-1,-1.237736855E0,4.635538083E-1,1.354659896E0
6.247278125E0,1.858128190E-1,-1.212842335E0,-1.152055558E0,1.683076035E0
6.257224125E0,-4.042361444E-1,-1.143564523E0,-5.723786777E-1,1.341180089E0
6.267170125E0,-6.064705762E-1,-1.198285691E0,-5.889163578E-1,1.466464331E0
6.277116125E0,-8.138903189E-1,-1.164785823E0,-1.380835764E0,1.981376005E0
6.287062125E0,-7.678636685E-1,-9.232373446E-1,-1.210128934E0,1.704814901E0
6.297008125E0,-2.707029882E-1,-7.688094556E-1,-9.459923691E-1,1.248699183E0
6.306954125E0,6.831342977E-1,-9.787683517E-1,-6.952064592E-1,1.381293588E0
6.316900125E0,1.354985223E0,-1.331682315E0,-5.735112834E-1,1.984509495E0
6.326846125E0,1.352767082E0,-1.328039500E0,-7.208464998E-1,2.028124101E0
6.336792125E0,1.464314708E0,-1.043167831E0,-5.711931548E-1,1.886445946E0
6.346738125E0,1.510949176E0,-7.616776067E-1,-3.478738095E-1,1.727465304E0
6.356684125E0,1.129170725E0,-7.463549781E-1,-2.080895412E-1,1.369442783E0
6.366630125E0,9.779690373E-1,-7.247348982E-1,2.965123057E-2,1.217597350E0
6.376576125E0,1.026060047E0,-7.244782054E-1,-3.192696691E-1,1.295994218E0
6.386521125E0,1.037095790E0,-9.116972798E-1,-4.203418614E-1,1.443415009E0
6.396467125E0,1.369019126E0,-1.005965506E0,-3.302472317E-1,1.730677093E0
6.406413125E0,1.754514067E0,-7.347196037E-1,-2.122624066E-1,1.913945620E0
6.416359125E0,2.306235409E0,-4.910480011E-1,-1.989515126E-2,2.358017328E0
6.426305125E0,1.944851315E0,-1.182565452E0,3.025780611E-1,2.296184045E0
6.436251125E0,2.740477125E0,-1.199593713E0,-4.511064018E-1,3.025349060E0
6.446197125E0,2.558058322E0,-1.049168828E0,-3.175156505E-1,2.783026015E0
6.456143125E0,2.103705546E0,-8.140727520E-1,-5.041956116E-1,2.311385880E0
6.466089125E0,2.115823608E0,-7.899015319E-1,-5.534177653E-1,2.325279595E0
6.476035125E0,2.243974110E0,-9.973151350E-1,-2.183280158E-1,2.465304121E0
6.485981125E0,2.338721516E0,-1.107680746E0,-1.142312050E-2,2.587799345E0
6.495927125E0,2.511313926E0,-1.141737853E0,2.514495689E-1,2.770106469E0
6.505873125E0,2.403867246E0,-1.131699938E0,2.848247449E-1,2.672161601E0
6.515819125E0,2.395097007E0,-1.136275384E0,4.416061382E-1,2.687494633E0
6.525765125E0,2.325096041E0,-1.196179524E0,3.126105675E-1,2.633370924E0
6.535711125E0,1.906572372E0,-1.136679427E0,3.416466710E-1,2.245836320E0
6.545657125E0,1.760696328E0,-9.799658614E-1,5.463899969E-1,2.087804272E0
6.555603125E0,1.967262816E0,-1.102477309E0,5.155500273E-1,2.313303057E0
6.565549125E0,1.928087494E0,-1.136592304E0,5.509743601E-1,2.304980736E0
6.575495125E0,2.049342228E0,-9.452450949E-1,7.167609040E-1,2.367918506E0
6.585440125E0,1.530218967E0,-1.449379749E0,4.870642930E-1,2.163215979E0
6.595386125E0,6.581438828E-1,-1.410973483E0,-8.385565057E-3,1.556942471E0
6.605332125E0,-1.696870753E-1,-7.057267696E-1,-3.761730176E-1,8.175268289E-1
6.615278125E0,-3.664289251E-1,-3.265044290E-1,-9.563057611E-1,1.074893487E0
6.625224125E0,-6.415217105E-1,-5.112776130E-1,-1.050403248E0,1.332779759E0
6.635170125E0,-1.190902412E0,-7.139573103E-1,-6.202995336E-1,1.520774509E0
6.645116125E0,-1.417145804E0,-5.649930596E-1,-4.228174263E-1,1.583127905E0
6.655062125E0,-1.780259357E0,-6.552243680E-1,-4.493345493E-1,1.949498369E0
6.665008125E0,-2.222224368E0,-7.346318954E-1,-3.963606028E-1,2.373829584E0
6.674954125E0,-2.343782427E0,-7.530225581E-1,-1.662013308E-1,2.467383618E0
6.684900125E0,-2.448277141E0,-8.503675890E-1,1.223459709E-1,2.594639576E0
6.694846125E0,-2.671149613E0,-7.625821710E-1,-4.192687511E-2,2.778188202E0
6.704792125E0,-2.955305875E0,-5.469158077E-1,-2.307966916E-1,3.014335221E0
6.714738125E0,-3.246213332E0,-5.154174417E-1,-5.453347206E-1,3.331808232E0
6.724684125E0,-3.503528827E0,-5.150057977E-1,-7.871452276E-1,3.627608417E0
6.734630125E0,-3.730462775E0,-6.130063015E-1,-1.096656405E0,3.936341514E0
6.744576125E0,-4.098516934E0,-5.846958375E-1,-1.104571270E0,4.284832315E0
6.754522500E0,-4.286192091E0,-5.808887154E-1,-9.089964509E-1,4.419858469E0
6.764468500E0,-4.381168123E0,-6.883342266E-1,-7.304723324E-1,4.494666612E0
6.774413500E0,-4.414942810E0,-6.500355488E-1,-4.536527181E-1,4.485539769E0
6.784359500E0,-4.523028883E0,-6.214765781E-1,-1.533362869E-1,4.568099762E0
6.794305500E0,-4.653496929E0,-8.085523957E-1,1.985724668E-1,4.727390577E0
6.804251500E0,-4.587493851E0,-7.328467405E-1,3.902418570E-1,4.662022403E0
6.814197500E0,-4.370355744E0,-5.877463299E-1,6.887019434E-1,4.463156444E0
6.824143500E0,-4.274791190E0,-7.787719417E-1,9.521024171E-1,4.448238356E0
6.834089500E0,-4.215411546E0,-9.201698953E-1,1.119104305E0,4.457443391E0
6.844035500E0,-4.135123428E0,-9.494205916E-1,9.861225410E-1,4.355810245E0
6.853981500E0,-4.104410927E0,-8.756117731E-1,8.885434753E-1,4.289801224E0
6.863927500E0,-3.890413652E0,-8.973546445E-1,8.359670663E-1,4.079142640E0
6.873873500E0,-3.699088955E0,-1.082302660E0,6.209649467E-1,3.903874436E0
6.883819500E0,-3.523873922E0,-1.197246641E0,5.087492770E-1,3.756316382E0
6.893765500E0,-3.052114424E0,-1.259671515E0,5.460106587E-1,3.346685288E0
6.903711500E0,-2.656712837E0,-1.537714221E0,5.539564401E-1,3.119223599E0
6.913657500E0,-2.422346055E0,-1.678164926E0,6.524925488E-1,3.018235321E0
6.923603500E0,-2.280222316E0,-1.858067964E0,3.696087871E-1,2.964530489E0
6.933549500E0,-2.208767294E0,-2.060396828E0,9.958210252E-2,3.022218497E0
6.943495500E0,-2.228496238E0,-2.234244490E0,-3.218279721E-1,3.172005228E0
6.953441500E0,-2.184074795E0,-2.604476151E0,-9.661535686E-1,3.533685251E0
6.963387500E0,-1.869995114E0,-2.915135795E0,-1.435402126E0,3.749036903E0
6.973332500E0,-1.079828119E0,-2.923819495E0,-1.224644428E0,3.348806232E0
6.983278500E0,4.736127734E-2,-3.237600968E0,-1.529234004E-1,3.241556522E0
6.993224500E0,9.538840637E-1,-3.651618919E0,9.124509859E-1,3.882883251E0
7.003170500E0,2.116976533E0,-3.203076083E0,1.706310498E0,4.201521338E0
7.013116500E0,3.255153432E0,-2.372039974E0,1.833116725E0,4.425258685E0
7.023062500E0,3.516766047E0,-1.952921496E0,1.376654420E0,4.251672987E0
7.033008500E0,3.036394769E0,-1.694037192E0,1.199085152E0,3.677942414E0
7.042954500E0,2.709146574E0,-1.414742598E0,4.675381011E-1,3.091854404E0
7.052900500E0,2.739590102E0,-1.377420405E0,-3.758800721E-1,3.089324640E0
7.062846500E0,3.276846895E0,-1.500480321E0,-5.714713360E-1,3.649074712E0
7.072792500E0,4.326561853E0,-1.671366368E0,-4.797816590E-1,4.662916838E0
7.082738500E0,5.137646093E0,-1.631269087E0,-3.727495459E-1,5.403275713E0
7.092684500E0,5.876495585E0,-1.398581479E0,-2.086505815E-2,6.040667667E0
7.102630500E0,6.088734895E0,-1.249545892E0,1.222119965E-1,6.216831454E0
7.112576500E0,5.915346240E0,-1.227879619E0,8.554936968E-2,6.042046689E0
7.122522500E0,5.766570269E0,-1.216502107E0,2.379096832E-1,5.898288825E0
7.132468500E0,5.635958675E0,-1.172496547E0,4.720713012E-1,5.775952705E0
7.142414500E0,5.285487093E0,-1.112856701E0,5.705156817E-1,5.431418967E0
7.152360500E0,4.977546989E0,-1.097960334E0,4.610604825E-1,5.118014038E0
7.162306500E0,4.732341662E0,-1.171023048E0,4.079601630E-1,4.892114479E0
7.172251500E0,4.300337090E0,-1.324665071E0,3.332404214E-1,4.512060042E0
7.182197500E0,4.076642500E0,-1.413557952E0,1.893854678E-1,4.318915027E0
7.192143500E0,3.648322259E0,-1.405508090E0,1.800334311E-1,3.913837035E0
7.202089500E0,3.351308555E0,-1.405343783E0,1.129786948E-1,3.635797624E0
7.212035500E0,3.252880327E0,-1.439788561E0,1.869179428E-1,3.562184701E0
7.221981500E0,3.101588592E0,-1.471588644E0,4.808591912E-1,3.466504074E0
7.231927500E0,2.586049528E0,-1.612931634E0,5.351651701E-1,3.094447023E0
7.241873500E0,1.979880669E0,-1.695331766E0,3.552230287E-1,2.630638831E0
7.251819500E0,1.440411875E0,-1.736382728E0,4.262526655E-1,2.295975323E0
7.261765500E0,1.007460054E0,-1.690336490E0,4.402427137E-1,2.016439153E0
7.271711500E0,9.508666080E-1,-1.705053347E0,4.016534293E-1,1.993158222E0
7.281657500E0,9.806724975E-1,-1.945272169E0,4.273478490E-1,2.220006428E0
7.291603500E0,9.963513677E-1,-1.938276560E0,4.909591234E-1,2.233981408E0
7.301549500E0,9.145786415E-1,-1.732710677E0,5.685031432E-1,2.040082401E0
7.311495500E0,6.980531030E-1,-1.756914057E0,3.323422891E-1,1.919499032E0
7.321441500E0,9.744381230E-2,-1.805288656E0,-8.718257924E-2,1.810017467E0
7.331387500E0,-5.099695909E-1,-1.627019915E0,-2.555338490E-1,1.724111463E0
7.341333500E0,-7.344469772E-1,-1.521108713E0,-4.833378625E-1,1.756929016E0
7.351279500E0,-9.095087401E-1,-1.470368330E0,-5.191608292E-1,1.805191718E0
7.361225500E0,-1.267267341E0,-1.426859783E0,-2.672347122E-1,1.926995004E0
7.371170500E0,-1.411850419E0,-1.333104942E0,-2.367829978E-2,1.941919425E0
7.381116500E0,-1.455577067E0,-1.231570966E0,-1.260724197E-1,1.910854756E0
7.391062500E0,-1.669669360E0,-1.104947757E0,-1.595196627E-1,2.008519813E0
7.401008500E0,-2.060931848E0,-9.669522983E-1,-3.620186627E-2,2.276784444E0
7.410954500E0,-2.464316053E0,-6.976891869E-1,2.641892631E-2,2.561312510E0
7.420900500E0,-2.795737114E0,-4.347258657E-1,1.429661586E-1,2.832944036E0
7.430846500E0,-3.144502185E0,-4.013751018E-1,2.371309072E-1,3.178871975E0
7.440792500E0,-3.672135337E0,-4.326752472E-1,6.026487630E-2,3.698028889E0
7.450738500E0,-4.113734605E0,-3.232463604E-1,-1.820309130E-1,4.130428048E0
7.460684500E0,-4.493150781E0,-1.245790225E-1,-3.306214901E-1,4.507020573E0
7.470630500E0,-4.750667128E0,-9.681410372E-2,-2.375700696E-1,4.757588746E0
7.480576500E0,-4.920598032E0,-1.421692014E-1,-2.264030937E-1,4.927855055E0
7.490522500E0,-5.044508718E0,-1.371961445E-1,7.564075112E-2,5.046940907E0
7.500468500E0,-5.075669700E0,-1.741932321E-1,3.622911795E-1,5.091563717E0
7.510414500E0,-5.139840553E0,-2.138350153E-1,4.748874664E-1,5.166159543E0
7.520360500E0,-5.246345832E0,-1.767414486E-1,6.749727541E-1,5.292539121E0
7.530306500E0,-5.430961726E0,-9.248248637E-2,6.443736899E-1,5.469836901E0
7.540252500E0,-5.633588798E0,-1.285089362E-1,6.488421321E-1,5.672286435E0
7.550198500E0,-5.611983336E0,-2.897359675E-1,6.254404056E-1,5.654155958E0
7.560144500E0,-5.518907357E0,-4.669703364E-1,5.820768696E-1,5.569130381E0
7.570090500E0,-5.366216676E0,-6.608891505E-1,4.826876887E-1,5.428263377E0
7.580036500E0,-4.886920409E0,-1.047581309E0,3.099743503E-1,5.007544486E0
7.589982500E0,-4.500681995E0,-1.588453435E0,6.735990604E-2,4.773244189E0
7.599927500E0,-4.295473961E0,-1.879067069E0,8.968748074E-2,4.689353201E0
7.609873500E0,-3.807045220E0,-1.948462994E0,2.092361985E-1,4.281808162E0
7.619819500E0,-3.298261737E0,-2.106328461E0,2.495322851E-1,3.921404906E0
7.629765500E0,-2.779194171E0,-2.275831057E0,5.048228717E-1,3.627419658E0
7.639711500E0,-2.144018444E0,-2.576044650E0,5.318995732E-1,3.393484681E0
7.649657500E0,-1.752894388E0,-2.819641408E0,3.445214911E-1,3.337920231E0
7.659603500E0,-1.303696664E0,-2.821190336E0,3.318347873E-1,3.125516634E0
7.669549500E0,-8.660375422E-1,-2.812269824E0,7.574194450E-2,2.943572562E0
7.679495500E0,-2.882414192E-1,-2.833025685E0,-4.560161626E-1,2.883932799E0
7.689441500E0,5.671647155E-1,-2.757085556E0,-5.916727718E-1,2.876329823E0
7.699387500E0,1.618994027E0,-2.555825563E0,-1.881651904E-1,3.031302048E0
7.709333500E0,2.589852265E0,-2.575400872E0,-1.094821695E-1,3.654040332E0
7.719279500E0,3.387114857E0,-2.596454356E0,6.507775605E-2,4.268296779E0
7.729225500E0,4.238985180E0,-2.351086476E0,4.446263713E-1,4.867678665E0
7.739171500E0,4.839897686E0,-2.195349396E0,2.716142768E-1,5.321460598E0
7.749114500E0,5.150471376E0,-2.078108629E0,2.327957815E-1,5.558784466E0
7.759060500E0,5.227227191E0,-1.913491967E0,2.781760222E-1,5.573395510E0
7.769006500E0,5.335895355E0,-1.709025360E0,2.121171033E-1,5.606918992E0
7.778952500E0,5.490648349E0,-1.671468694E0,3.059428413E-1,5.747575829E0
7.788898500E0,5.609686550E0,-1.656303940E0,4.087975574E-1,5.863364339E0
7.798844500E0,5.750523171E0,-1.580417606E0,4.878713550E-1,5.983665683E0
7.808789500E0,5.693982934E0,-1.399184327E0,4.561759378E-1,5.881093004E0
7.818735500E0,5.439735473E0,-1.314787370E0,4.393725749E-1,5.613593867E0
7.828681500E0,5.219787778E0,-1.293015262E0,3.287491751E-1,5.387592128E0
7.838627500E0,4.936734594E0,-1.201598724E0,2.426565260E-1,5.086656085E0
7.848573500E0,4.729304618E0,-1.207088674E0,9.391790472E-2,4.881824025E0
7.858519500E0,4.364427837E0,-1.213846886E0,2.236752945E-1,4.535601971E0
7.868465500E0,3.794454119E0,-1.037696591E0,5.737644678E-1,3.975412172E0
7.878411500E0,3.302146627E0,-1.048616851E0,7.532400014E-1,3.545580368E0
7.888357500E0,2.931212715E0,-1.142538922E0,7.579956150E-1,3.236040871E0
7.898303500E0,2.567573204E0,-1.103079572E0,7.609659275E-1,2.896253760E0
7.908249500E0,2.227516683E0,-1.104522665E0,8.918798965E-1,2.641448588E0
7.918195500E0,2.004855588E0,-9.942839384E-1,1.148699475E0,2.515463569E0
7.928141500E0,1.878584382E0,-9.616465348E-1,1.019725174E0,2.343860654E0
7.938087500E0,1.838867169E0,-1.201286482E0,8.774811280E-1,2.365268443E0
7.948033500E0,1.677845668E0,-1.137164746E0,9.900143015E-1,2.255756649E0
7.957979500E0,1.545342206E0,-1.084815209E0,1.230365855E0,2.253598613E0
7.967925500E0,1.133924219E0,-1.285266532E0,1.034563653E0,2.002003033E0
7.977871500E0,7.540439205E-1,-1.500133581E0,6.501700348E-1,1.800473290E0
7.987817500E0,4.300884390E-1,-1.636933284E0,2.036164212E-1,1.704695366E0
7.997763500E0,1.515142214E-1,-1.648258172E0,-2.560139054E-1,1.674889453E0
8.007709500E0,-2.000501313E-1,-1.567839661E0,-3.475584984E-1,1.618313371E0
8.017655500E0,-3.315564599E-1,-1.622280747E0,-3.082020593E-1,1.684254439E0
8.027600500E0,-1.645198908E-1,-1.724952006E0,-2.157318521E-1,1.746157625E0
8.037546500E0,-1.031480635E-1,-1.798539215E0,7.801939845E-2,1.803183257E0
8.047492500E0,-2.780965000E-1,-1.783640510E0,2.916521001E-1,1.828598392E0
8.057438500E0,-6.683737327E-1,-1.759167573E0,2.389265871E-1,1.896965975E0
8.067384500E0,-1.049178622E0,-1.472396144E0,1.878593445E-1,1.817695607E0
8.077330500E0,-1.565406488E0,-1.218058636E0,3.150082183E-1,2.008331270E0
8.087276500E0,-2.192037533E0,-9.457426929E-1,3.576250648E-1,2.413991192E0
8.097222500E0,-2.750324129E0,-7.201857644E-1,2.375934219E-1,2.852963544E0
8.107168500E0,-3.134610450E0,-4.905960113E-1,-3.866411964E-2,3.173005206E0
8.117114500E0,-3.565535041E0,-3.174307197E-1,-1.544027460E-1,3.582965615E0
8.127060500E0,-4.144066451E0,-2.323034459E-1,-2.955697346E-1,4.161083166E0
8.137006500E0,-4.706349034E0,-1.441075534E-1,-4.478744996E-1,4.729807585E0
8.146952500E0,-4.973712970E0,-1.047552073E-1,-4.381967729E-1,4.994077570E0
8.156898500E0,-4.946834489E0,-1.198655820E-1,-2.086426878E-1,4.952683211E0
8.166844500E0,-4.673087148E0,-1.413710564E-1,4.097962618E-2,4.675404645E0
8.176790500E0,-4.526532243E0,-8.326844394E-2,9.644339939E-2,4.528325199E0
8.186736500E0,-4.516754821E0,-4.642864645E-2,3.739101452E-1,4.532442887E0
8.196682500E0,-4.441799363E0,-1.651604533E-2,5.069699693E-1,4.470668061E0
8.206628500E0,-4.409411928E0,-8.716444373E-3,5.127166128E-1,4.439129178E0
8.216574500E0,-4.438985391E0,1.050002056E-1,5.189263558E-1,4.470447506E0
8.226520500E0,-4.405860622E0,2.039678389E-1,4.458724129E-1,4.433059091E0
8.236466500E0,-4.308790410E0,1.703130198E-1,4.588473845E-1,4.336498846E0
8.246412500E0,-4.129532320E0,3.548090458E-3,6.355315304E-1,4.178151517E0
8.256358500E0,-3.917597065E0,-1.287059873E-1,8.249602675E-1,4.005582534E0
8.266304500E0,-3.658469517E0,-3.069267815E-1,9.550397658E-1,3.793508167E0
8.276250500E0,-3.512165165E0,-5.499961209E-1,8.965559149E-1,3.666280457E0
8.286195500E0,-3.400078134E0,-7.488447225E-1,9.241676366E-1,3.602136249E0
8.296141500E0,-3.365622831E0,-9.619260317E-1,8.041617215E-1,3.591572748E0
8.306087500E0,-3.220470088E0,-1.185577937E0,6.086332420E-1,3.485320223E0
8.316033500E0,-3.115973620E0,-1.456721513E0,2.810195597E-1,3.451130418E0
8.325979500E0,-3.228416746E0,-1.742467926E0,2.195512533E-2,3.668698841E0
8.335925500E0,-2.983580963E0,-2.017640233E0,-1.448250067E-1,3.604663889E0
8.345871500E0,-2.359656448E0,-2.372313623E0,2.383208156E-2,3.346104967E0
8.355817500E0,-1.722108798E0,-2.754931442E0,4.443357646E-1,3.279137117E0
8.365763500E0,-1.352927004E0,-3.048307301E0,4.205960691E-1,3.361471394E0
8.375709500E0,-1.326807199E0,-3.188966752E0,1.118572537E-1,3.455783317E0
8.385655500E0,-1.263015538E0,-3.078094772E0,-7.951741856E-2,3.328092351E0
8.395601500E0,-9.975244653E-1,-2.815503334E0,1.533492604E-2,2.987030171E0
8.405547500E0,-1.850140893E-1,-2.669567941E0,-1.524719954E-2,2.676014888E0
8.415493500E0,7.306347388E-1,-2.559894640E0,-4.001202893E-1,2.692022277E0
8.425439500E0,1.619064778E0,-2.471387091E0,-3.551224566E-1,2.975775003E0
8.435385500E0,2.606061332E0,-2.539189065E0,-2.297768641E-1,3.645796783E0
8.445331500E0,3.802236178E0,-2.555672951E0,-3.311746001E-1,4.593271253E0
8.455277500E0,4.795193968E0,-2.596254382E0,-5.732797337E-1,5.482980180E0
8.465223500E0,5.551039562E0,-2.639239603E0,-6.330376929E-1,6.179026025E0
8.475169500E0,6.200461738E0,-2.583503943E0,-5.842865324E-1,6.742522461E0
8.485115500E0,6.631065316E0,-2.501229526E0,-2.891062224E-1,7.093007738E0
8.495061500E0,6.893162665E0,-2.357489178E0,1.154626651E-1,7.286067415E0
8.505007500E0,6.808289160E0,-2.225627448E0,3.288970731E-1,7.170382982E0
8.514952500E0,6.481206442E0,-2.032600919E0,3.225692528E-1,6.800114290E0
8.524898500E0,6.129289429E0,-1.797935198E0,2.244921140E-1,6.391490952E0
8.534844500E0,5.667565799E0,-1.718845174E0,3.063215947E-1,5.930393219E0
8.544790500E0,5.337609174E0,-1.646550785E0,3.896034507E-1,5.599374253E0
8.554736500E0,4.957810298E0,-1.513768703E0,4.796009435E-1,5.205900085E0
8.564682500E0,4.508391548E0,-1.361766239E0,6.558248770E-1,4.755008719E0
8.574628500E0,4.122046714E0,-1.374111466E0,6.910356402E-1,4.399656997E0
8.584574500E0,3.459191145E0,-1.343755061E0,5.569127923E-1,3.752576835E0
8.594520500E0,2.853737108E0,-1.248713833E0,5.441079748E-1,3.162144083E0
8.604466500E0,2.243059752E0,-1.270070204E0,5.956558585E-1,2.645600362E0
8.614412500E0,1.789640338E0,-1.378420279E0,6.581099689E-1,2.352862881E0
8.624358500E0,1.668265589E0,-1.407029536E0,8.254818392E-1,2.333294336E0
8.634304500E0,1.741742871E0,-1.480887471E0,1.019853812E0,2.503357291E0
8.644250500E0,1.546130411E0,-1.665019215E0,1.145633268E0,2.544657898E0
8.654196500E0,1.453807261E0,-1.766216392E0,1.189423066E0,2.578333401E0
8.664142500E0,1.449952776E0,-1.761487749E0,1.201792266E0,2.578663761E0
8.674088500E0,9.567953923E-1,-1.825888397E0,1.101921823E0,2.337425414E0
8.684034500E0,5.380631232E-1,-1.981509118E0,8.055229533E-1,2.205619536E0
8.693980500E0,3.078380701E-1,-2.002048048E0,6.644764904E-1,2.131780868E0
8.703926500E0,9.783531994E-2,-1.946819927E0,4.970881748E-1,2.011660068E0
8.713872500E0,1.257868380E-1,-1.996371571E0,3.123770443E-1,2.024574324E0
8.723818500E0,-2.857782796E-2,-2.110264222E0,2.302037108E-1,2.122975630E0
8.733764500E0,-4.387649761E-1,-1.991897281E0,4.083461523E-2,2.040058075E0
8.743710500E0,-6.653356656E-1,-1.910746699E0,-2.300481749E-1,2.036307113E0
8.753659250E0,-6.437897723E-1,-1.879818437E0,-5.985337850E-1,2.075192838E0
8.763604250E0,-8.894809301E-1,-1.702450166E0,-7.204025500E-1,2.051461120E0
8.773550250E0,-1.019785254E0,-1.617315876E0,-4.343404611E-1,1.960694837E0
8.783496250E0,-1.470411307E0,-1.534663144E0,-2.981740113E-1,2.146207846E0
8.793442250E0,-2.144776828E0,-1.418639767E0,-3.369445594E-1,2.593479914E0
8.803388250E0,-2.584379856E0,-1.252625036E0,-4.006055351E-1,2.899754044E0
8.813334250E0,-2.940985166E0,-9.474436480E-1,-5.497505379E-1,3.138354484E0
8.823280250E0,-3.343048193E0,-7.324789506E-1,-4.887138657E-1,3.457070708E0
8.833226250E0,-3.718917740E0,-7.711448336E-1,-4.998561736E-1,3.830779256E0
8.843172250E0,-4.034360699E0,-6.344065261E-1,-4.272559015E-1,4.106225213E0
8.853118250E0,-4.312043216E0,-3.680909961E-1,-2.349422944E-1,4.334098010E0
8.863064250E0,-4.531398295E0,-8.976762414E-2,2.425425053E-2,4.532352260E0
8.873010250E0,-4.702921981E0,-7.067997336E-2,1.009720588E-1,4.704536765E0
8.882956250E0,-4.762157492E0,-1.522310901E-1,7.402231492E-2,4.765165011E0
8.892902250E0,-4.700697408E0,-1.621041137E-1,5.112224299E-2,4.703769483E0
8.902848250E0,-4.563951792E0,-6.716345787E-2,1.807141200E-1,4.568021944E0
8.912794250E0,-4.370592264E0,-9.399282217E-2,2.948575803E-1,4.381535391E0
8.922740250E0,-4.361712097E0,-1.241071522E-1,2.914462781E-1,4.373199737E0
8.932686250E0,-4.327122308E0,-6.319144428E-2,2.792349529E-1,4.336583078E0
8.942632250E0,-4.248979826E0,-1.383486307E-1,1.448964158E-1,4.253700139E0
8.952578250E0,-4.341003598E0,-2.848605591E-1,9.696792204E-2,4.351420522E0
8.962524250E0,-4.481265438E0,-3.068156844E-1,1.840037636E-1,4.495523682E0
8.972470250E0,-4.389603901E0,-3.659813207E-1,2.854845301E-1,4.414075911E0
8.982416250E0,-4.149008518E0,-6.087091827E-1,3.458160647E-1,4.207658173E0
8.992362250E0,-3.907962900E0,-8.695347619E-1,4.374957649E-1,4.027364805E0
9.002308250E0,-3.570139723E0,-1.076845454E0,5.155278810E-1,3.764473771E0
9.012254250E0,-2.954012471E0,-1.204573787E0,9.406732301E-1,3.325966598E0
9.022200250E0,-2.486342222E0,-1.501790097E0,1.254145896E0,3.163882595E0
9.032145250E0,-2.219091284E0,-1.772861753E0,1.273771491E0,3.112860217E0
9.042091250E0,-2.004941250E0,-1.947809860E0,9.924011350E-1,2.966245553E0
9.052037250E0,-1.908464531E0,-2.083349488E0,5.020512915E-1,2.869605801E0
9.061983250E0,-1.622925402E0,-2.133541988E0,1.700229979E-1,2.686037247E0
9.071929250E0,-1.119258525E0,-2.244543775E0,-5.270797133E-2,2.508683825E0
9.081875250E0,-5.258427349E-1,-2.485891694E0,-3.537458758E-1,2.565405278E0
9.091821250E0,2.798465717E-1,-2.526415238E0,-4.321489247E-1,2.578340697E0
9.101767250E0,1.091106228E0,-2.517390645E0,-4.053487965E-1,2.773459231E0
9.111713250E0,1.745755230E0,-2.502132336E0,-5.616858379E-1,3.102227995E0
9.121659250E0,2.174694691E0,-2.426032578E0,-8.216109824E-1,3.360055904E0
9.131605250E0,2.456550951E0,-2.328505114E0,-9.228192687E-1,3.508300735E0
9.141551250E0,2.777704008E0,-2.236512625E0,-8.177050424E-1,3.658725162E0
9.151497250E0,3.154173480E0,-2.258454301E0,-7.088497674E-1,3.943588995E0
9.161443250E0,3.460382808E0,-2.236974555E0,-4.081169415E-1,4.140635673E0
9.171389250E0,3.921900031E0,-2.066540498E0,2.369818215E-1,4.439374941E0
9.181335250E0,4.330491766E0,-1.950528815E0,6.126607311E-1,4.788849003E0
9.191281250E0,4.424337239E0,-2.092861154E0,6.912823927E-1,4.942944381E0
9.201227250E0,4.515924516E0,-2.054108148E0,6.805901742E-1,5.007607962E0
9.211173250E0,4.551010149E0,-1.786933077E0,5.001755047E-1,4.914773518E0
9.221119250E0,4.637841886E0,-1.637793410E0,4.199914670E-1,4.936429626E0
9.231065250E0,4.819111419E0,-1.637803935E0,1.814064121E-1,5.093048682E0
9.241011250E0,4.908439917E0,-1.504262885E0,1.518042799E-1,5.136013414E0
9.250957250E0,5.072161371E0,-1.303578842E0,2.696057765E-1,5.243932307E0
9.260903250E0,5.268631909E0,-1.263009106E0,3.004194518E-1,5.426225764E0
9.270849250E0,5.271347941E0,-1.231730011E0,4.370641673E-1,5.430956916E0
9.280794250E0,4.942105846E0,-1.148428237E0,5.761542249E-1,5.106393179E0
9.290740250E0,4.475775195E0,-1.134106652E0,5.976579452E-1,4.655744464E0
9.300686250E0,3.905345394E0,-1.148255745E0,5.187170255E-1,4.103569331E0
9.310632250E0,3.512449340E0,-1.285716183E0,4.900878517E-1,3.772340463E0
9.320578250E0,3.021899814E0,-1.570348116E0,5.388817700E-1,3.447936376E0
9.330524250E0,2.351895731E0,-1.627357884E0,5.828504562E-1,2.918804870E0
9.340470250E0,1.941642802E0,-1.620032492E0,6.962057483E-1,2.622819950E0
9.350416250E0,1.615300341E0,-1.647117965E0,7.467548545E-1,2.424837230E0
9.360362250E0,1.349135084E0,-1.695686107E0,8.332621443E-1,2.321603465E0
9.370308250E0,1.020660728E0,-1.723726430E0,7.764915276E-1,2.148469274E0
9.380254250E0,7.680468325E-1,-1.727235344E0,5.326089136E-1,1.963901761E0
9.390200250E0,7.217246054E-1,-1.669468946E0,4.546597182E-1,1.874760899E0
9.400146250E0,6.693896864E-1,-1.678945529E0,3.623109504E-1,1.843423409E0
9.410092250E0,2.925962061E-1,-1.869229714E0,7.974206127E-2,1.893671317E0
9.420038250E0,-8.524583523E-2,-1.945064008E0,-9.586502753E-2,1.949289858E0
9.429984250E0,-3.146677642E-1,-1.935177535E0,-2.251786137E-1,1.973482532E0
9.439930250E0,-5.193273287E-1,-1.942446209E0,-1.944655287E-1,2.020053215E0
9.449876250E0,-8.109379135E-1,-1.932477876E0,-2.118235731E-1,2.106409330E0
9.459822250E0,-1.092448457E0,-1.860064203E0,-3.100076429E-1,2.179308883E0
9.469768250E0,-1.416752871E0,-1.728190779E0,-3.343729175E-1,2.259565736E0
9.479714250E0,-1.693213612E0,-1.568990393E0,-5.109097866E-1,2.364261407E0
9.489660250E0,-2.023057678E0,-1.365779768E0,-5.403002679E-1,2.500008225E0
9.499606250E0,-2.435777840E0,-9.915632290E-1,-4.488825230E-1,2.667903080E0
9.509552250E0,-2.807287119E0,-5.418527037E-1,-3.290344827E-1,2.877973073E0
9.519498250E0,-3.117822802E0,-2.803488475E-1,-1.606791838E-1,3.134522659E0
9.529444250E0,-3.597373715E0,-2.111868113E-1,8.063310385E-3,3.603576353E0
9.539389250E0,-4.199093136E0,-1.728705919E-1,-8.509803772E-2,4.203511518E0
9.549335250E0,-4.436653229E0,-3.479678035E-2,-1.355477961E-1,4.438859752E0
9.559281250E0,-4.599979995E0,7.204354405E-3,-1.483906388E-1,4.602378477E0
9.569227250E0,-4.737118837E0,2.416303396E-2,1.416043603E-1,4.739296417E0
9.579173250E0,-4.701410768E0,-7.489113808E-3,4.223209977E-1,4.720346844E0
9.589119250E0,-4.602094349E0,-5.585260391E-3,5.070857441E-1,4.629950274E0
9.599065250E0,-4.604532345E0,3.373843431E-3,5.749169540E-1,4.640286522E0
9.609011250E0,-4.704335838E0,2.289769650E-3,6.068462598E-1,4.743315644E0
9.618957250E0,-4.818225858E0,7.046479583E-3,6.033741832E-1,4.855863515E0
9.628903250E0,-4.853196593E0,-3.266020775E-2,5.482875645E-1,4.884178858E0
9.638849250E0,-4.802275531E0,-1.189826524E-1,5.096350936E-1,4.830707513E0
9.648795250E0,-4.679122352E0,-2.678135866E-1,4.929062462E-1,4.712628424E0
9.658741250E0,-4.593097823E0,-4.556565589E-1,3.905379089E-1,4.632136696E0
9.668687250E0,-4.387797696E0,-6.859421307E-1,3.347858771E-1,4.453691369E0
9.678633250E0,-4.131502832E0,-9.830087525E-1,3.982854696E-1,4.265472210E0
9.688579250E0,-3.828610044E0,-1.154632718E0,5.300161850E-1,4.033899942E0
9.698525250E0,-3.544052078E0,-1.326526825E0,5.826890365E-1,3.828773311E0
9.708471250E0,-3.285006392E0,-1.724435697E0,5.395985290E-1,3.749148175E0
9.718417250E0,-3.140234302E0,-2.068319221E0,3.035850978E-1,3.772423595E0
9.728363250E0,-3.024552403E0,-2.238581954E0,7.157583989E-2,3.763547463E0
9.738309250E0,-2.773291115E0,-2.384374090E0,-1.553827393E-1,3.660673054E0
9.748255250E0,-2.560270032E0,-2.652453725E0,-4.201657140E-1,3.710395212E0
9.758197417E0,-2.163898685E0,-2.896962649E0,-6.233950496E-1,3.669260347E0
9.768143417E0,-1.648375701E0,-3.174215981E0,-1.142772810E0,3.754826126E0
9.778089417E0,-1.116559158E0,-3.468659542E0,-1.580013564E0,3.971743475E0
9.788035417E0,-4.697153118E-1,-3.789232555E0,-1.699396166E0,4.179337646E0
9.797981417E0,1.942819262E-1,-3.907325846E0,-1.399048086E0,4.154789559E0
9.807926417E0,1.551579723E0,-3.517022447E0,-7.085041970E-1,3.908813724E0
9.817872417E0,3.144151937E0,-3.059812868E0,-2.031691823E-1,4.391972666E0
9.827818417E0,4.345810887E0,-2.740339131E0,2.597719475E-1,5.144221251E0
9.837764417E0,4.817711595E0,-2.476233264E0,7.475420360E-1,5.468171110E0
9.847710417E0,5.011815181E0,-2.086166677E0,7.965743013E-1,5.486794459E0
9.857656417E0,5.220337417E0,-1.920798063E0,5.468093884E-1,5.589310194E0
9.867602417E0,5.366537688E0,-1.969862634E0,7.283712085E-1,5.762864754E0
9.877548417E0,5.582114004E0,-1.875469278E0,1.027092665E0,5.977650133E0
9.887494417E0,5.918780310E0,-1.650692368E0,1.264890740E0,6.273491391E0
9.897440417E0,6.312170454E0,-1.505864437E0,1.494690408E0,6.659220897E0
9.907386417E0,6.416097695E0,-1.418667834E0,1.487673165E0,6.737365917E0
9.917332417E0,6.254925043E0,-1.267340139E0,1.198742359E0,6.493629306E0
9.927278417E0,6.153548942E0,-1.086181118E0,7.873280261E-1,6.298082202E0
9.937224417E0,5.745562978E0,-1.039540803E0,7.567431414E-1,5.887681988E0
9.947170417E0,4.986816580E0,-1.028725208E0,7.962995553E-1,5.153708193E0
9.957116417E0,4.463538142E0,-9.333670610E-1,6.980183852E-1,4.613195907E0
9.967062417E0,3.890133862E0,-1.025164254E0,5.922990451E-1,4.066315454E0
9.977008417E0,3.256514956E0,-1.148069803E0,6.838236845E-1,3.520023972E0
9.986954417E0,2.875481148E0,-1.103888242E0,7.539569432E-1,3.171026988E0
9.996900417E0,2.558729875E0,-1.053178849E0,8.648990893E-1,2.899023059E0
1.000684642E1,2.338168515E0,-1.060862675E0,9.131514823E-1,2.725125181E0
1.001679242E1,2.226917051E0,-1.135298315E0,1.174997401E0,2.762006645E0
1.002673842E1,2.101235536E0,-1.266018668E0,1.177650282E0,2.721186181E0
1.003668442E1,1.875832097E0,-1.321684746E0,1.021593944E0,2.511822209E0
1.004663042E1,1.749521422E0,-1.333037699E0,1.095997424E0,2.457442790E0
1.005657542E1,1.470477673E0,-1.386283030E0,1.089360834E0,2.295820606E0
1.006652142E1,1.092737017E0,-1.572742551E0,8.381305361E-1,2.090467918E0
1.007646742E1,5.011961362E-1,-1.790236169E0,5.001509098E-1,1.925173769E0
1.008641342E1,-4.433431998E-2,-1.655396453E0,6.011639357E-2,1.657080845E0
1.009635942E1,-4.709848154E-1,-1.484986954E0,9.925100394E-3,1.557918951E0
1.010630542E1,-5.357273433E-1,-1.479719197E0,1.168987413E-1,1.578048797E0
1.011625142E1,-3.766555591E-1,-1.600494021E0,3.029501267E-1,1.671893926E0
1.012619742E1,-3.667316647E-1,-1.813506333E0,2.981062567E-1,1.874077019E0
1.013614342E1,-6.503200158E-1,-2.047427704E0,1.111299880E-1,2.151098835E0
1.014608942E1,-9.566715775E-1,-1.887484136E0,8.467243351E-2,2.117778622E0
1.015603542E1,-1.319785570E0,-1.548630388E0,1.015310526E-2,2.034746450E0
1.016598142E1,-1.758543091E0,-1.426463342E0,-1.597763371E-1,2.269977961E0
1.017592742E1,-2.113000280E0,-1.329821731E0,-2.830192709E-1,2.512627296E0
1.018587342E1,-2.604160402E0,-1.179656462E0,-5.194163525E-1,2.905689955E0
1.019581942E1,-2.925004726E0,-1.039194648E0,-7.157694355E-1,3.185577506E0
1.020576542E1,-3.109978762E0,-9.100378400E-1,-5.724178906E-1,3.290562112E0
1.021571142E1,-3.190032991E0,-7.799296904E-1,-4.880413262E-1,3.320058003E0
1.022565742E1,-3.236691141E0,-7.314305449E-1,-4.335102296E-1,3.346504341E0
1.023560342E1,-3.421890002E0,-7.289472324E-1,-3.367516013E-1,3.514839527E0
1.024554942E1,-3.545903599E0,-5.882585460E-1,-4.358277004E-2,3.594632097E0
1.025549542E1,-3.501009262E0,-4.568277562E-1,1.048276762E-1,3.532243805E0
1.026544142E1,-3.699206484E0,-4.081847692E-1,2.220959798E-1,3.728279770E0
1.027538742E1,-3.948346110E0,-3.257945770E-1,3.647984290E-1,3.978524476E0
1.028533342E1,-4.055790452E0,-2.715359241E-1,4.277191472E-1,4.087311050E0
1.029527942E1,-4.183075566E0,-2.566454047E-1,3.886691022E-1,4.208925246E0
1.030522542E1,-4.239035174E0,-2.457608128E-1,3.742580545E-1,4.262615004E0
1.031517042E1,-4.230671317E0,-1.547243428E-1,4.398626447E-1,4.256289294E0
1.032511742E1,-4.257466182E0,3.800163925E-2,5.681938255E-1,4.295382014E0
1.033506242E1,-4.264209776E0,1.222301960E-1,6.405051720E-1,4.313777012E0
1.034500842E1,-4.201133814E0,6.556658328E-2,5.974533292E-1,4.243910318E0
1.035495442E1,-4.022127739E0,-1.104129732E-2,5.257488505E-1,4.056358627E0
1.036490042E1,-3.936571864E0,-1.634448802E-1,5.460328416E-1,3.977620411E0
1.037484642E1,-3.841203192E0,-4.084648508E-1,5.289473140E-1,3.898906355E0
1.038479242E1,-3.687612040E0,-6.036145037E-1,5.724038208E-1,3.780275011E0
1.039473842E1,-3.549818603E0,-8.470299983E-1,5.616882133E-1,3.692447099E0
1.040468442E1,-3.399037330E0,-1.113339096E0,3.507674869E-1,3.593885994E0
1.041463042E1,-3.244319419E0,-1.465408722E0,-1.295856278E-2,3.559943698E0
1.042457642E1,-3.198740665E0,-1.795930188E0,-5.686709583E-1,3.712235679E0
1.043452242E1,-3.144873191E0,-2.202246187E0,-1.134189098E0,4.003311200E0
1.044446842E1,-3.000190856E0,-2.746365856E0,-1.158037552E0,4.229033171E0
1.045441442E1,-2.434319837E0,-3.233563465E0,-7.221837580E-1,4.111373874E0
1.046436042E1,-1.343541638E0,-3.287037422E0,2.208738935E-1,3.557879203E0
1.047430642E1,-1.924087706E-1,-2.881774507E0,9.719966912E-1,3.047363288E0
1.048425242E1,7.912235874E-1,-2.820723143E0,1.284505810E0,3.198823063E0
1.049419842E1,1.306617640E0,-2.854458654E0,1.083740491E0,3.321095800E0
1.050414442E1,1.332877486E0,-2.490253133E0,9.913381112E-1,2.993438542E0
1.051409042E1,1.319659270E0,-2.072490039E0,6.338182962E-1,2.537408360E0
1.052403642E1,1.421278031E0,-1.969091386E0,-6.169631124E-2,2.429230035E0
1.053398242E1,1.793916407E0,-1.972403249E0,-5.446938658E-1,2.721250091E0
1.054392842E1,2.618231726E0,-1.903276296E0,-6.919127226E-1,3.310036442E0
1.055387442E1,3.696843624E0,-1.853097246E0,-6.194206971E-1,4.181423703E0
1.056382042E1,4.726461702E0,-1.845331559E0,-2.750167716E-1,5.081370190E0
1.057376642E1,5.640503131E0,-1.809616765E0,2.352995592E-1,5.928351734E0
1.058371142E1,6.423632417E0,-1.881806490E0,4.005658472E-1,6.705572466E0
1.059365742E1,6.744088486E0,-1.878170106E0,3.202268583E-1,7.008052347E0
1.060360342E1,6.676150272E0,-1.819230757E0,9.641999225E-2,6.920251428E0
1.061354942E1,6.449955413E0,-1.800039026E0,-2.924485365E-2,6.696485689E0
1.062349542E1,6.289751644E0,-1.671995528E0,4.569482088E-2,6.508351005E0
1.063344142E1,6.053519454E0,-1.518443552E0,1.214022303E-1,6.242235746E0
1.064338742E1,5.802360492E0,-1.411071131E0,2.018897384E-1,5.974886483E0
1.065333342E1,5.703670017E0,-1.334747425E0,3.963868421E-1,5.871160437E0
1.066327942E1,5.213103241E0,-1.251345665E0,7.732931006E-1,5.416668127E0
1.067322542E1,4.575961388E0,-1.134572675E0,8.701042807E-1,4.794138008E0
1.068317142E1,3.841717163E0,-1.179856437E0,7.808582282E-1,4.093970144E0
1.069311742E1,2.993892235E0,-1.226645856E0,6.187371576E-1,3.294068373E0
1.070306342E1,2.301503257E0,-1.276285794E0,4.008067524E-1,2.662042209E0
1.071300942E1,1.802340783E0,-1.344464913E0,3.858027971E-1,2.281416665E0
1.072295542E1,1.469875410E0,-1.358859589E0,4.562115327E-1,2.053085985E0
1.073290142E1,1.485669324E0,-1.505791347E0,4.261251597E-1,2.157823805E0
1.074284742E1,1.794275426E0,-1.825760928E0,6.106142056E-1,2.631668098E0
1.075279387E1,1.811633470E0,-2.158991409E0,8.247006512E-1,2.936561067E0
1.076273987E1,1.678917462E0,-2.425948963E0,7.434325397E-1,3.042479936E0
1.077268587E1,1.442350958E0,-2.698088320E0,4.088618402E-1,3.086620299E0
1.078263187E1,7.425379157E-1,-2.643721493E0,1.608873081E-1,2.750729106E0
1.079257787E1,3.537297229E-1,-2.455355195E0,-1.081396123E-1,2.483060214E0
1.080252387E1,1.083712808E-1,-2.409890755E0,-2.364929394E-1,2.423890817E0
1.081246987E1,-2.383394536E-1,-2.509419136E0,-4.062189353E-1,2.553234012E0
1.082241587E1,-5.834431446E-1,-2.523411523E0,-4.932851458E-1,2.636539750E0
1.083236087E1,-9.616298702E-1,-2.320834737E0,-2.182999126E-1,2.521638502E0
1.084230687E1,-1.291245310E0,-1.928003002E0,1.440613604E-1,2.324922300E0
1.085225287E1,-1.373450438E0,-1.428009930E0,2.630662505E-1,1.998695154E0
1.086219887E1,-1.509306401E0,-1.114960529E0,3.280615425E-1,1.904932327E0
1.087214488E1,-2.024890488E0,-8.550219727E-1,4.383494218E-1,2.241292992E0
1.088209087E1,-2.640591187E0,-5.115448308E-1,2.930718040E-1,2.705603632E0
1.089203687E1,-3.257027172E0,-2.213317305E-1,-1.479450810E-1,3.267889454E0
1.090198287E1,-3.853711556E0,-7.005724490E-2,-4.035607910E-1,3.875417666E0
1.091192887E1,-4.391230011E0,-6.439947903E-2,-4.254445803E-1,4.412261483E0
1.092187487E1,-4.747418123E0,-1.364377606E-1,-4.012499714E-1,4.766297896E0
1.093182087E1,-4.932865491E0,-1.660387051E-1,-1.354840797E-1,4.937518277E0
1.094176687E1,-5.027335446E0,-2.236045432E-1,8.221945345E-2,5.032977321E0
1.095171287E1,-5.091954780E0,-2.977232641E-1,2.595859694E-1,5.107252442E0
1.096165887E1,-5.038125898E0,-3.213939625E-1,4.725398093E-1,5.070433957E0
1.097160487E1,-4.948910251E0,-3.476450372E-1,7.011981010E-1,5.010414007E0
1.098155087E1,-4.640081955E0,-4.481826478E-1,7.744110882E-1,4.725562481E0
1.099149687E1,-4.548065199E0,-5.212324977E-1,7.968123561E-1,4.646664427E0
1.100144287E1,-4.618816508E0,-4.763258815E-1,9.533312094E-1,4.740168001E0
1.101138887E1,-4.453938476E0,-4.175835836E-1,9.158961654E-1,4.566268693E0
1.102133487E1,-4.288121965E0,-4.604132688E-1,8.603558028E-1,4.397747431E0
1.103128087E1,-4.151443299E0,-5.628202343E-1,7.660098088E-1,4.258875333E0
1.104122687E1,-3.996528044E0,-7.155980390E-1,4.965432143E-1,4.090338877E0
1.105117287E1,-3.915544692E0,-8.731635439E-1,2.720592316E-1,4.020935344E0
1.106111887E1,-3.815683020E0,-1.038004739E0,1.488326518E-1,3.957150731E0
1.107106487E1,-3.596425297E0,-1.267540698E0,4.464583039E-2,3.813519055E0
1.108101087E1,-3.463875350E0,-1.486116636E0,1.196492716E-1,3.771112706E0
1.109095687E1,-3.271910675E0,-1.664894085E0,1.548483403E-1,3.674404685E0
1.110090287E1,-3.111670069E0,-1.849841516E0,1.370856321E-1,3.622595302E0
1.111084887E1,-2.887013612E0,-1.959525341E0,3.593640633E-1,3.507667272E0
1.112079387E1,-2.501259347E0,-2.121931756E0,4.262796358E-1,3.307658843E0
1.113073987E1,-2.193992257E0,-2.353945180E0,2.584282207E-1,3.228226306E0
1.114068587E1,-1.937526070E0,-2.427169277E0,1.614556575E-1,3.109859466E0
1.115063187E1,-1.609362493E0,-2.345064429E0,5.959606446E-2,2.844806936E0
1.116057787E1,-1.135704111E0,-2.390752818E0,-1.887590848E-2,2.646862136E0
1.117052387E1,-3.960208064E-1,-2.510179859E0,4.020837113E-1,2.572840204E0
1.118046987E1,7.095175195E-1,-2.498257971E0,6.347574321E-1,2.673504254E0
1.119041587E1,1.838328933E0,-2.589005004E0,4.211621527E-1,3.203088780E0
1.120036187E1,2.883366119E0,-2.602923716E0,1.962279892E-1,3.889410941E0
1.121030787E1,3.865590175E0,-2.545446171E0,8.187625844E-2,4.629123819E0
1.122025387E1,4.743558961E0,-2.596290634E0,-2.148067494E-1,5.411859071E0
1.123019987E1,5.384961095E0,-2.488329983E0,-3.421229267E-1,5.941939094E0
1.124014587E1,5.718312029E0,-2.370464734E0,-3.487548022E-1,6.199985922E0
1.125009187E1,5.984226440E0,-2.224220023E0,-4.080888383E-1,6.397238256E0
1.126003787E1,6.029076338E0,-1.958792685E0,-3.655199754E-1,6.349821661E0
1.126998387E1,6.028016823E0,-1.877602342E0,-1.201731821E-1,6.314809496E0
1.127992987E1,5.960622400E0,-1.810675111E0,3.758595703E-2,6.229685101E0
1.128987587E1,5.797786800E0,-1.630198461E0,9.485937953E-2,6.023360947E0
1.129982187E1,5.428569045E0,-1.566876040E0,7.949055791E-2,5.650732798E0
1.130976787E1,5.022589846E0,-1.558708064E0,-4.840675950E-2,5.259118063E0
1.131971387E1,4.575314101E0,-1.519820572E0,-1.125179708E-1,4.822448961E0
1.132965987E1,4.208429970E0,-1.466048992E0,-2.584282207E-1,4.463963217E0
1.133960587E1,3.931870703E0,-1.385883080E0,-1.421960986E-1,4.171390520E0
1.134955187E1,3.648151520E0,-1.328269880E0,-2.430106480E-2,3.882512193E0
1.135949787E1,3.295772578E0,-1.461734916E0,6.984151918E-2,3.606059301E0
1.136944287E1,2.777359607E0,-1.468031783E0,1.381930947E-1,3.144509665E0
1.137938887E1,2.318709859E0,-1.414894041E0,1.803058382E-1,2.722287779E0
1.138933487E1,1.926835898E0,-1.448845899E0,3.492986298E-1,2.435951672E0
1.139928087E1,1.723679652E0,-1.409776558E0,6.363361073E-1,2.315915613E0
1.140922687E1,1.646581190E0,-1.378865252E0,7.613625149E-1,2.278633775E0
1.141917287E1,1.575617627E0,-1.451704018E0,8.314962852E-1,2.298130008E0
1.142911887E1,1.631442164E0,-1.576348529E0,1.118905573E0,2.529511395E0
1.143906487E1,1.248488131E0,-1.603276126E0,1.186417598E0,2.353041365E0
1.144901087E1,7.460623249E-1,-1.493327422E0,1.054365176E0,1.974416801E0
1.145895687E1,3.992778517E-1,-1.428712181E0,6.954339159E-1,1.638374081E0
1.146890287E1,1.011493756E-1,-1.484698686E0,4.008839357E-1,1.541190875E0
1.147884887E1,-9.663561746E-2,-1.651934316E0,3.416399467E-1,1.689657741E0
1.148879487E1,-3.942088274E-1,-1.756938615E0,2.891144816E-1,1.823683382E0
1.149874087E1,-6.337013519E-1,-1.746529402E0,7.356608592E-2,1.859396225E0
1.150868687E1,-8.500522779E-1,-1.758431409E0,-9.700413823E-2,1.955525428E0
1.151863287E1,-1.035486636E0,-1.774401324E0,-2.236606399E-1,2.066580924E0
1.152857887E1,-1.163444764E0,-1.770267928E0,-1.397251383E-1,2.122963817E0
1.153852487E1,-1.512893375E0,-1.730528496E0,-1.587749284E-2,2.298657725E0
1.154847087E1,-2.048239882E0,-1.595039154E0,1.507939176E-1,2.600418297E0
1.155841687E1,-2.612821882E0,-1.180331815E0,2.366134651E-1,2.876805053E0
1.156836287E1,-3.169559843E0,-4.500695443E-1,3.067835248E-1,3.216020573E0
1.157830887E1,-3.901418696E0,1.560504913E-1,3.205303288E-1,3.917672688E0
1.158825487E1,-4.379121889E0,4.993066084E-1,2.822802742E-2,4.407585783E0
1.159820087E1,-4.729221588E0,4.124906588E-1,-1.591120934E-1,4.749842316E0
1.160814687E1,-4.899322646E0,5.629991591E-2,-1.930838317E-1,4.903449137E0
1.161809287E1,-4.796276580E0,-1.987532920E-1,-6.985083818E-2,4.800901065E0
1.162803887E1,-4.548297041E0,-2.919006068E-1,6.310080330E-2,4.558091009E0
1.163798487E1,-4.269044254E0,-3.270657617E-1,2.586018831E-1,4.289357270E0
1.164792987E1,-3.892689680E0,-3.402962565E-1,4.730315602E-1,3.936063179E0
1.165787587E1,-3.526338523E0,-3.034342396E-1,5.418398398E-1,3.580604157E0
1.166782187E1,-3.211993379E0,-2.255686229E-1,5.719138241E-1,3.270300918E0
1.167776787E1,-3.060226558E0,-1.513130772E-1,5.720752072E-1,3.116913903E0
1.168771387E1,-2.932929750E0,-2.584235430E-2,6.482609189E-1,3.003828717E0
1.169765987E1,-2.821805463E0,7.754343510E-2,6.256789720E-1,2.891379123E0
1.170760587E1,-2.767905244E0,9.827064514E-2,5.116395557E-1,2.816510535E0
1.171755187E1,-2.785462386E0,6.441175818E-2,4.252738416E-1,2.818476081E0
1.172749787E1,-2.833506911E0,4.082350552E-2,3.625975370E-1,2.856904784E0
1.173744387E1,-2.885797099E0,-3.256138980E-2,2.171843004E-1,2.894141351E0
1.174738987E1,-2.897495331E0,-2.119563049E-1,9.166679978E-2,2.906683242E0
1.175733550E1,-2.875434955E0,-4.347761518E-1,-5.994914493E-2,2.908736905E0
1.176728150E1,-2.850285204E0,-6.623263961E-1,-2.077878249E-1,2.933594685E0
1.177722750E1,-2.730336884E0,-8.786657739E-1,-2.692864819E-1,2.880852001E0
1.178717350E1,-2.529426261E0,-1.248079410E0,-2.133719341E-1,2.828644023E0
1.179711950E1,-2.430955057E0,-1.702148450E0,-1.568234932E-1,2.971774797E0
1.180706550E1,-2.083653251E0,-1.688159571E0,2.614734689E-1,2.694413106E0
1.181701150E1,-1.903332868E0,-1.618331537E0,1.178060757E0,2.762154977E0
1.182695750E1,-1.437720401E0,-1.581927357E0,1.756614679E0,2.766808495E0
1.183690350E1,-1.216119699E0,-1.664799360E0,2.133213959E0,2.966665776E0
1.184684950E1,-1.148880520E0,-1.823320300E0,2.181942315E0,3.066805444E0
1.185679550E1,-1.221888854E0,-2.129238437E0,1.710905825E0,2.992301361E0
1.186674150E1,-1.141083842E0,-2.569028576E0,1.136292926E0,3.032019422E0
1.187668750E1,-7.216154087E-1,-2.692607725E0,3.953689150E-1,2.815525126E0
1.188663350E1,2.313649678E-1,-2.784061101E0,-4.462314320E-1,2.829072013E0
1.189657950E1,1.628178833E0,-2.870281804E0,-1.160739038E0,3.498113644E0
1.190652550E1,3.156553296E0,-2.692177954E0,-1.181089615E0,4.313539559E0
1.191647050E1,4.516595777E0,-2.426861714E0,-1.013147056E0,5.226448330E0
1.192641650E1,5.445330089E0,-2.111078739E0,-8.036307943E-1,5.895260441E0
1.193636250E1,5.758699917E0,-1.784705288E0,-6.672047281E-1,6.065720060E0
1.194630850E1,5.732586837E0,-1.559947089E0,-6.273068368E-1,5.974069018E0
1.195625450E1,5.388034977E0,-1.473139910E0,-6.382633495E-1,5.622138580E0
1.196620050E1,4.987735763E0,-1.484807444E0,-6.139236566E-1,5.240139639E0
1.197614650E1,4.841305110E0,-1.474343852E0,-5.268715159E-1,5.088174384E0
1.198609250E1,4.776987492E0,-1.334355662E0,-2.959685512E-1,4.968673054E0
1.199603850E1,4.798599386E0,-1.233084226E0,-4.106960021E-2,4.954668454E0
1.200598450E1,4.799988685E0,-1.260074388E0,1.213858581E-1,4.964112545E0
1.201593050E1,4.695349837E0,-1.236090864E0,1.864302484E-1,4.858908000E0
1.202587650E1,4.434462862E0,-1.161581549E0,4.048264939E-2,4.584252547E0
1.203582250E1,3.954966620E0,-1.140398256E0,6.524440169E-2,4.116615841E0
1.204576850E1,3.464813828E0,-9.800407058E-1,-1.430108350E-2,3.600780355E0
1.205571450E1,2.934676021E0,-8.899836445E-1,-9.166095257E-3,3.066672179E0
1.206566050E1,2.627861213E0,-1.038148581E0,1.644142755E-1,2.830271910E0
1.207560650E1,2.258858636E0,-1.082015562E0,2.583557153E-1,2.517925275E0
1.208555250E1,1.979897918E0,-9.860849726E-1,4.259592084E-1,2.252509841E0
1.209549850E1,1.695991624E0,-9.402322769E-1,6.423845402E-1,2.042812332E0
1.210544450E1,1.439592095E0,-1.009541078E0,6.898113795E-1,1.888766351E0
1.211539050E1,1.218998283E0,-1.093490138E0,7.554753920E-1,1.803446856E0
1.212533650E1,1.019210326E0,-1.152628292E0,7.996944487E-1,1.734027936E0
1.213528250E1,8.602338883E-1,-1.228295941E0,7.105618322E-1,1.659400909E0
1.214522850E1,7.701891062E-1,-1.348966100E0,6.551840953E-1,1.685872770E0
1.215517450E1,7.953014356E-1,-1.424823782E0,6.397649145E-1,1.752691168E0
1.216512050E1,6.589334030E-1,-1.422229958E0,6.579241005E-1,1.699939824E0
1.217506550E1,5.024187159E-1,-1.519541075E0,4.320415552E-1,1.657736272E0
1.218501150E1,1.219067719E-1,-1.674791082E0,7.553557433E-2,1.680920002E0
1.219495750E1,-2.003057460E-1,-1.694855803E0,1.227810768E-1,1.711062178E0
1.220490350E1,-2.478966362E-1,-1.626237558E0,-2.340282284E-2,1.645189663E0
1.221484950E1,-3.096351387E-1,-1.682107703E0,-1.345374886E-1,1.715651649E0
1.222479550E1,-4.972728007E-1,-1.779885428E0,7.752121568E-2,1.849670758E0
1.223474150E1,-1.202881456E0,-1.718402540E0,-3.468006992E-1,2.126053107E0
1.224468750E1,-1.498132664E0,-1.273787863E0,-4.356608355E-1,2.014134395E0
1.225463350E1,-1.513886379E0,-8.374095744E-1,-1.953495912E-1,1.741053769E0
1.226457950E1,-1.801351726E0,-7.566402304E-1,-1.935556654E-1,1.963373697E0
1.227452550E1,-2.020555947E0,-6.644074202E-1,4.570653358E-2,2.127480351E0
1.228447150E1,-2.234388331E0,-4.513500845E-1,1.573906914E-1,2.284946376E0
1.229441750E1,-2.496711090E0,-3.163694501E-1,9.037107507E-2,2.518297605E0
1.230436350E1,-2.851760164E0,-1.420388085E-1,1.220220351E-1,2.857901404E0
1.231430950E1,-3.112642461E0,-3.543763518E-2,1.464680743E-1,3.116288147E0
1.232425550E1,-3.338480933E0,-6.495671868E-2,1.903982055E-1,3.344536708E0
1.233420150E1,-3.558525107E0,-7.397254050E-2,4.339645582E-1,3.585651699E0
1.234414750E1,-3.640808295E0,-5.272434354E-3,3.782481945E-1,3.660407701E0
1.235409350E1,-3.688825045E0,-9.582417011E-3,2.248862529E-1,3.695686115E0
1.236403950E1,-3.625303818E0,-1.184102100E-1,2.886209035E-1,3.638701798E0
1.237398550E1,-3.515731089E0,-1.467048866E-1,3.073460269E-1,3.532187565E0
1.238393150E1,-3.394544329E0,-1.025531459E-1,2.587088871E-1,3.405932859E0
1.239387750E1,-3.321351807E0,-8.667620122E-2,1.374633531E-1,3.325325061E0
1.240382350E1,-3.319130450E0,-6.224536479E-2,1.661381078E-1,3.323868725E0
1.241376950E1,-3.213430625E0,-3.521134794E-2,3.390718496E-1,3.231461889E0
1.242371550E1,-3.060022783E0,-2.400691330E-2,3.732160807E-1,3.082791917E0
1.243366150E1,-2.901751226E0,-5.334941089E-2,4.925811410E-1,2.943746341E0
1.244360650E1,-2.809861355E0,-8.211011052E-2,5.157022377E-1,2.857973356E0
1.245355250E1,-2.821551109E0,-7.898652792E-2,3.944905901E-1,2.850089886E0
1.246349850E1,-2.936568180E0,-9.854371011E-2,2.604244602E-1,2.949739724E0
1.247344450E1,-3.082290734E0,-1.782728344E-1,8.240364075E-2,3.088541360E0
1.248339050E1,-3.195713854E0,-3.277376068E-1,-7.602314075E-2,3.213374938E0
1.249333650E1,-3.275036597E0,-5.617823535E-1,-2.583685061E-1,3.332899399E0
1.250328250E1,-3.399152520E0,-8.758105785E-1,-3.355529587E-1,3.526170417E0
1.251322850E1,-3.404664690E0,-1.184385690E0,-1.870874755E-1,3.609641649E0
1.252317450E1,-3.227879972E0,-1.493330346E0,-7.126348894E-2,3.557291543E0
1.253312050E1,-3.135469114E0,-1.808033924E0,2.807915183E-1,3.630288847E0
1.254306650E1,-2.967216361E0,-2.053726324E0,1.167314744E0,3.792728366E0
1.255301250E1,-2.556863444E0,-2.303173807E0,1.598179693E0,3.794250728E0
1.256295850E1,-2.139541231E0,-2.482533638E0,1.711752502E0,3.697391861E0
1.257290450E1,-1.806749583E0,-2.681812595E0,1.494949440E0,3.562490236E0
1.258285050E1,-1.699425109E0,-2.941229580E0,1.318102741E0,3.643661892E0
1.259279650E1,-1.248963802E0,-3.166121095E0,7.162020564E-1,3.478099877E0
1.260274250E1,-3.850280410E-1,-3.335533644E0,-2.203722024E-1,3.364906416E0
1.261268850E1,6.022228664E-1,-3.351680730E0,-9.776941451E-1,3.542925618E0
1.262263450E1,1.832765892E0,-3.068774310E0,-1.416265798E0,3.844764673E0
1.263258050E1,2.931677569E0,-2.686425464E0,-1.379458745E0,4.208862265E0
1.264252650E1,3.935791846E0,-2.378038632E0,-1.094843184E0,4.726965918E0
1.265247250E1,4.576648436E0,-2.196881951E0,-9.794214857E-1,5.170228975E0
1.266241850E1,4.897503285E0,-2.125462890E0,-8.599546838E-1,5.407647638E0
1.267236450E1,5.052627577E0,-2.038683193E0,-6.391825318E-1,5.485784256E0
1.268231050E1,5.265192577E0,-1.930233130E0,-2.122024910E-1,5.611869805E0
1.269225650E1,5.438963640E0,-1.806239414E0,1.506348002E-1,5.733019897E0
1.270220250E1,5.451447446E0,-1.697103472E0,3.190205777E-1,5.718410057E0
1.271214750E1,5.493730416E0,-1.525694100E0,3.782774305E-1,5.714184998E0
1.272209350E1,5.515610697E0,-1.444121933E0,3.756812668E-1,5.713894113E0
1.273203950E1,5.405347998E0,-1.397276965E0,3.416574883E-1,5.593469382E0
1.274198550E1,5.231640084E0,-1.254062866E0,3.057473981E-1,5.388526062E0
1.275193150E1,5.055624275E0,-1.198457015E0,2.870409858E-1,5.203655307E0
1.276187804E1,4.750587314E0,-1.068550594E0,3.390928996E-1,4.881072033E0
1.277182404E1,4.508884469E0,-1.084898239E0,3.221967852E-1,4.648747585E0
1.278177004E1,4.223166123E0,-1.201475347E0,6.660551655E-1,4.440980139E0
1.279171604E1,3.716814204E0,-1.180344095E0,1.018287928E0,4.030487603E0
1.280166204E1,3.286927494E0,-1.124730057E0,1.097333001E0,3.643219698E0
1.281160804E1,2.865245597E0,-1.270240942E0,9.010360515E-1,3.261136359E0
1.282155404E1,2.438531002E0,-1.442447875E0,9.453087565E-1,2.986753750E0
1.283150004E1,2.152501584E0,-1.420620219E0,1.055888960E0,2.786812942E0
1.284144604E1,1.957853330E0,-1.519793674E0,1.028962605E0,2.683603271E0
1.285139204E1,1.580203013E0,-1.799661881E0,9.085473847E-1,2.561500107E0
1.286133804E1,1.096883570E0,-1.944143071E0,7.390376993E-1,2.351387371E0
1.287128404E1,9.001811886E-1,-1.790877024E0,5.115681466E-1,2.068639325E0
1.288123004E1,8.262349606E-1,-1.653041194E0,5.798449874E-1,1.936860761E0
1.289117604E1,8.010952954E-1,-1.678340927E0,9.179684186E-1,2.073945022E0
1.290112204E1,6.870962980E-1,-1.731297405E0,1.359947755E0,2.306284875E0
1.291106804E1,3.573322655E-1,-1.777467020E0,1.498415669E0,2.352089469E0
1.292101404E1,-1.403035010E-1,-1.865172915E0,1.186833919E0,2.215204241E0
1.293096004E1,-8.156127624E-1,-1.926531258E0,8.828102803E-1,2.270704925E0
1.294090604E1,-1.455012080E0,-1.864112231E0,5.215904935E-1,2.421576182E0
1.295085204E1,-1.899105916E0,-1.654442187E0,-1.505283078E-1,2.523180731E0
1.296079804E1,-2.127166330E0,-1.523871523E0,-6.951929375E-1,2.707455306E0
1.297074404E1,-2.440807615E0,-1.444507849E0,-8.908057630E-1,2.972823515E0
1.298068904E1,-2.772735921E0,-1.226612527E0,-7.827480483E-1,3.131347520E0
1.299063504E1,-2.919376489E0,-1.009755086E0,-6.275828254E-1,3.152177758E0
1.300058104E1,-2.928311327E0,-9.100167900E-1,-4.328682053E-1,3.096855287E0
1.301052704E1,-2.955389197E0,-8.252754325E-1,-5.859604441E-2,3.069012601E0
1.302047304E1,-3.075688350E0,-7.464415169E-1,1.151119418E-1,3.167062444E0
1.303041904E1,-3.131619892E0,-7.056618655E-1,2.451971412E-2,3.210234109E0
1.304036504E1,-3.266661045E0,-7.065582436E-1,-7.736553356E-2,3.343095027E0
1.305031104E1,-3.521768924E0,-6.140886211E-1,-9.475522600E-2,3.576162712E0
1.306025704E1,-3.661051940E0,-4.288394737E-1,-1.749345859E-1,3.690231254E0
1.307020304E1,-3.641040137E0,-2.534908319E-1,-1.421175997E-1,3.652619374E0
1.308014904E1,-3.589863259E0,-1.202801496E-1,-1.028634869E-2,3.591892446E0
1.309009504E1,-3.504639214E0,-4.439790845E-3,6.679932252E-3,3.504648392E0
1.310004104E1,-3.447087409E0,8.750065863E-2,-2.517343283E-2,3.448289673E0
1.310998704E1,-3.392666788E0,1.439520174E-1,2.348490313E-2,3.395800592E0
1.311993304E1,-3.276018929E0,2.128924441E-1,4.614271760E-2,3.283253320E0
1.312987904E1,-3.145388623E0,2.374232680E-1,3.121134080E-2,3.154491012E0
1.313982504E1,-3.050307342E0,1.715730947E-1,1.142370522E-1,3.057263860E0
1.314977104E1,-2.972180062E0,9.973478794E-2,1.184762836E-1,2.976212018E0
1.315971704E1,-2.872315173E0,1.521562457E-2,-1.121620215E-2,2.872377373E0
1.316966304E1,-2.945036410E0,-1.802643961E-1,-2.857768178E-1,2.964355427E0
1.317960904E1,-3.147738619E0,-4.095617884E-1,-5.844069850E-1,3.227619989E0
1.318955504E1,-3.282296207E0,-6.620737964E-1,-8.526621095E-1,3.455263055E0
1.319950104E1,-3.372720766E0,-1.014769658E0,-1.049434876E0,3.675094065E0
1.320944704E1,-3.568896021E0,-1.301611839E0,-9.578640441E-1,3.917743702E0
1.321939304E1,-3.579074854E0,-1.513324900E0,-5.709699738E-1,3.927586507E0
1.322933904E1,-3.462106567E0,-1.913438757E0,-9.787763916E-2,3.956893957E0
1.323928504E1,-3.207079087E0,-2.179795218E0,6.424253976E-1,3.930594593E0
1.324923004E1,-2.829966129E0,-2.366303855E0,1.259305480E0,3.897942088E0
1.325917604E1,-2.580378606E0,-2.649340083E0,1.597479197E0,4.028560092E0
1.326912204E1,-2.202716595E0,-2.815272954E0,1.932222937E0,4.063398538E0
1.327906804E1,-1.816026776E0,-2.754191185E0,2.091946650E0,3.906374677E0
1.328901404E1,-1.313240197E0,-2.503680094E0,2.024736999E0,3.477437813E0
1.329896004E1,-6.569984132E-1,-2.445702612E0,1.638422570E0,3.016212310E0
1.330890604E1,1.273237056E-1,-2.416914430E0,1.002142596E0,2.619537454E0
1.331885204E1,1.045504378E0,-2.353694335E0,8.317342669E-1,2.706425376E0
1.332879804E1,2.017830852E0,-2.179274231E0,5.739270204E-1,3.024941280E0
1.333874404E1,2.813091942E0,-1.827001122E0,2.736029148E-2,3.354425131E0
1.334869004E1,3.403095882E0,-1.606161727E0,-4.838910091E-1,3.794070055E0
1.335863604E1,3.823814158E0,-1.594458525E0,-8.484596425E-1,4.228916701E0
1.336858204E1,4.267066433E0,-1.551413662E0,-8.317377752E-1,4.615899482E0
1.337852804E1,4.766795796E0,-1.481638253E0,-6.219706678E-1,5.030352034E0
1.338847404E1,5.190086262E0,-1.496239336E0,-1.293310547E-1,5.403004171E0
1.339842004E1,5.620926653E0,-1.453980923E0,3.176266380E-1,5.814616379E0
1.340836604E1,5.998656199E0,-1.458098533E0,6.266607195E-1,6.205048846E0
1.341831204E1,6.162096986E0,-1.446826270E0,8.359243816E-1,6.384631164E0
1.342825804E1,6.124623935E0,-1.187974126E0,7.607116467E-1,6.284980754E0
1.343820404E1,5.898643668E0,-9.505315626E-1,7.997546750E-1,6.028027448E0
1.344815004E1,5.668506616E0,-9.804330540E-1,9.135204417E-1,5.824751997E0
1.345809604E1,5.463377520E0,-1.002617390E0,9.501690352E-1,5.635295622E0
1.346804204E1,5.184626716E0,-1.019072624E0,9.362281036E-1,5.366133269E0
1.347798804E1,4.707658811E0,-1.093247479E0,9.540258586E-1,4.926195983E0
1.348793404E1,4.084425144E0,-1.105931844E0,9.324426162E-1,4.333020105E0
1.349788004E1,3.438186193E0,-1.091044248E0,6.674362779E-1,3.668374712E0
1.350782604E1,2.771019471E0,-1.170455868E0,5.251758599E-1,3.053575860E0
1.351777204E1,2.437937509E0,-1.233975341E0,4.571049507E-1,2.770411410E0
1.352771704E1,2.554191266E0,-1.416836486E0,5.280631419E-1,2.968192941E0
1.353766304E1,2.441999570E0,-1.646149666E0,7.875509512E-1,3.048509000E0
1.354760904E1,2.243582785E0,-1.730202806E0,8.135475989E-1,2.947732206E0
1.355755504E1,2.229620512E0,-1.869847764E0,7.136876806E-1,2.996145589E0
1.356750104E1,1.825231462E0,-2.050939541E0,5.170786357E-1,2.793777588E0
1.357744704E1,1.199750272E0,-2.140463921E0,4.218884499E-1,2.489774363E0
1.358739304E1,8.346970510E-1,-2.256648681E0,8.600801066E-2,2.407608734E0
1.359733904E1,5.641162696E-1,-2.489767229E0,-2.135894322E-1,2.561793994E0
1.360728504E1,1.346004193E-1,-2.598744711E0,-3.356991756E-1,2.623792157E0
1.361723104E1,-1.755069552E-1,-2.651390117E0,-3.220026577E-1,2.676631830E0
1.362717704E1,-2.821266934E-1,-2.750172978E0,-4.946416998E-1,2.808508019E0
1.363712304E1,-5.237049928E-1,-2.646246321E0,-5.917218518E-1,2.761706223E0
1.364706904E1,-6.789732729E-1,-2.445855809E0,-4.625499876E-1,2.580148801E0
1.365701504E1,-9.247738467E-1,-2.494774784E0,-2.990862501E-1,2.677416755E0
1.366696104E1,-1.327049858E0,-2.592278860E0,-1.510547765E-1,2.916125607E0
1.367690704E1,-1.570798644E0,-2.520664501E0,-4.215806671E-1,2.999814689E0
1.368685304E1,-1.825410972E0,-2.337901590E0,-6.516908225E-1,3.036875037E0
1.369679904E1,-2.252639830E0,-2.133043805E0,-8.408751460E-1,3.214239115E0
1.370674504E1,-2.831716201E0,-1.723989555E0,-9.152985068E-1,3.439262709E0
1.371669104E1,-3.393616961E0,-1.191427492E0,-9.782367667E-1,3.727342581E0
1.372663704E1,-3.831574875E0,-7.638691431E-1,-7.340207152E-1,3.975329986E0
1.373658304E1,-4.170052355E0,-4.680567491E-1,-5.074984845E-1,4.226815406E0
1.374652904E1,-4.360592648E0,-2.092022663E-1,-4.208591207E-1,4.385847265E0
1.375647492E1,-4.466483677E0,2.312573791E-2,-2.916707381E-1,4.476056641E0
1.376642092E1,-4.644367964E0,2.017669469E-1,-1.541559935E-2,4.648774174E0
1.377636692E1,-4.608967751E0,3.753415436E-1,4.671949061E-1,4.647766784E0
1.378631292E1,-4.509484685E0,4.807621640E-1,7.759980226E-1,4.600951784E0
1.379625792E1,-4.512933081E0,5.860266638E-1,9.389084673E-1,4.646669921E0
1.380620392E1,-4.411224565E0,5.409919935E-1,9.851459098E-1,4.552151905E0
1.381614992E1,-4.293975028E0,4.964251006E-1,1.038755522E0,4.445635213E0
1.382609592E1,-4.221348224E0,4.646647793E-1,1.024388913E0,4.368645880E0
1.383604192E1,-4.118835131E0,4.528569120E-1,9.766124833E-1,4.257188528E0
1.384598792E1,-4.053368243E0,3.737376523E-1,8.845550895E-1,4.165562585E0
1.385593392E1,-4.024798163E0,1.639570963E-1,7.302073073E-1,4.093786132E0
1.386587992E1,-3.953200176E0,-9.375600994E-2,7.052572381E-1,4.016711291E0
1.387582592E1,-3.846853357E0,-3.274136710E-1,5.107075461E-1,3.894393747E0
1.388577192E1,-3.842542790E0,-5.605947840E-1,4.056294994E-1,3.904348459E0
1.389571792E1,-3.719547778E0,-7.817247856E-1,3.737024959E-1,3.819133785E0
1.390566392E1,-3.527141346E0,-1.106370969E0,3.129054864E-1,3.709810324E0
1.391560992E1,-3.321786255E0,-1.421183891E0,3.667255982E-1,3.631599543E0
1.392555592E1,-3.028423845E0,-1.766784741E0,3.381983487E-1,3.522393707E0
1.393550192E1,-2.850941554E0,-2.172470995E0,1.416874639E-1,3.587139990E0
1.394544792E1,-2.726154078E0,-2.487652291E0,-9.548963629E-2,3.691808263E0
1.395539392E1,-2.545852260E0,-2.794220638E0,-2.349433907E-1,3.787377866E0
1.396533992E1,-2.180784859E0,-2.996375256E0,-2.828064322E-1,3.716727963E0
1.397528592E1,-1.525844081E0,-3.185230966E0,-4.096289583E-1,3.555515764E0
1.398523192E1,-6.750794658E-1,-3.329788170E0,-6.824717351E-1,3.465398853E0
1.399517792E1,3.870503005E-1,-3.516983271E0,-9.723252317E-1,3.669386273E0
1.400512392E1,1.405826764E0,-3.561841355E0,-8.987147800E-1,3.933287554E0
1.401506992E1,2.565247766E0,-3.143458457E0,-8.694763628E-1,4.149435663E0
1.402501592E1,3.594827837E0,-2.695835388E0,-8.799720418E-1,4.578718861E0
1.403496192E1,4.402688507E0,-2.611208051E0,-5.608145662E-1,5.149425847E0
1.404490792E1,5.083206761E0,-2.546300449E0,-2.827709835E-2,5.685370396E0
1.405485392E1,5.760561086E0,-2.274510171E0,2.888010343E-1,6.200069885E0
1.406479992E1,6.305409903E0,-2.078022675E0,5.750970483E-1,6.663865912E0
1.407474492E1,6.497500293E0,-1.866414864E0,9.090058064E-1,6.821092732E0
1.408469092E1,6.564268479E0,-1.448955241E0,1.163747942E0,6.822272439E0
1.409463692E1,6.497040702E0,-1.053288776E0,1.290116798E0,6.707112380E0
1.410458292E1,6.485424623E0,-9.387435758E-1,1.173887014E0,6.657325496E0
1.411452892E1,6.203350847E0,-9.384289956E-1,1.041626505E0,6.359811041E0
1.412447492E1,5.843513780E0,-8.531777608E-1,8.646932673E-1,5.968438660E0
1.413442092E1,5.303737423E0,-8.277955824E-1,6.604079247E-1,5.408420731E0
1.414436692E1,4.755420038E0,-9.470811206E-1,6.331739330E-1,4.889978692E0
1.415431292E1,4.504643483E0,-1.053826720E0,6.696921337E-1,4.674489407E0
1.416425892E1,4.080990197E0,-1.323603802E0,7.192566419E-1,4.350142312E0
1.417420492E1,3.552533465E0,-1.480024422E0,8.596541369E-1,3.943345222E0
1.418415092E1,2.983520737E0,-1.488423947E0,8.005574977E-1,3.428949422E0
1.419409692E1,2.498619036E0,-1.658750415E0,7.575581702E-1,3.093290224E0
1.420404292E1,2.116049165E0,-1.852403181E0,7.308037233E-1,2.905707435E0
1.421398892E1,1.931661312E0,-2.097861108E0,8.610924789E-1,2.978895250E0
1.422393492E1,1.794823017E0,-2.232363440E0,6.446205155E-1,2.936046969E0
1.423388092E1,1.626369997E0,-2.124593993E0,6.798722823E-1,2.760653061E0
1.424382692E1,1.415091384E0,-2.136013606E0,6.714357734E-1,2.648747581E0
1.425377292E1,1.082663726E0,-2.157179357E0,5.254495096E-1,2.470158033E0
1.426371892E1,5.828296986E-1,-2.153479823E0,5.068787527E-1,2.287813777E0
1.427366492E1,4.512340173E-2,-2.243211780E0,3.228493345E-1,2.266774559E0
1.428361092E1,-3.385165103E-1,-2.106164739E0,3.993412940E-1,2.170252705E0
1.429355692E1,-6.599148582E-1,-1.836702822E0,4.293410186E-1,1.998323945E0
1.430350292E1,-1.091609966E0,-1.658802456E0,2.870595507E-1,2.006400032E0
1.431344892E1,-1.439347681E0,-1.405218653E0,2.867685056E-1,2.031895024E0
1.432339492E1,-1.692846699E0,-1.179634827E0,4.290371096E-1,2.107448959E0
1.433334092E1,-2.042458740E0,-1.119013234E0,3.533343780E-1,2.355562248E0
1.434328692E1,-2.565934522E0,-9.370969999E-1,1.503810310E-1,2.735833550E0
1.435323192E1,-3.193812632E0,-6.854030174E-1,4.717299700E-2,3.266870324E0
1.436317792E1,-3.802690799E0,-4.312836099E-1,-1.651886661E-1,3.830633128E0
1.437312392E1,-4.333808015E0,-2.214515984E-1,-2.763439433E-1,4.348252372E0
1.438306992E1,-4.659346191E0,-1.466750658E-1,-3.761374958E-1,4.676804456E0
1.439301592E1,-4.840617770E0,-1.388444746E-1,-3.754565875E-1,4.857141735E0
1.440296192E1,-4.926391454E0,-2.415812230E-1,-2.519715790E-1,4.938743152E0
1.441290792E1,-4.958742929E0,-4.585912764E-1,-7.229957901E-2,4.980428156E0
1.442285392E1,-4.807700577E0,-5.678067398E-1,8.384322524E-2,4.841840458E0
1.443279992E1,-4.539277711E0,-6.501162404E-1,1.922775737E-1,4.589625685E0
1.444274592E1,-4.416714224E0,-7.916586202E-1,2.623353302E-1,4.494764480E0
1.445269192E1,-4.308838942E0,-8.751720625E-1,2.255961049E-1,4.402602954E0
1.446263792E1,-4.169053358E0,-9.366748309E-1,2.292506877E-1,4.279126257E0
1.447258392E1,-4.072977465E0,-1.017335417E0,1.529608957E-1,4.200894407E0
1.448252992E1,-4.012287460E0,-1.046373274E0,-2.911767215E-3,4.146487208E0
1.449247592E1,-3.922787931E0,-1.059246504E0,-2.966372900E-1,4.074096463E0
1.450242192E1,-3.862028636E0,-1.173230957E0,-4.789267230E-1,4.064616448E0
1.451236792E1,-3.832035051E0,-1.204335220E0,-6.342697012E-1,4.066597350E0
1.452231392E1,-3.801861079E0,-1.213818820E0,-7.532652175E-1,4.061392899E0
1.453225992E1,-3.790577415E0,-1.215763019E0,-7.277254567E-1,4.046744518E0
1.454220592E1,-3.640678779E0,-1.177232206E0,-6.242463311E-1,3.876867437E0
1.455215192E1,-3.371892800E0,-1.227014816E0,-5.767740297E-1,3.634266734E0
1.456209792E1,-3.158318278E0,-1.468425300E0,-4.007552969E-1,3.505973762E0
1.457204392E1,-3.001484553E0,-1.744848912E0,-3.658754861E-1,3.491027373E0
1.458198992E1,-2.951357542E0,-1.991199124E0,-4.030392194E-1,3.582991195E0
1.459193592E1,-2.907532953E0,-2.318584144E0,-4.753495426E-1,3.749071551E0
1.460188192E1,-2.843772283E0,-2.681849433E0,-4.026779345E-1,3.929568258E0
1.461182792E1,-2.494761336E0,-2.979163976E0,-7.295059338E-3,3.885782462E0
1.462177392E1,-1.454455717E0,-3.141507826E0,2.860317564E-1,3.473661903E0
1.463171992E1,-1.772916716E-1,-3.379773093E0,3.029512962E-1,3.397952028E0
1.464166492E1,1.265733908E0,-3.384840290E0,5.422731185E-1,3.654214861E0
1.465161092E1,2.798386195E0,-3.233875122E0,5.321656215E-1,4.309537545E0
1.466155692E1,3.518854380E0,-2.882297248E0,3.395524907E-1,4.561279367E0
1.467150292E1,3.640864720E0,-2.248243893E0,-7.928122759E-2,4.279810981E0
1.468144892E1,3.435922735E0,-1.971664161E0,-7.673710406E-1,4.035081526E0
1.469139492E1,3.209082343E0,-1.983861453E0,-1.188723739E0,3.955626357E0
1.470134092E1,3.144188190E0,-1.995127868E0,-1.038521633E0,3.865873997E0
1.471128692E1,3.560964857E0,-1.804780533E0,-3.877627838E-1,4.010992828E0
1.472123292E1,4.431831030E0,-1.378233168E0,6.011317760E-1,4.679958585E0
1.473117892E1,5.336623333E0,-1.066254392E0,1.606651724E0,5.674308486E0
1.474112492E1,5.920674807E0,-9.282846612E-1,2.092269416E0,6.347731398E0
1.475107092E1,6.051019185E0,-7.946208197E-1,1.885014857E0,6.387451482E0
1.476101662E1,5.719139995E0,-4.690414202E-1,1.424577030E0,5.912527535E0
1.477096262E1,5.194386304E0,-5.347442436E-1,1.489386984E0,5.430089692E0
1.478090862E1,4.824204344E0,-5.055134279E-1,1.236586123E0,5.005760343E0
1.479085462E1,4.549968175E0,-2.308217615E-1,7.951979399E-1,4.624697703E0
1.480080062E1,4.430007868E0,-2.148717266E-1,7.603497040E-1,4.499919027E0
1.481074662E1,4.180662128E0,-3.580641907E-1,1.061608779E0,4.328181950E0
1.482069262E1,3.881483199E0,-4.044922525E-1,1.113204610E0,4.058170809E0
1.483063862E1,3.572644671E0,-4.729169548E-1,1.128144246E0,3.776261356E0
1.484058462E1,3.402230494E0,-6.222583508E-1,1.256314044E0,3.679769390E0
1.485053063E1,3.227048498E0,-7.364989114E-1,1.252645501E0,3.539123254E0
1.486047662E1,3.145066734E0,-7.637644780E-1,1.293820424E0,3.485506022E0
1.487042262E1,2.771439301E0,-1.101427733E0,1.298589413E0,3.252745504E0
1.488036862E1,2.580026896E0,-1.177986497E0,1.075253769E0,3.033209792E0
1.489031462E1,2.155928053E0,-1.296603699E0,1.000025904E0,2.707260373E0
1.490026062E1,1.915796793E0,-1.340027461E0,8.929563689E-1,2.502662987E0
1.491020662E1,1.800673303E0,-1.411171119E0,7.719681215E-1,2.414490226E0
1.492015262E1,1.566149669E0,-1.637982860E0,7.206750302E-1,2.378063316E0
1.493009862E1,1.416110554E0,-1.783673839E0,6.216971643E-1,2.360798346E0
1.494004362E1,1.379313734E0,-1.972579250E0,4.385328417E-1,2.446607105E0
1.494998962E1,1.141483646E0,-2.185705583E0,3.723777361E-1,2.493784070E0
1.495993562E1,1.007460054E0,-2.350678926E0,3.683174296E-1,2.583858530E0
1.496988162E1,6.222416863E-1,-2.405849159E0,3.188849223E-1,2.505390686E0
1.497982762E1,8.831795320E-2,-2.454201540E0,2.156802504E-1,2.465243036E0
1.498977362E1,-2.495248117E-1,-2.488407751E0,-7.246878281E-2,2.501936748E0
1.499971962E1,-6.752730086E-1,-2.372544004E0,-3.649608354E-1,2.493622886E0
1.500966562E1,-1.285547783E0,-2.165333884E0,-3.531601310E-1,2.542838180E0
1.501961163E1,-1.721517060E0,-1.919116403E0,-5.786217499E-1,2.642239937E0
1.502955762E1,-2.056687354E0,-1.730106912E0,-6.886686873E-1,2.774436404E0
1.503950362E1,-2.321798358E0,-1.637017484E0,-4.758174661E-1,2.880447208E0
1.504944962E1,-2.520059314E0,-1.565048200E0,-3.958237553E-1,2.992783196E0
1.505939562E1,-2.720623197E0,-1.525678897E0,-4.520880032E-1,3.151804283E0
1.506934162E1,-2.976870698E0,-1.452632555E0,-4.317550416E-1,3.340406100E0
1.507928762E1,-3.225176804E0,-1.306630504E0,-3.260499541E-1,3.495047534E0
1.508923362E1,-3.456241810E0,-1.183695719E0,-3.532129021E-1,3.670354527E0
1.509917962E1,-3.746216636E0,-1.025218633E0,-4.026261136E-1,3.904781699E0
1.510912562E1,-4.040024897E0,-8.212426078E-1,-2.857136679E-1,4.132538311E0
1.511907162E1,-4.162649780E0,-6.175033951E-1,-2.130492957E-1,4.213591536E0
1.512901762E1,-4.216372243E0,-5.019834638E-1,-1.217822993E-1,4.247895152E0
1.513896362E1,-4.154526828E0,-4.533013004E-1,7.999093339E-2,4.179949017E0
1.514890962E1,-3.998941775E0,-4.179402637E-1,1.615657313E-1,4.023967305E0
1.515885562E1,-3.943586477E0,-3.564070898E-1,1.490255003E-1,3.962462481E0
1.516880162E1,-3.896158249E0,-3.209448963E-1,1.784747095E-1,3.913426625E0
1.517874762E1,-3.744192915E0,-3.348384655E-1,2.333319712E-1,3.766369763E0
1.518869362E1,-3.583529263E0,-3.771652901E-1,2.623424931E-1,3.612860254E0
1.519863962E1,-3.480841338E0,-4.032508886E-1,1.719233429E-1,3.508336549E0
1.520858562E1,-3.403716856E0,-4.370179743E-1,-1.150468916E-2,3.431676777E0
1.521853162E1,-3.404192235E0,-5.122207689E-1,-2.781811385E-1,3.453734158E0
1.522847762E1,-3.432149819E0,-5.880731893E-1,-4.413231330E-1,3.510021163E0
1.523842362E1,-3.364202250E0,-7.462731171E-1,-5.599724941E-1,3.491181682E0
1.524836962E1,-3.393140997E0,-8.787008572E-1,-5.929320793E-1,3.554868419E0
1.525831462E1,-3.371323866E0,-9.803663957E-1,-4.607806201E-1,3.541081990E0
1.526826062E1,-3.252384191E0,-1.315981956E0,-4.162260063E-1,3.533136782E0
1.527820662E1,-3.056870841E0,-1.619813222E0,-2.570833611E-1,3.469055501E0
1.528815262E1,-2.732808794E0,-1.784739202E0,2.260309915E-1,3.271792770E0
1.529809862E1,-2.380887103E0,-1.864037971E0,5.932620084E-1,3.081431610E0
1.530804462E1,-2.066442557E0,-2.006434044E0,8.905976021E-1,3.014817823E0
1.531799062E1,-1.796207930E0,-2.217054845E0,1.080125742E0,3.050961608E0
1.532793662E1,-1.574875908E0,-2.261717048E0,1.117463868E0,2.973940757E0
1.533788262E1,-1.229252253E0,-2.165691733E0,1.149801164E0,2.742867934E0
1.534782862E1,-5.152563509E-1,-2.094926391E0,1.509865687E0,2.633229971E0
1.535777462E1,4.918978938E-1,-2.085450978E0,1.670674642E0,2.717024674E0
1.536772062E1,1.574545832E0,-2.113436921E0,1.501842138E0,3.033371063E0
1.537766662E1,2.542580158E0,-2.042679180E0,1.330970124E0,3.522603237E0
1.538761262E1,3.222921533E0,-1.849467294E0,9.204872529E-1,3.828191383E0
1.539755862E1,3.527610877E0,-1.575312402E0,1.661650050E-1,3.866944333E0
1.540750462E1,3.650151268E0,-1.379114928E0,-4.105001935E-1,3.923528090E0
1.541745062E1,3.796219978E0,-1.422541029E0,-7.214012544E-1,4.117684892E0
1.542739662E1,4.027584361E0,-1.555530102E0,-9.325431883E-1,4.417097065E0
1.543734262E1,4.424502130E0,-1.487434013E0,-6.749277306E-1,4.716376415E0
1.544728863E1,4.973222973E0,-1.331161328E0,-5.429490566E-2,5.148580888E0
1.545723462E1,5.391338069E0,-1.208625907E0,2.870480756E-1,5.532603307E0
1.546718062E1,5.442419930E0,-1.141467127E0,4.161488231E-1,5.576384289E0
1.547712662E1,5.240365300E0,-1.129993721E0,4.671610288E-1,5.381129408E0
1.548707262E1,5.141990574E0,-1.097549275E0,5.196772114E-1,5.283440723E0
1.549701862E1,5.309185858E0,-1.114841831E0,6.458484308E-1,5.463281704E0
1.550696462E1,5.341274793E0,-1.115765691E0,7.680140881E-1,5.510353449E0
1.551691062E1,5.168277317E0,-1.050390896E0,6.416021828E-1,5.312820797E0
1.552685662E1,4.922044634E0,-1.020237975E0,6.532671587E-1,5.068941396E0
1.553680262E1,4.491665003E0,-9.673697895E-1,7.490834351E-1,4.655317906E0
1.554674762E1,4.214554636E0,-9.264012730E-1,6.228240690E-1,4.359885311E0
1.555669362E1,3.905002162E0,-9.627762169E-1,6.119054170E-1,4.068219288E0
1.556663962E1,3.409250369E0,-1.029168427E0,8.780928929E-1,3.667863528E0
1.557658562E1,2.937757796E0,-1.022820105E0,1.034532809E0,3.278237326E0
1.558653162E1,2.735562248E0,-1.088186713E0,1.026341737E0,3.117824321E0
1.559647762E1,2.555945723E0,-1.275712182E0,1.083786099E0,3.055305618E0
1.560642362E1,2.050170486E0,-1.386935579E0,1.225720388E0,2.762096992E0
1.561636963E1,1.515772252E0,-1.506669014E0,9.594438887E-1,2.342680006E0
1.562631562E1,1.106101851E0,-1.618330368E0,5.282783926E-1,2.030155793E0
1.563626162E1,8.055218569E-1,-1.847531281E0,4.294098696E-1,2.060735338E0
1.564620762E1,6.128552606E-1,-2.083478127E0,4.007626060E-1,2.208411950E0
1.565615362E1,3.888148075E-1,-2.129139619E0,2.307577345E-1,2.176617009E0
1.566609962E1,2.318775494E-1,-2.127908195E0,1.559116200E-1,2.146175417E0
1.567604562E1,7.275105715E-3,-2.229517601E0,2.882189074E-1,2.248081804E0
1.568599162E1,-1.950680843E-1,-2.314885780E0,3.093365653E-1,2.343594854E0
1.569593762E1,-3.847856739E-1,-2.363623492E0,2.219576749E-1,2.405003375E0
1.570588362E1,-8.544302344E-1,-2.299895273E0,2.209360202E-1,2.463408617E0
1.571582962E1,-1.432996143E0,-2.051680968E0,1.060358937E-1,2.504818627E0
1.572577562E1,-1.847035437E0,-1.740910812E0,-2.592526782E-1,2.551376553E0
1.573572162E1,-2.178500352E0,-1.587068229E0,-7.601131842E-1,2.800432359E0
1.574566762E1,-2.518402213E0,-1.307960161E0,-1.057137560E0,3.028307995E0
1.575561362E1,-2.889804195E0,-9.576803684E-1,-1.078391458E0,3.229713317E0
1.576555987E1,-3.157554340E0,-7.417514652E-1,-9.178038195E-1,3.370861684E0
1.577550587E1,-3.385419457E0,-7.009051555E-1,-6.945192651E-1,3.526285573E0
1.578545187E1,-3.435721006E0,-6.318062693E-1,-4.302775964E-1,3.519729650E0
1.579539787E1,-3.479010867E0,-5.339478528E-1,-3.610608888E-1,3.538217332E0
1.580534387E1,-3.564256255E0,-5.151695198E-1,-4.270163119E-1,3.626522469E0
1.581528987E1,-3.650655883E0,-4.691484243E-1,-3.257575934E-1,3.695065173E0
1.582523587E1,-3.796640393E0,-3.883445817E-1,-1.444218412E-1,3.819181516E0
1.583518187E1,-3.825899275E0,-4.226268071E-1,1.243737853E-1,3.851180016E0
1.584512787E1,-3.792623940E0,-4.299159461E-1,3.119697127E-1,3.829640867E0
1.585507387E1,-3.773353856E0,-4.394656187E-1,3.536441343E-1,3.815284200E0
1.586501887E1,-3.676398542E0,-4.737683094E-1,3.957699609E-1,3.727867556E0
1.587496487E1,-3.585046323E0,-4.940294963E-1,4.743365125E-1,3.649879095E0
1.588491088E1,-3.521038607E0,-5.043510014E-1,4.401737165E-1,3.584108774E0
1.589485687E1,-3.433344990E0,-5.895414251E-1,4.208298115E-1,3.508919299E0
1.590480287E1,-3.360361214E0,-6.666550899E-1,3.723458688E-1,3.446026399E0
1.591474887E1,-3.316346883E0,-6.885037959E-1,1.572260740E-1,3.390709979E0
1.592469487E1,-3.289726264E0,-7.771160102E-1,-3.129181311E-2,3.380412307E0
1.593464087E1,-3.267424691E0,-9.023779875E-1,-1.293775401E-1,3.392210001E0
1.594458687E1,-3.127914219E0,-1.067072418E0,-2.803085017E-1,3.316785155E0
1.595453287E1,-3.065237037E0,-1.217942861E0,-4.264745674E-1,3.325799673E0
1.596447887E1,-3.102450764E0,-1.288150379E0,-3.513884246E-1,3.377573977E0
1.597442487E1,-3.009168963E0,-1.299571161E0,-1.889584748E-1,3.283243573E0
1.598437087E1,-2.987285759E0,-1.384713637E0,-3.826417923E-2,3.292836499E0
