"Time (s)","Linear Acceleration x (m/s^2)","Linear Acceleration y (m/s^2)","Linear Acceleration z (m/s^2)","Absolute acceleration (m/s^2)"
1.142825000E-2,4.501484452E-2,-1.712921726E-2,-5.577015817E-2,7.368891947E-2
2.140525001E-2,1.289325098E-2,1.268180676E-2,-2.703226268E-2,3.252395070E-2
3.138325003E-2,-2.960608824E-2,-4.560161261E-3,-1.436076164E-3,2.998962898E-2
4.136124998E-2,-6.325341563E-2,3.691980385E-2,-5.233258009E-2,9.001536227E-2
5.133824999E-2,-1.052611742E-1,3.371736607E-2,-2.404024243E-2,1.131136986E-1
6.131625001E-2,-7.238763899E-2,2.014782406E-2,-1.730425000E-2,7.710604491E-2
7.129425002E-2,-6.121256834E-2,1.953792293E-2,-1.850292921E-2,6.686604030E-2
8.127224998E-2,-2.325616051E-2,-1.016276230E-2,-3.481841505E-2,4.308657291E-2
9.124924999E-2,2.439970458E-2,-1.851024737E-2,-2.778421462E-2,4.135138962E-2
1.012272500E-1,4.351943282E-2,-3.346164174E-2,1.254227757E-3,5.491079665E-2
1.112052500E-1,6.043728693E-2,-2.347272447E-2,-4.110768020E-2,7.676897692E-2
1.211822500E-1,3.286261049E-2,-2.047563359E-2,-3.542067826E-2,5.247692052E-2
1.311602500E-1,8.678861166E-5,-3.198775054E-2,-2.554239213E-2,4.093455158E-2
1.411382500E-1,-1.496261486E-2,1.831434737E-2,-3.063297808E-2,3.869979986E-2
1.511162500E-1,-4.315879209E-2,4.289252451E-2,-1.401869953E-2,6.244176431E-2
1.610932500E-1,-5.542096976E-2,2.575641850E-2,-3.153169513E-2,6.876863225E-2
1.710712500E-1,-6.016618626E-2,2.513188105E-3,-1.222068071E-2,6.144616441E-2
1.810492500E-1,-4.774267569E-2,7.920684004E-3,-3.033184648E-2,5.711498251E-2
1.910262500E-1,-5.114212924E-3,-3.788566338E-3,5.146719217E-3,8.185177300E-3
2.010042500E-1,1.078923207E-2,-4.303267496E-3,-3.706491530E-2,3.884241993E-2
2.109822500E-1,2.176789109E-2,-2.746090014E-2,5.747812986E-3,3.551027278E-2
2.209602500E-1,4.929576925E-2,-2.572160016E-2,-4.844008863E-2,7.374358120E-2
2.309372500E-1,3.985995290E-2,-2.005950370E-2,-2.209604323E-2,4.979392192E-2
2.409152500E-1,1.551275220E-2,1.039699811E-2,-1.775565505E-2,2.576832041E-2
2.508932500E-1,-6.799255422E-3,1.208953863E-2,-1.236803055E-2,1.858372939E-2
2.608702500E-1,-4.565007141E-2,1.286225731E-2,-1.476246536E-2,4.967189413E-2
2.708482500E-1,-7.041609035E-2,2.384395871E-2,-3.556861281E-2,8.241411508E-2
2.808262500E-1,-7.733845364E-2,3.099120227E-2,-1.102024734E-2,8.404247070E-2
2.908032500E-1,-5.660625519E-2,2.189390316E-2,-2.583826125E-2,6.596382999E-2
3.007812500E-1,-2.768646105E-2,6.491313865E-3,5.788743496E-5,2.843731056E-2
3.107592500E-1,2.130080363E-2,1.923185773E-5,-1.999923170E-2,2.921804021E-2
3.207373333E-1,3.204156548E-2,-2.501416929E-2,-3.287246168E-2,5.227780906E-2
3.307143333E-1,4.034162186E-2,-2.699336043E-2,-2.194460034E-2,5.326962968E-2
3.406923334E-1,2.249850069E-2,-2.864776614E-2,-2.374320388E-2,4.348122317E-2
3.506703334E-1,6.771425188E-3,-1.640010601E-2,-1.431398392E-2,2.279705709E-2
3.606483333E-1,-1.328795403E-2,2.969755149E-3,-3.467281938E-2,3.725041706E-2
3.706253333E-1,-4.160798259E-2,8.479750911E-3,-6.980406046E-3,4.303320183E-2
3.806033334E-1,-2.323735120E-2,2.384383994E-2,-3.332620561E-2,4.710774007E-2
3.905813334E-1,-5.377303710E-2,1.336199326E-2,-2.329706132E-2,6.010686690E-2
4.005583333E-1,-8.099303309E-3,-1.547958981E-3,-8.477293253E-3,1.182621630E-2
4.105363333E-1,6.259316448E-3,-8.996498594E-3,1.757029831E-2,2.070824503E-2
4.205143334E-1,1.925560291E-2,-7.731435215E-3,-5.577425122E-2,5.950899456E-2
4.304913334E-1,2.220987664E-2,-1.761216072E-2,-1.326382399E-2,3.129530081E-2
4.404693333E-1,1.826536209E-2,-1.707064460E-2,-2.478810132E-2,3.520625408E-2
4.504473333E-1,-1.699605434E-3,-2.525174897E-3,-5.697176099E-2,5.705301672E-2
4.604253334E-1,-7.665000795E-3,-3.921645312E-3,-6.676935554E-3,1.089554990E-2
4.704023334E-1,-3.123996874E-3,8.424732266E-3,-3.182522535E-2,3.306932777E-2
4.803803333E-1,-4.186514588E-2,7.200325308E-3,2.752869129E-3,4.256892543E-2
4.903583333E-1,-3.053669774E-2,5.220275363E-3,-1.535829663E-2,3.457771622E-2
5.003353333E-1,-3.555425516E-2,4.638459133E-3,-2.972958326E-2,4.657755344E-2
5.103133334E-1,-1.545236828E-2,-1.483223909E-2,-2.485066652E-3,2.156261946E-2
5.202913333E-1,2.172261857E-2,-4.867048720E-3,-2.927876294E-2,3.678051495E-2
5.302693333E-1,4.604415547E-2,-1.985829553E-2,3.074758351E-2,5.882032001E-2
5.402463333E-1,8.863446458E-3,-7.823017230E-3,-5.098070383E-2,5.233347346E-2
5.502243334E-1,-1.687778698E-2,-8.044398297E-4,-4.124976754E-2,4.457634058E-2
5.602023333E-1,-6.890372629E-3,-1.667983132E-2,9.942605495E-3,2.060459687E-2
5.701793333E-1,5.503771218E-2,-1.451626103E-2,-1.550155342E-2,5.899296361E-2
5.801573333E-1,8.460033117E-3,8.344351323E-3,-8.764391541E-3,1.476532825E-2
5.901353334E-1,-3.397515062E-2,3.348070001E-3,-4.064575016E-2,5.308104595E-2
6.001133333E-1,-4.518434182E-3,-1.236946494E-2,-2.986933172E-2,3.264348155E-2
6.100903333E-1,-5.375454985E-3,-2.012821762E-3,-8.311232328E-3,1.010067080E-2
6.200683333E-1,-1.998047036E-2,2.841482769E-2,-4.812843204E-2,5.935459206E-2
6.300463334E-1,-7.277213910E-2,1.091839615E-2,-2.323683500E-3,7.362333264E-2
6.400233334E-1,-6.871267766E-2,1.228255156E-2,-3.764846742E-2,7.930763042E-2
6.500013333E-1,-4.455370020E-2,2.267572157E-2,-1.085360169E-2,5.115682965E-2
6.599793333E-1,4.398094716E-2,1.213434292E-3,4.864298701E-3,4.426576033E-2
6.699573334E-1,4.331811958E-2,-1.327959320E-2,-4.797581971E-2,6.598853200E-2
6.799343334E-1,7.293424859E-2,-3.276502823E-2,3.016169250E-2,8.545571594E-2
6.899123333E-1,8.104951696E-2,-4.104833096E-2,-4.512939513E-2,1.014428508E-1
6.998903333E-1,1.932505230E-2,-7.198964003E-3,-8.389935851E-2,8.639667290E-2
7.098673334E-1,4.178666528E-2,-1.191676254E-2,1.401834869E-1,1.467635671E-1
7.198453334E-1,-2.223519326E-2,1.452801942E-2,-2.103834039E-1,2.120533985E-1
7.298233333E-1,-1.011805394E-1,2.419265376E-2,5.920071959E-2,1.196975825E-1
7.398013333E-1,-1.146006942E-1,2.712880570E-2,-1.863215268E-2,1.192327485E-1
7.497783334E-1,-3.853247050E-2,6.802917469E-2,-8.569562316E-2,1.160019815E-1
7.597563334E-1,-1.011432177E-1,1.333032693E-2,6.399309754E-2,1.204274248E-1
7.697343333E-1,-6.387369900E-3,1.780976007E-2,-1.174261236E-1,1.189406598E-1
7.797113333E-1,-2.764091672E-2,-1.482725982E-2,2.192998230E-2,3.827260162E-2
7.896893334E-1,9.009049094E-2,-6.104195299E-2,-1.638448298E-2,1.100493883E-1
7.996673334E-1,1.532152221E-1,-4.721813019E-2,-5.785469055E-2,1.704453617E-1
8.096453333E-1,1.179023702E-1,-6.853595470E-2,6.938423038E-2,1.530108408E-1
8.196223333E-1,5.058049846E-2,-6.646128036E-3,-1.309010321E-1,1.404907045E-1
8.296003334E-1,-3.331202383E-2,4.238409083E-3,6.668807924E-2,7.466562098E-2
8.395783334E-1,-5.441293719E-2,5.286178051E-2,-8.928639829E-2,1.171631192E-1
8.495553333E-1,-1.358028900E-1,5.933023542E-2,2.402562439E-2,1.501323829E-1
8.595333333E-1,-1.677354209E-1,5.423132633E-2,-6.488538265E-2,1.878465359E-1
8.695113334E-1,-1.156658833E-1,6.301882351E-2,-2.596748471E-2,1.342545304E-1
8.794893334E-1,-6.522911671E-2,2.636933461E-2,2.238314152E-2,7.383213730E-2
8.894663333E-1,3.735796930E-4,-1.898015337E-3,-1.496051055E-1,1.496176113E-1
8.994443333E-1,9.101050464E-2,-7.931113061E-2,9.033714294E-2,1.507778723E-1
9.094223334E-1,1.463704806E-1,-7.405408175E-2,-8.224518120E-2,1.835009386E-1
9.193993334E-1,1.541603241E-1,-9.078725064E-3,-2.522196472E-2,1.564735641E-1
9.293773333E-1,2.313182952E-2,-6.814354258E-2,1.455781281E-1,1.623933968E-1
9.393553333E-1,5.420857244E-2,2.592418791E-2,-1.675724298E-1,1.780200889E-1
9.493333334E-1,-1.716156332E-1,2.174169282E-2,6.174659729E-2,1.836770782E-1
9.593103334E-1,-1.272241019E-1,6.747714272E-2,-7.491394222E-2,1.623306368E-1
9.692883333E-1,-1.744609066E-1,9.390147770E-2,-2.058336854E-2,1.991927973E-1
9.792663333E-1,-8.702612054E-2,3.291111725E-2,3.900034368E-2,1.008846574E-1
9.892433333E-1,-3.988385340E-2,5.854150085E-3,-1.443712628E-1,1.498934767E-1
9.992213334E-1,4.846683507E-2,-5.220514733E-2,1.169875824E-1,1.369689963E-1
1.009199333E0,1.292187516E-1,-3.365221529E-2,-1.461622649E-1,1.979731423E-1
1.019177333E0,1.299065029E-1,-8.078006082E-2,6.893750310E-2,1.677900386E-1
1.029154333E0,1.041838612E-1,-7.360573735E-2,-7.057063043E-2,1.457816703E-1
1.039132333E0,4.344124458E-2,-1.811445482E-2,7.712477446E-3,4.769441805E-2
1.049110333E0,-4.789881005E-2,1.389769871E-2,-1.443969905E-2,5.192250901E-2
1.059087333E0,-7.613124115E-2,5.312393677E-2,-3.659655333E-2,9.978690422E-2
1.069065333E0,-1.323795462E-1,3.538661823E-2,2.627387881E-2,1.395237389E-1
1.079043333E0,-9.436526240E-2,5.051777794E-2,-5.620226741E-2,1.208947621E-1
1.089021333E0,-8.764583403E-2,2.257627322E-2,2.912030339E-2,9.507614004E-2
1.098998333E0,-2.368313059E-3,1.311311200E-2,-4.422366142E-2,4.618760486E-2
1.108976333E0,5.270990822E-2,-2.960242460E-2,-4.347463310E-2,7.446261941E-2
1.118954333E0,9.097586903E-2,-6.318181464E-2,1.370587349E-2,1.116082498E-1
1.128931333E0,1.032598459E-1,-3.521319347E-2,-4.826350272E-2,1.192976549E-1
1.138909333E0,4.991847031E-2,-2.600655142E-2,2.508163154E-2,6.162209536E-2
1.148887333E0,7.240525487E-3,-2.180804959E-2,-7.998991013E-3,2.433105204E-2
1.158865333E0,-2.873037633E-2,2.096724738E-2,-5.814588189E-2,6.816159893E-2
1.168842333E0,-1.011679679E-1,4.279811938E-2,1.505073309E-2,1.108745296E-1
1.178820333E0,-9.801859360E-2,5.231570539E-2,-3.943654597E-2,1.178974931E-1
1.188798333E0,-1.138283318E-1,5.487176090E-2,-2.641538143E-2,1.290952038E-1
1.198775333E0,-5.133827477E-2,2.074857065E-2,-5.306348205E-3,5.562624356E-2
1.208753333E0,1.214751971E-2,6.974832918E-3,-3.030494928E-2,3.338563285E-2
1.218731333E0,4.418712089E-2,-3.319922967E-2,2.523190498E-2,6.075639499E-2
1.228709333E0,6.801442418E-2,-3.459793847E-2,-5.829381645E-2,9.602681021E-2
1.238686333E0,5.999730223E-2,-4.477739275E-2,1.581671834E-3,7.488119164E-2
1.248664333E0,4.993474659E-2,-3.494015590E-2,-2.970327079E-2,6.779806566E-2
1.258642333E0,2.769710024E-2,8.219010774E-3,-2.356778741E-2,3.728434126E-2
1.268619333E0,-3.278582010E-2,1.117821353E-2,-1.353747368E-2,3.719039730E-2
1.278597333E0,-7.997075136E-2,2.327080367E-2,-2.012260795E-2,8.568413346E-2
1.288575333E0,-8.073597830E-2,2.505280660E-2,-1.518171072E-2,8.588612024E-2
1.298553333E0,-6.232632588E-2,2.864254019E-2,-1.742587209E-2,7.077165410E-2
1.308530333E0,-4.871512704E-2,1.105823597E-2,-2.416127980E-2,5.549068054E-2
1.318508333E0,1.556530634E-2,5.686983671E-3,-2.910100758E-2,3.348864266E-2
1.328489583E0,3.831659175E-2,-3.467692156E-2,-3.194450855E-2,6.075443786E-2
1.338466583E0,8.299639310E-2,-3.261008615E-2,-1.502851367E-2,9.043049933E-2
1.348444583E0,5.884104274E-2,-3.644953240E-2,-2.520734668E-2,7.366306435E-2
1.358422583E0,4.489318132E-2,-1.333927134E-2,-2.311228931E-2,5.222558574E-2
1.368400583E0,-4.223896111E-3,9.319374533E-3,-2.206329882E-2,2.432038641E-2
1.378377583E0,-4.249786486E-2,1.247626799E-2,-1.846960008E-2,4.798803922E-2
1.388355583E0,-5.542826965E-2,3.314528910E-2,-1.637337327E-2,6.662575041E-2
1.398333583E0,-9.311672654E-2,3.905618459E-2,-1.532672167E-2,1.021323588E-1
1.408310583E0,-5.382014373E-2,3.600771130E-2,-2.670247972E-2,7.004416869E-2
1.418288583E0,-2.547042798E-2,1.117527165E-2,-2.011617601E-2,3.432622810E-2
1.428266583E0,1.056490227E-2,-9.460255885E-3,-2.281057298E-2,2.685955773E-2
1.438244583E0,2.917043870E-2,-3.046295201E-2,-2.325846970E-2,4.816494941E-2
1.448221583E0,4.425616829E-2,-1.832941309E-2,-2.101313889E-2,5.230800915E-2
1.458199583E0,7.410502561E-2,-2.678240385E-2,-3.313850999E-2,8.548106703E-2
1.468177583E0,3.756689876E-2,-1.480418159E-2,-2.475594163E-2,4.736340698E-2
1.478154583E0,3.578415466E-3,-4.579548435E-3,-1.966710985E-2,2.050786510E-2
1.488132583E0,-3.922634313E-2,2.506158656E-2,-1.592606127E-2,4.919785101E-2
1.498110583E0,-6.516176409E-2,4.114011398E-2,-2.026528001E-2,7.968215642E-2
1.508088583E0,-6.979729048E-2,3.073989077E-2,-2.355726242E-2,7.982197226E-2
1.518065583E0,-4.413925138E-2,2.072720091E-2,-1.337725997E-2,5.056521981E-2
1.528043583E0,-2.881070931E-2,9.891743856E-3,-2.145811200E-2,3.726062450E-2
1.538021583E0,6.458459251E-3,-4.578196267E-3,-9.632703066E-3,1.246838182E-2
1.547998583E0,3.001915520E-2,-1.155471940E-2,-1.771647871E-2,3.672240238E-2
1.557976583E0,4.240525501E-2,-2.709546743E-2,-3.777593672E-2,6.292369509E-2
1.567954583E0,3.976695933E-2,-3.239023084E-2,-1.876605392E-2,5.461412718E-2
1.577932583E0,3.592848153E-2,4.812806658E-4,-2.430512130E-2,4.338002233E-2
1.587909583E0,1.864819369E-2,-1.027050639E-2,-3.119021773E-2,3.776331701E-2
1.597887583E0,-2.127485432E-2,6.011476731E-3,-2.191010177E-2,3.112571025E-2
1.607865583E0,-4.502361991E-2,2.036339446E-2,-1.562434494E-2,5.182580765E-2
1.617842583E0,-6.959124922E-2,2.388273306E-2,-3.134107590E-2,7.997243240E-2
1.627820583E0,-5.803322706E-2,2.899796868E-2,-2.729948044E-2,7.038465218E-2
1.637798583E0,-2.476256771E-2,1.265514711E-2,-1.936656296E-2,3.388806972E-2
1.647776583E0,-1.594692738E-3,-1.036147627E-2,-1.906543136E-2,2.175761725E-2
1.657753583E0,1.500079878E-2,-1.902866699E-3,-2.145986617E-2,2.625206128E-2
1.667731583E0,3.330140063E-2,-3.045038050E-3,-2.325437665E-2,4.073108854E-2
1.677709583E0,4.149430906E-2,-2.423095303E-2,-9.184221625E-3,4.892102509E-2
1.687686583E0,1.874396240E-2,-1.021621864E-2,-6.789202094E-3,2.240090433E-2
1.697664583E0,-3.190302530E-3,1.292197200E-2,-3.014122725E-2,3.294918771E-2
1.707642583E0,-3.326757357E-2,3.019465618E-3,-1.876488447E-2,3.831409027E-2
1.717620583E0,-5.898065872E-2,1.819606916E-2,-1.577052534E-2,6.370654994E-2
1.727597583E0,-6.771196324E-2,1.626360093E-2,-2.130783856E-2,7.282471192E-2
1.737575583E0,-2.656186332E-2,9.121236149E-3,-1.007943034E-2,2.983830504E-2
1.747553583E0,-1.784304352E-2,7.502480177E-3,-2.804207683E-2,3.407373598E-2
1.757530583E0,-8.640151913E-4,1.000440326E-3,-2.983600259E-2,2.986527170E-2
1.767508583E0,4.072141679E-2,-7.962308871E-3,-1.501681924E-2,4.412637542E-2
1.777486583E0,2.699824833E-2,-1.857773703E-2,-1.337141275E-2,3.539537265E-2
1.787464583E0,1.373066705E-2,-4.123456478E-3,-5.887561440E-3,1.549830606E-2
1.797441583E0,1.499782264E-2,-9.286392583E-3,2.645280361E-3,1.783730023E-2
1.807419583E0,-8.663887954E-3,3.828665446E-3,-3.073413491E-2,3.216066981E-2
1.817397583E0,-2.684317149E-2,1.343491900E-2,-9.628025293E-3,3.152382869E-2
1.827374583E0,-4.154679696E-2,1.251411044E-2,-1.666047156E-2,4.647914167E-2
1.837352583E0,-4.139303346E-2,1.705797259E-2,-2.249774694E-2,5.010495251E-2
1.847330583E0,-3.554438341E-2,5.398368761E-3,-2.354556799E-2,4.297603227E-2
1.857308583E0,-1.612896651E-2,1.081229660E-2,-4.984166622E-3,2.004722513E-2
1.867285583E0,3.694890403E-3,6.618582169E-3,-1.785739660E-2,1.939959944E-2
1.877263583E0,3.784285080E-2,-1.297457867E-2,-1.037179112E-2,4.132789735E-2
1.887241583E0,1.627101502E-2,-1.867462722E-2,-1.291649938E-2,2.793427263E-2
1.897218583E0,1.700859788E-2,-1.973527559E-2,-1.007241368E-2,2.793254413E-2
1.907196583E0,1.718528657E-2,-6.151133822E-3,-2.189782262E-2,2.850763332E-2
1.917174583E0,-2.193006453E-2,-4.858853482E-4,-3.282509923E-2,3.947975373E-2
1.927152583E0,-1.903732361E-2,8.047586856E-3,-3.566801548E-2,4.122366641E-2
1.937129583E0,-3.468136179E-2,1.404471050E-2,-8.724045753E-3,3.842082408E-2
1.947107583E0,-3.623106580E-2,2.173473098E-2,-1.261536777E-2,4.409349344E-2
1.957085583E0,-2.493307572E-2,1.843208654E-2,-1.306326449E-2,3.364593524E-2
1.967062583E0,-8.249570470E-4,7.128039105E-3,-3.312096834E-2,3.388934994E-2
1.977040583E0,1.074669700E-2,-1.162723401E-2,-2.009804964E-2,2.558545811E-2
1.987018583E0,2.530532180E-2,-1.130420275E-2,-2.863030672E-2,3.984769472E-2
1.996996583E0,8.984415300E-3,-5.319477031E-3,-1.440987825E-2,1.779497529E-2
2.006973583E0,2.898111682E-2,-8.651805231E-3,-4.764077425E-2,5.643050803E-2
2.016951583E0,6.789506446E-3,-1.990202174E-2,-7.524781823E-3,2.233405938E-2
2.026929583E0,-2.108619254E-2,1.457208367E-3,-2.285676599E-3,2.125971048E-2
2.036906583E0,-1.647677420E-2,1.914650666E-2,-1.081910312E-2,2.747955235E-2
2.046884583E0,-3.975711957E-2,5.080691362E-3,-3.207490146E-2,5.133460124E-2
2.056862583E0,-2.330357092E-2,1.431516250E-2,-2.159727573E-2,3.484856689E-2
2.066840583E0,-1.317570462E-2,1.398498667E-2,-1.845439732E-2,2.664101772E-2
2.076817583E0,-8.651293600E-3,5.140990773E-3,-3.073004186E-2,3.233589553E-2
2.086795583E0,1.785056267E-2,7.081727330E-3,-1.172015905E-2,2.249790163E-2
2.096773583E0,1.123163903E-2,4.842170645E-3,-3.402085483E-2,3.615266097E-2
2.106751583E0,-5.287811846E-3,-5.652220147E-3,-1.441163242E-2,1.635859700E-2
2.116728583E0,1.143163208E-2,6.276976867E-3,-9.770112634E-3,1.629532913E-2
2.126706583E0,6.532939303E-3,-1.658626674E-3,-2.623587191E-2,2.708784438E-2
2.136684583E0,-2.551900784E-3,-1.479683602E-3,-3.183808923E-3,4.340311098E-3
2.146661583E0,-1.499989429E-2,1.653215258E-2,-1.875202060E-2,2.915385351E-2
2.156639583E0,-2.615724970E-2,2.182481465E-2,-1.949871004E-2,3.925205650E-2
2.166617583E0,-1.907673293E-2,1.217874521E-2,-2.608384430E-2,3.453419331E-2
2.176594583E0,-1.398343808E-2,1.508495757E-2,-2.084473908E-2,2.928473378E-2
2.186572583E0,2.643847108E-3,2.510355860E-3,-3.630536199E-3,5.145153755E-3
2.196550583E0,-5.002755515E-4,-1.286072242E-2,-1.021742463E-2,1.643302233E-2
2.206528583E0,-3.637373558E-4,2.354390519E-3,-1.006715119E-2,1.034519176E-2
2.216505583E0,8.622212267E-3,-3.327549929E-3,-1.500512481E-2,1.762296523E-2
2.226483583E0,1.680410521E-2,-8.106917823E-3,-2.668084502E-2,3.255714299E-2
2.236461583E0,-1.055774400E-2,-8.247196181E-3,-3.177143097E-2,3.448051666E-2
2.246438583E0,-4.963450691E-3,-1.505920242E-2,-1.799948394E-2,2.398743092E-2
2.256416583E0,-8.022231411E-4,8.510247795E-3,-2.773042023E-2,2.901799589E-2
2.266394583E0,-1.791289148E-2,8.895369172E-3,-2.159376740E-2,2.943280592E-2
2.276372583E0,-1.179886806E-2,8.631723700E-3,-2.024598420E-2,2.497238110E-2
2.286349583E0,-1.363886577E-2,8.711446831E-3,-2.024539948E-2,2.591879946E-2
2.296327583E0,-1.862161170E-4,-1.876060870E-3,-1.350882232E-2,1.363974198E-2
2.306305583E0,1.558895330E-2,2.636271995E-4,-2.054419219E-2,2.579047881E-2
2.316282583E0,-2.073221672E-3,-1.183348540E-3,-2.847710967E-2,2.857698964E-2
2.326260708E0,9.757109431E-3,-4.217130700E-3,-1.799772978E-2,2.090224038E-2
2.336238708E0,2.232134833E-2,1.235720406E-2,-2.428348660E-2,3.522258941E-2
2.346216708E0,-1.009541768E-2,1.039430290E-2,-2.383442044E-2,2.789334309E-2
2.356193708E0,2.400292304E-3,6.004980840E-3,-4.225782752E-3,7.725182062E-3
2.366171708E0,-1.272227246E-2,2.084813777E-2,-3.401383817E-2,4.187412390E-2
2.376149708E0,-4.385963570E-2,3.628233857E-3,-4.449087918E-2,6.258010910E-2
2.386126708E0,-3.729638966E-2,8.533444796E-3,-1.215694606E-2,4.014513295E-2
2.396104708E0,1.318184534E-3,1.304943217E-2,-2.457935572E-2,2.785982803E-2
2.406082708E0,-1.201136181E-2,6.846367763E-3,-1.125647485E-2,1.782845451E-2
2.416060708E0,5.649230301E-3,5.281771626E-4,-3.580425560E-2,3.625103438E-2
2.426037708E0,-1.290404092E-2,1.321626054E-3,-2.113534570E-2,2.479846377E-2
2.436015708E0,6.464384125E-3,1.376489382E-3,-1.440052271E-2,1.584481112E-2
2.445993708E0,3.718666415E-3,-3.478965405E-3,-2.667558253E-2,2.715728969E-2
2.455970708E0,-1.028384763E-2,3.034878513E-3,-2.263457179E-2,2.504579505E-2
2.465948708E0,-1.063594366E-2,7.095806329E-3,-3.416060328E-2,3.647493087E-2
2.475926708E0,-1.882625740E-2,1.101337686E-2,-1.410231471E-2,2.597301903E-2
2.485904708E0,-1.906864047E-2,7.380721048E-3,-3.356184840E-2,3.929994607E-2
2.495881708E0,-2.190442814E-2,-1.182993139E-2,-3.041896999E-2,3.930731464E-2
2.505859708E0,-9.237202310E-3,-2.946768282E-3,-2.053951442E-2,2.271301395E-2
2.515837708E0,3.250371250E-3,-4.319904651E-4,-9.312860370E-3,9.873241478E-3
2.525814708E0,4.597723340E-3,3.904304663E-3,-2.278484523E-2,2.356972268E-2
2.535792708E0,-5.693441875E-3,-9.232168794E-3,-3.431087673E-2,3.598450337E-2
2.545770708E0,2.515613215E-3,-9.533757214E-3,-1.874324977E-2,2.117853273E-2
2.555748708E0,-3.307130355E-3,7.459375234E-3,-1.065888941E-2,1.342353581E-2
2.565725708E0,1.380221094E-2,9.167465698E-3,-3.610714138E-2,3.972743526E-2
2.575703708E0,-1.848590376E-2,5.399748338E-3,-2.443142116E-2,3.110916682E-2
2.585681708E0,-1.494989603E-2,9.224640504E-3,-2.847360134E-2,3.345652936E-2
2.595658708E0,-2.593548034E-2,1.061137165E-2,-3.071834743E-2,4.157964908E-2
2.605636708E0,-2.760133609E-3,1.183691151E-2,-3.326422513E-2,3.541524368E-2
2.615614708E0,1.110530720E-3,-4.576067515E-3,-3.221581936E-2,3.255814321E-2
2.625592708E0,-1.695637151E-3,1.162273896E-2,-3.550721705E-2,3.739954156E-2
2.635569708E0,-1.961221797E-3,-2.044743905E-3,-1.844211817E-2,1.865848577E-2
2.645547708E0,-8.824176466E-3,7.248838926E-3,-2.263340235E-2,2.535118652E-2
2.655525708E0,7.122669831E-3,-4.383145943E-3,-2.038748682E-2,2.203619778E-2
2.665502708E0,-1.254827325E-2,1.273889020E-3,-1.035834253E-2,1.632106660E-2
2.675480708E0,-1.121588581E-2,7.817389285E-3,-1.290246606E-2,1.879843877E-2
2.685458708E0,-2.077958831E-3,9.409037931E-3,-1.484724998E-2,1.769996440E-2
2.695436708E0,-4.235235370E-3,9.431668483E-3,-2.861861229E-2,3.042890991E-2
2.705413708E0,-2.029120876E-2,1.080743610E-2,-2.053542137E-2,3.082592024E-2
2.715391708E0,-1.325347259E-2,1.697121453E-2,-3.774903953E-2,4.345879248E-2
2.725369708E0,-1.049689641E-2,2.066239731E-2,-2.203230858E-2,3.197721249E-2
2.735346708E0,5.616279185E-4,2.684482288E-2,4.910491705E-3,2.729602297E-2
2.745324708E0,2.200394616E-3,2.676864462E-3,-2.293219507E-2,2.319251841E-2
2.755302708E0,6.256287202E-3,5.650338074E-3,-2.383032739E-2,2.527749896E-2
2.765280708E0,-7.407792400E-3,2.170943264E-3,-1.439876854E-2,1.633746977E-2
2.775257708E0,2.474633027E-3,-2.842459437E-3,-2.712289453E-2,2.738347662E-2
2.785235708E0,-1.682817815E-2,5.565507766E-3,-3.086511254E-2,3.559238161E-2
2.795213708E0,-9.703673646E-3,9.607697083E-3,-1.739137352E-2,2.211173892E-2
2.805190708E0,-1.894787948E-2,1.151445583E-2,-2.622066915E-2,3.433843795E-2
2.815168708E0,-1.725112599E-2,2.112443699E-3,-3.385479391E-2,3.805536541E-2
2.825146708E0,-1.598598952E-2,3.831369784E-3,-2.337541401E-2,2.857693538E-2
2.835124708E0,-2.292492259E-3,4.458867386E-4,-3.535051167E-2,3.542757416E-2
2.845101708E0,-1.448375189E-2,8.923125174E-4,-2.502198994E-2,2.892533960E-2
2.855079708E0,-5.961498455E-3,-6.315303538E-3,-2.157914937E-2,2.326117387E-2
2.865057708E0,-7.332731624E-3,2.005182923E-2,-1.693879902E-2,2.725376526E-2
2.875034708E0,2.444823647E-3,2.517390791E-3,-9.453193545E-3,1.008351562E-2
2.885012708E0,-1.016619982E-2,3.687994229E-3,-1.289486468E-2,1.682945202E-2
2.894990708E0,-3.669735384E-3,1.246698554E-2,-1.050042987E-2,1.670783390E-2
2.904968708E0,-7.375209019E-3,6.182544334E-3,-2.217615008E-2,2.417434994E-2
2.914945708E0,2.783716618E-3,2.610352384E-3,-1.693646014E-2,1.736106851E-2
2.924923708E0,-1.149773874E-3,7.809349364E-3,-1.813396990E-2,1.977748169E-2
2.934901708E0,-2.621505034E-2,6.456906656E-3,-1.918179095E-2,3.311890113E-2
2.944878708E0,-9.336096200E-3,7.125033271E-3,-3.594634295E-2,3.781624469E-2
2.954856708E0,2.269008037E-3,2.863993635E-3,-1.543840349E-2,1.586490338E-2
2.964834708E0,-3.776031369E-3,1.158248453E-2,-3.313617110E-3,1.262507106E-2
2.974812708E0,-5.438667155E-3,2.197305070E-2,-3.013654947E-3,2.283585281E-2
2.984789708E0,3.364286317E-3,-3.099645562E-3,-1.603715837E-2,1.667683044E-2
2.994767708E0,-2.018821097E-2,2.819901975E-3,-2.127684832E-2,2.946557285E-2
3.004745708E0,-5.701174589E-3,-1.025153948E-3,-2.846249163E-2,2.904595948E-2
3.014722708E0,-7.070448028E-3,1.109109915E-2,-1.723759174E-2,2.168267245E-2
3.024700708E0,-1.030548119E-2,7.750064079E-3,-1.918354511E-2,2.311438597E-2
3.034678708E0,-9.577725534E-3,1.482519502E-2,-9.902844429E-3,2.023822032E-2
3.044656708E0,1.180390100E-3,1.254409569E-2,-2.637035787E-2,2.922573236E-2
3.054633708E0,-2.322086936E-3,1.142397017E-2,-1.888767600E-2,2.219557359E-2
3.064611708E0,-5.872671597E-4,-2.530839387E-3,-2.577394187E-2,2.590455772E-2
3.074589708E0,-4.133919225E-3,1.399348341E-2,-9.457286596E-3,1.738813204E-2
3.084566708E0,1.211726265E-2,6.776904669E-3,1.022093296E-3,1.392117688E-2
3.094544708E0,-1.801359263E-3,2.489740770E-2,-2.442498922E-2,3.492428817E-2
3.104522708E0,-4.222009471E-3,1.575326691E-2,-3.318879604E-3,1.664348955E-2
3.114500708E0,-7.462570646E-3,7.375604734E-3,-2.038339376E-2,2.292536253E-2
3.124477708E0,-2.196794124E-2,8.501851559E-3,-2.487464011E-2,3.425813251E-2
3.134455708E0,-1.120490972E-2,4.240912423E-3,-3.550312400E-2,3.747008345E-2
3.144433708E0,-8.553345315E-3,3.876603479E-3,-1.993491232E-2,2.203607270E-2
3.154410708E0,-1.627166369E-2,-5.473176576E-4,-2.607039571E-2,3.073649506E-2
3.164388708E0,5.038035238E-3,-5.635619536E-4,-1.544132710E-2,1.625219935E-2
3.174366708E0,6.846343210E-3,3.281612741E-3,-2.157914937E-2,2.287577507E-2
3.184344708E0,-1.062080028E-2,7.158846622E-3,-1.648973286E-2,2.087969764E-2
3.194321708E0,4.530581430E-4,-1.315742293E-3,-2.098097920E-2,2.102707606E-2
3.204299708E0,-3.317416658E-3,7.587219123E-4,-1.499401510E-2,1.537535043E-2
3.214277708E0,-6.835822790E-3,1.291035980E-2,-2.307662129E-2,2.731183468E-2
3.224254708E0,1.190407454E-3,6.129115401E-3,-1.948350728E-2,2.045947656E-2
3.234232708E0,-8.133664837E-3,6.813796945E-3,-2.142887592E-2,2.391194379E-2
3.244210708E0,-7.021651186E-3,1.230962235E-2,-2.337541401E-2,2.733569769E-2
3.254188708E0,-1.307399276E-2,1.794367958E-2,-1.095183492E-2,2.475575916E-2
3.264165708E0,-1.655055989E-2,-2.476615598E-3,-2.711704731E-2,3.186516770E-2
3.274143708E0,-8.081697708E-3,9.168881821E-3,-2.412210345E-2,2.704178446E-2
3.284121708E0,9.252571808E-3,9.456711011E-3,-2.531961322E-2,2.856785399E-2
3.294098708E0,-6.806238391E-3,4.314633021E-3,-2.517050922E-2,2.642906494E-2
3.304076708E0,3.055970744E-3,1.094702010E-2,-2.442206562E-2,2.693721395E-2
3.314054708E0,-1.067634198E-2,-1.120332001E-2,-1.304513812E-2,2.024041220E-2
3.324032583E0,-2.757287888E-2,8.525258694E-3,-2.696677387E-2,3.949874148E-2
3.334009583E0,-9.207612772E-3,-4.312321544E-4,-3.070899189E-2,3.206256816E-2
3.343987583E0,-7.663411084E-3,2.191244066E-3,-2.741467059E-2,2.854984384E-2
3.353965583E0,-1.286204261E-2,-1.625882266E-3,-1.903151751E-2,2.302768533E-2
3.363942583E0,-1.550214042E-2,-3.227379816E-3,-1.199731708E-2,1.986625166E-2
3.373920583E0,-2.056529699E-3,8.011599071E-5,-1.693646014E-2,1.706104964E-2
3.383898583E0,-4.786881909E-3,6.291466998E-3,-2.741584003E-2,2.853287718E-2
3.393876583E0,6.204109939E-3,-6.652916288E-3,-1.648914814E-2,1.883200153E-2
3.403853583E0,-2.116753051E-2,1.820320459E-3,-2.995996356E-2,3.672842674E-2
3.413831583E0,-1.169270455E-2,5.991194202E-3,-3.145743549E-2,3.409081981E-2
3.423809583E0,-1.373266105E-2,1.554304124E-2,-2.397183001E-2,3.169890762E-2
3.433786583E0,-3.510245154E-3,1.363753416E-3,-1.962910295E-2,1.998707900E-2
3.443764583E0,-1.858652955E-2,5.749558015E-3,-2.381980240E-2,3.075547894E-2
3.453742583E0,-2.858910441E-3,1.257242728E-4,-2.082544327E-2,2.102113848E-2
3.463720583E0,-9.578771638E-3,1.193674358E-2,-1.947999895E-2,2.477315225E-2
3.473697583E0,-7.830909829E-3,1.373509130E-2,-2.456941545E-2,2.921698234E-2
3.483675583E0,-1.593490519E-2,6.010124562E-3,-9.001203775E-3,1.926303377E-2
3.493653583E0,1.007586948E-2,8.870326644E-3,-2.142653704E-2,2.528442861E-2
3.503630583E0,-6.904346561E-3,-2.611823324E-3,-2.591778338E-2,2.694852719E-2
3.513608583E0,-1.108526335E-2,1.666178718E-2,-2.995996356E-2,3.602912200E-2
3.523586583E0,-1.361064724E-2,1.041108624E-2,-2.561840594E-2,3.082114790E-2
3.533564583E0,5.207990500E-3,-9.375462122E-4,-3.804256976E-2,3.840884366E-2
3.543541583E0,-1.073891404E-3,5.645696847E-3,-3.280171037E-2,3.330134139E-2
3.553519583E0,1.282055136E-3,-4.743800377E-3,-1.873155534E-2,1.936539369E-2
3.563497583E0,-2.258528159E-2,9.937735861E-3,-1.888241351E-2,3.107087186E-2
3.573474583E0,-1.382671214E-2,8.837098014E-3,-1.903268695E-2,2.512997100E-2
3.583452583E0,-1.610863373E-2,1.804048754E-4,-2.202646136E-2,2.728892865E-2
3.593430583E0,-1.577149378E-3,1.255487650E-2,-5.710975528E-3,1.388263539E-2
3.603408583E0,8.173147247E-3,-2.531351019E-3,-2.502198994E-2,2.644443334E-2
3.613385583E0,2.781814560E-3,5.244870214E-3,-2.187969625E-2,2.267086817E-2
3.623363583E0,-1.164370671E-2,6.560977958E-3,-1.754047751E-2,2.205199966E-2
3.633341583E0,-2.955842316E-3,1.464535659E-3,-3.011316061E-2,3.029330471E-2
3.643318583E0,-7.410108445E-3,6.350989826E-3,-2.562249899E-2,2.741819165E-2
3.653296583E0,-6.829244101E-3,-5.418413747E-3,-2.233051658E-2,2.397185335E-2
3.663274583E0,6.716477349E-3,1.782852598E-4,-2.816779196E-2,2.895802752E-2
3.673252583E0,-2.654742686E-3,1.037547304E-2,-2.367654562E-2,2.598609074E-2
3.683229583E0,-1.936014245E-2,6.078920709E-3,-2.442615867E-2,3.175540300E-2
3.693207583E0,-1.408098836E-2,2.445406085E-3,-2.891740501E-2,3.225632584E-2
3.703185583E0,-3.936184550E-3,8.503733631E-3,-2.547514915E-2,2.714388069E-2
3.713162583E0,4.597739329E-3,-7.869986817E-4,-7.362813950E-3,8.716054332E-3
3.723140583E0,1.975268248E-4,-7.507340675E-3,-1.305215478E-2,1.505848350E-2
3.733118583E0,-9.486822459E-3,-5.021259896E-3,-1.739254296E-2,2.043803811E-2
3.743096583E0,-8.255417686E-4,1.119955586E-2,-6.913747787E-3,1.318755016E-2
3.753073583E0,-9.875140961E-3,1.345681865E-2,-1.484549582E-2,2.233815398E-2
3.763051583E0,-7.302057153E-3,2.358986065E-3,-3.235907614E-2,3.325649805E-2
3.773029583E0,-5.507182361E-3,1.260883533E-2,-1.828775167E-2,2.288566467E-2
3.783006583E0,-7.014475213E-3,5.968253016E-3,-7.061682343E-3,1.160561347E-2
3.792984583E0,4.250519215E-3,6.787356567E-3,-3.625215232E-2,3.712618578E-2
3.802962583E0,-1.356148609E-3,7.844405249E-3,-1.559335470E-2,1.750789946E-2
3.812940583E0,-1.202123127E-2,1.156061229E-2,-2.651946187E-2,3.132793667E-2
3.822917583E0,-1.839581096E-2,-1.664254619E-3,-2.202821553E-2,2.874748482E-2
3.832895583E0,-1.091316792E-2,7.776047643E-3,-2.202763081E-2,2.578334094E-2
3.842873583E0,8.970026810E-3,8.660311103E-3,-1.768724263E-2,2.164026158E-2
3.852850583E0,-4.599154880E-4,-6.927488744E-4,-1.379592061E-2,1.382095687E-2
3.862828583E0,5.154507891E-3,-2.265293570E-3,-1.963436544E-2,2.042569002E-2
3.872806583E0,7.284437277E-3,1.407231119E-2,-1.798778951E-2,2.397193234E-2
3.882783583E0,-4.112419859E-3,3.480920568E-5,-3.086043477E-2,3.113325622E-2
3.892761583E0,-6.408909238E-3,9.237321652E-3,-2.577043355E-2,2.811614259E-2
3.902739583E0,-1.231743158E-2,2.155428043E-2,-2.562016010E-2,3.567490335E-2
3.912717583E0,-1.888019910E-2,1.302103663E-2,-2.756611347E-2,3.585944680E-2
3.922694583E0,-2.815429198E-3,-1.788891675E-3,-1.289486468E-2,1.331932093E-2
3.932672583E0,-1.769542073E-2,1.388649764E-3,-2.382214129E-2,2.970775452E-2
3.942650583E0,-1.504388317E-2,1.866719943E-2,-2.277490497E-2,3.306779478E-2
3.952628583E0,-1.846864534E-2,7.817919189E-3,-2.801225603E-2,3.445137456E-2
3.962605583E0,8.121245785E-3,1.063201049E-2,-2.906183124E-2,3.199350426E-2
3.972583583E0,-6.690288790E-3,2.431582902E-3,-2.427120745E-2,2.529355789E-2
3.982561583E0,-1.750121323E-2,1.508691274E-3,-2.142712176E-2,2.770722218E-2
3.992538583E0,-9.748059951E-3,3.089979384E-4,-1.484081805E-2,1.775866078E-2
4.002516583E0,-1.496701055E-3,-2.468676176E-3,-2.442031145E-2,2.459036574E-2
4.012494583E0,-1.336048234E-3,1.666566096E-3,-2.187618792E-2,2.198021987E-2
4.022471583E0,3.644679722E-3,1.508176901E-2,-1.753579974E-2,2.341469025E-2
4.032449583E0,-1.266966465E-2,7.668066015E-3,-1.648680925E-2,2.216155496E-2
4.042427583E0,-8.522017029E-3,-8.234304897E-3,-2.352276385E-2,2.633911484E-2
4.052405583E0,-1.439300812E-2,5.877712537E-3,-1.244521379E-2,1.991455583E-2
4.062382583E0,6.884387798E-3,7.357122051E-3,-8.553307056E-3,1.321669784E-2
4.072360583E0,6.299989429E-3,4.599593421E-3,-1.648739398E-2,1.823952539E-2
4.082338583E0,1.673208853E-2,-2.342157047E-3,-7.506655455E-3,1.848778955E-2
4.092315583E0,9.933889490E-3,1.151821998E-2,-2.217673481E-2,2.689161800E-2
4.102293583E0,-3.339118165E-3,2.161478084E-3,-2.921268940E-2,2.948224753E-2
4.112271583E0,1.207258741E-3,9.022564385E-3,-3.130891621E-2,3.260540409E-2
4.122249583E0,-6.930579660E-3,1.213696503E-2,-1.753930807E-2,2.242690755E-2
4.132226583E0,-2.319579029E-2,2.378280963E-2,-2.906533957E-2,4.414137158E-2
4.142204583E0,-3.818545652E-2,1.153332224E-2,-5.564210415E-3,4.027539012E-2
4.152182583E0,-2.359163994E-2,1.476034574E-2,-1.424381733E-2,3.126211147E-2
4.162160583E0,-2.808338192E-2,1.271413090E-3,-2.906183124E-2,4.043368480E-2
4.172137583E0,-6.728578916E-3,-2.667856095E-3,1.474667788E-3,7.386871832E-3
4.182115583E0,1.876982720E-2,-5.132411812E-3,-3.295315325E-2,3.826954890E-2
4.192093583E0,2.218844522E-2,-7.125563174E-4,-1.663766742E-2,2.774250917E-2
4.202070583E0,1.919425054E-2,-2.056591826E-2,-2.846249163E-2,4.001861664E-2
4.212048583E0,2.544822227E-2,-1.533449664E-2,-5.615665913E-2,6.353211131E-2
4.222026583E0,2.428599451E-2,1.080430236E-2,2.072253227E-3,2.666152119E-2
4.232003583E0,1.787045691E-2,1.795311735E-2,-4.133806050E-2,4.848198530E-2
4.241981583E0,-2.289430694E-2,3.184101284E-3,-1.394619405E-2,2.699600192E-2
4.251959583E0,-3.042137283E-2,1.897638923E-2,-2.217790425E-2,4.215949134E-2
4.261937583E0,-4.134536038E-2,2.923683657E-2,-1.813747823E-2,5.378847046E-2
4.271914583E0,-3.420473149E-2,1.046594957E-2,5.736118555E-4,3.577469479E-2
4.281892583E0,-3.791948358E-2,9.832951929E-3,-4.807580709E-2,6.201497728E-2
4.291870583E0,-3.729118884E-2,6.814719709E-3,-7.658683062E-3,3.867465056E-2
4.301847583E0,1.313586361E-2,-1.910632532E-3,-4.163685322E-2,4.370159008E-2
4.311825583E0,2.714969807E-2,8.482683655E-3,-1.993140399E-2,3.473215934E-2
4.321803583E0,2.282708223E-2,-4.365147483E-3,-2.741467059E-2,3.594014968E-2
4.331778208E0,2.020475447E-2,-1.594092599E-2,-2.262521625E-2,3.426726769E-2
4.341755208E0,8.581240645E-3,-1.025081771E-2,-9.452024102E-3,1.637246818E-2
4.351733208E0,-7.189051717E-3,3.883035416E-3,-2.352393329E-2,2.490252730E-2
4.361711208E0,-1.652888865E-2,8.785350155E-3,-8.704749942E-3,2.064362393E-2
4.371688208E0,-3.348020894E-2,2.512660942E-2,-2.891272724E-2,5.087451904E-2
4.381666208E0,-4.254276965E-2,1.220343143E-2,-6.609692574E-3,4.474929076E-2
4.391644208E0,-1.195551405E-2,2.148214954E-2,-2.412151873E-2,3.444219405E-2
4.401622208E0,-1.173321707E-2,2.226691897E-2,-2.472027361E-2,3.527854859E-2
4.411599208E0,-4.939241848E-3,-3.428268218E-3,-2.232466936E-2,2.312012100E-2
4.421577208E0,2.234669235E-2,-3.050419316E-3,-3.774260759E-2,4.396799000E-2
4.431555208E0,4.671214961E-2,-5.174447810E-3,-5.630517840E-2,7.334216350E-2
4.441532208E0,3.316548484E-2,-2.610190672E-2,7.003385603E-2,8.176796384E-2
4.451510208E0,3.221977537E-2,1.357140580E-2,-1.607873207E-1,1.645443997E-1
4.461488208E0,6.321082232E-3,1.108605593E-2,1.056562632E-1,1.064241640E-1
4.471466208E0,-2.416686663E-2,1.378080921E-2,-6.019357681E-2,6.631149851E-2
4.481443208E0,-1.630853085E-2,3.394698805E-2,-1.933147967E-2,4.233287472E-2
4.491421208E0,-6.269469590E-2,1.444700807E-2,3.800105453E-2,7.472229307E-2
4.501399208E0,-8.107387199E-3,3.829780072E-2,-8.219781876E-2,9.104357570E-2
4.511376208E0,-5.159184750E-2,1.100841586E-2,-1.948233783E-2,5.623580208E-2
4.521354208E0,1.064503083E-2,-6.725988211E-3,8.889521956E-2,8.978260221E-2
4.531332208E0,3.236091253E-2,3.452753434E-3,-1.940158778E-1,1.967264878E-1
4.541310208E0,1.685698825E-2,-3.657706565E-2,1.309571654E-1,1.370102877E-1
4.551287208E0,2.168885318E-2,-4.437342323E-3,-1.371306556E-1,1.389061305E-1
4.561265208E0,4.398999664E-2,4.946333310E-3,2.303335190E-2,4.990111539E-2
4.571243208E0,-4.637819594E-3,2.597059105E-3,6.868724227E-3,8.685243755E-3
4.581220208E0,-1.982173216E-2,1.305767309E-2,-1.025543153E-1,1.052653385E-1
4.591198208E0,-5.654565428E-2,1.372131379E-2,-5.989770770E-2,8.350701083E-2
4.601176208E0,-2.076177714E-2,2.218789020E-2,1.743680638E-1,1.769959760E-1
4.611154208E0,-3.508288735E-2,4.620716488E-2,-2.904165834E-1,2.961548632E-1
4.621131208E0,-8.107438590E-3,-3.045776261E-2,2.547468138E-1,2.566891992E-1
4.631109208E0,4.557957135E-3,-4.904845487E-3,-2.405661464E-1,2.406593095E-1
4.641087208E0,4.732004990E-2,4.375626789E-3,1.466692185E-1,1.541758506E-1
4.651064208E0,-1.990600058E-2,-9.035218125E-3,-1.350350136E-1,1.367930514E-1
4.661042208E0,7.094175504E-2,3.379716229E-2,-1.199848652E-2,7.949178866E-2
4.671020208E0,-8.325354268E-2,-4.522845975E-2,3.740463853E-2,1.018620289E-1
4.680998208E0,3.768807317E-2,6.125926841E-2,-1.495577431E-1,1.659536301E-1
4.690975208E0,-8.057742739E-2,1.018621512E-3,1.489127952E-1,1.693185754E-1
4.700953208E0,-6.542486139E-3,1.973504718E-2,-1.592851710E-1,1.606363655E-1
4.710931208E0,-7.780743688E-2,4.690156742E-2,-2.382915795E-2,9.392328268E-2
4.720908208E0,-4.431996232E-2,-9.363904735E-3,9.952955067E-2,1.093529754E-1
4.730886208E0,1.823211976E-2,7.050399045E-2,-2.622540540E-1,2.721771696E-1
4.740864208E0,3.543924774E-2,-6.774717445E-2,2.688894743E-1,2.795481520E-1
4.750842208E0,2.090072251E-1,2.074783975E-2,-3.129014665E-1,3.768578256E-1
4.760819208E0,-8.991227877E-2,-1.224771495E-2,2.230589980E-1,2.408101762E-1
4.770797208E0,2.116173674E-1,1.068800672E-1,-3.543588102E-1,4.263512933E-1
4.780775208E0,1.912293050E-2,9.442224534E-2,-3.065081209E-1,3.212918845E-1
4.790752208E0,9.419835180E-2,2.604915570E-1,-8.786915016E-1,9.213185854E-1
4.800730208E0,-2.124735642E-2,3.374959519E-1,-8.722502089E-1,9.355080943E-1
4.810708208E0,9.708277415E-2,3.727180441E-1,-7.149700481E-1,8.121120459E-1
4.820686208E0,-2.875608581E-2,3.229007900E-1,-3.158051938E-1,4.525756877E-1
4.830663208E0,-3.577946341E-1,-5.292370436E-1,3.756087613E0,3.810026641E0
4.840641208E0,2.917695560E-1,-7.306309381E-1,-5.403762817E-2,7.885880463E-1
4.850619208E0,-3.426261893E-2,3.551985434E-1,-1.473755622E-1,3.860822304E-1
4.860596208E0,2.433001948E-1,1.325005014E-1,7.950944442E-1,8.419777567E-1
4.870574208E0,2.614427345E-1,-1.528992075E-2,4.444456923E-1,5.158663184E-1
4.880552208E0,9.534897421E-2,2.582902995E-1,9.258071959E-1,9.658800493E-1
4.890530208E0,1.232531298E-1,8.869376837E-1,1.204381413E0,1.500794582E0
4.900507208E0,-4.834163614E-2,1.344831387E0,4.776578772E-1,1.427958480E0
4.910485208E0,2.296856475E-1,1.441922503E0,-5.150286019E-2,1.461009427E0
4.920463208E0,5.724991304E-1,5.223923660E-1,-2.046056532E0,2.187920558E0
4.930440208E0,-1.145567560E0,-1.827098917E0,-1.964219486E0,2.916980233E0
4.940418208E0,-1.172867041E0,-2.349657709E0,-1.441911685E-1,2.630075957E0
4.950396208E0,7.165078658E-1,-1.425916919E0,6.900170553E-1,1.738604647E0
4.960374208E0,4.339815883E-1,-1.183753168E0,8.815724248E-1,1.538434763E0
4.970351208E0,8.426994042E-1,-9.109663779E-1,2.119832021E0,2.456357023E0
4.980329208E0,1.681715940E0,-9.249513097E-1,4.259268002E0,4.671730658E0
4.990307208E0,2.768240582E0,-1.055015094E0,5.892640332E0,6.595409225E0
5.000284208E0,3.132361611E0,-1.438272817E0,7.155872217E0,7.942721520E0
5.010262208E0,2.772696453E0,-2.279753077E0,7.850846542E0,8.632549515E0
5.020240208E0,1.420482663E0,-3.031845050E0,7.701642555E0,8.397925545E0
5.030218208E0,-4.433505088E-3,-3.133846804E0,6.765553615E0,7.456120383E0
5.040195208E0,-1.342380381E0,-2.585355464E0,5.620486357E0,6.330554072E0
5.050173208E0,-1.998158772E0,-1.973435575E0,5.243606411E0,5.948318640E0
5.060151208E0,-9.464057672E-1,-1.589760872E0,6.811754220E0,7.058542276E0
5.070128208E0,1.818581716E0,-1.466327319E0,1.009000679E1,1.035691036E1
5.080106208E0,5.098031791E0,-1.293171091E0,1.303786301E1,1.405873720E1
5.090084208E0,7.912955081E0,-2.034695392E0,1.439652321E1,1.655339011E1
5.100062208E0,7.778721136E0,-4.187377947E0,1.315772509E1,1.584829221E1
5.110039208E0,4.261777627E0,-5.301188622E0,9.446495560E0,1.164051664E1
5.120017208E0,6.129066065E-1,-4.383744698E0,6.295640375E0,7.695970362E0
5.129995208E0,-5.539684269E-1,-3.620561433E0,5.204649922E0,6.364253838E0
5.139972208E0,1.548566068E0,-3.722222294E0,6.094921834E0,7.307603426E0
5.149950208E0,4.376559055E0,-4.100405585E0,7.096742833E0,9.291466728E0
5.159928208E0,6.393363136E0,-4.198944032E0,7.111385431E0,1.044404260E1
5.169906208E0,7.065411113E0,-4.118732513E0,6.296735559E0,1.032147617E1
5.179883208E0,6.663137294E0,-4.550531262E0,4.756262037E0,9.366256559E0
5.189861208E0,5.988561566E0,-5.733779084E0,3.064998178E0,8.839304613E0
5.199839208E0,5.500082831E0,-6.549163951E0,1.588767430E0,8.698657457E0
5.209816208E0,4.786340114E0,-6.533025051E0,4.073272750E-1,8.108969325E0
5.219794208E0,4.427673660E0,-6.428575653E0,-1.323835936E-1,7.806945906E0
5.229772208E0,5.126772611E0,-6.521441132E0,-1.115482101E-1,8.296109621E0
5.239749208E0,6.024156491E0,-6.691651826E0,-1.607250479E-1,9.005248366E0
5.249727208E0,6.041788185E0,-6.593958886E0,-4.837211475E-1,8.956421406E0
5.259705208E0,5.277767599E0,-6.703262057E0,-6.551543476E-1,8.556738880E0
5.269683208E0,4.253452361E0,-7.265185329E0,-6.723948629E-1,8.445524833E0
5.279660208E0,3.850876241E0,-7.380582469E0,-6.432597953E-1,8.349612480E0
5.289638208E0,2.822357440E0,-7.514318231E0,-1.056100118E0,8.096050114E0
5.299616208E0,1.680547666E0,-7.645337377E0,-1.875324851E0,8.049364407E0
5.309593208E0,1.209398909E0,-7.322441849E0,-2.702951449E0,7.898528147E0
5.319571208E0,1.268487947E0,-6.738353537E0,-3.545010145E0,7.718909702E0
5.329548875E0,5.328415596E-1,-6.215556909E0,-4.341876880E0,7.600589626E0
5.339526875E0,-1.519182640E0,-6.377667455E0,-4.741283809E0,8.090879447E0
5.349503875E0,-2.445134262E0,-6.337946734E0,-5.250285101E0,8.585670854E0
5.359481875E0,-2.758859602E0,-5.766047528E0,-5.793396710E0,8.626821885E0
5.369459875E0,-3.336884351E0,-5.196354477E0,-6.141350480E0,8.709367528E0
5.379436875E0,-4.372356076E0,-4.772109160E0,-6.297774024E0,9.030641237E0
5.389414875E0,-6.058278503E0,-4.713603675E0,-6.032869427E0,9.763007300E0
5.399392875E0,-7.891057844E0,-4.902554402E0,-5.546772848E0,1.081991324E1
5.409370875E0,-9.611648412E0,-5.279067435E0,-5.115861121E0,1.210059392E1
5.419347875E0,-1.131789284E1,-5.582064303E0,-5.145665549E0,1.362835332E1
5.429325875E0,-1.280344229E1,-5.860014038E0,-5.760336553E0,1.521346036E1
5.439303875E0,-1.395537886E1,-6.005946507E0,-7.061872963E0,1.675392618E1
5.449280875E0,-1.474167968E1,-5.938418183E0,-8.397500979E0,1.797498130E1
5.459258875E0,-1.509382707E1,-5.717851853E0,-9.311403828E0,1.863383178E1
5.469236875E0,-1.523205057E1,-5.871244200E0,-9.249207580E0,1.876258814E1
5.479214875E0,-1.503950760E1,-6.084013853E0,-9.290021145E0,1.869509311E1
5.489191875E0,-1.461301053E1,-6.642459201E0,-8.530370768E0,1.817772170E1
5.499169875E0,-1.489802487E1,-7.658404149E0,-6.857059032E0,1.810031927E1
5.509147875E0,-1.516179276E1,-8.480181193E0,-5.128298149E0,1.811333417E1
5.519124875E0,-1.502403938E1,-9.379362507E0,-3.388264127E0,1.803259643E1
5.529102875E0,-1.471060757E1,-1.041867410E1,-1.421342350E0,1.808233832E1
5.539080875E0,-1.403828536E1,-1.138482825E1,4.711049026E-1,1.808064462E1
5.549058875E0,-1.292728866E1,-1.299395393E1,2.349918787E0,1.847917068E1
5.559035875E0,-1.135505423E1,-1.493865132E1,4.727929938E0,1.935081087E1
5.569013875E0,-9.649657068E0,-1.638675872E1,7.512639495E0,2.044704123E1
5.578991875E0,-8.135829307E0,-1.691843200E1,9.357320259E0,2.097580755E1
5.588968875E0,-6.939689544E0,-1.633500735E1,9.346956654E0,2.005884729E1
5.598946875E0,-6.118100781E0,-1.601573417E1,8.500835313E0,1.913632930E1
5.608924875E0,-5.196255659E0,-1.616570824E1,7.869252992E0,1.871513661E1
5.618902875E0,-4.177045040E0,-1.645874964E1,7.206280478E0,1.844637154E1
5.628879875E0,-2.840215421E0,-1.673632866E1,6.417151363E0,1.814803990E1
5.638857875E0,-1.039015138E0,-1.700705240E1,5.515134734E0,1.790910648E1
5.648835875E0,1.438336990E0,-1.735789704E1,4.858899382E0,1.808243087E1
5.658812875E0,5.462501022E0,-1.737230224E1,4.803119576E0,1.883363375E1
5.668790875E0,1.028338590E1,-1.697393260E1,4.829281189E0,2.042509169E1
5.678768875E0,1.387083514E1,-1.627943775E1,4.259108373E0,2.180734200E1
5.688746875E0,1.529666932E1,-1.496485152E1,2.595268833E0,2.155621242E1
5.698723875E0,1.538401269E1,-1.366835775E1,6.900383976E-1,2.059048331E1
5.708701875E0,1.669936256E1,-1.249206636E1,8.570044711E-2,2.085492212E1
5.718679875E0,1.938964777E1,-1.125725370E1,3.459600158E-1,2.242328901E1
5.728656875E0,2.150736193E1,-9.871698650E0,5.305124675E-1,2.367062515E1
5.738634875E0,2.194318766E1,-8.721113375E0,4.241111228E-1,2.361654448E1
5.748612875E0,2.053705158E1,-7.937163724E0,2.163969728E-1,2.201853499E1
5.758590875E0,1.793928335E1,-7.309052310E0,-1.291989076E-1,1.937154679E1
5.768567875E0,1.514104217E1,-6.497040117E0,-3.088370669E-1,1.647901904E1
5.778545875E0,1.236372232E1,-5.629006335E0,-2.052029170E-1,1.358637001E1
5.788523875E0,1.000442928E1,-4.685473890E0,-4.329737476E-1,1.105575583E1
5.798500875E0,8.372217618E0,-3.506398641E0,-1.006077041E0,9.132417549E0
5.808478875E0,7.191251380E0,-2.598007962E0,-1.444659000E0,7.781438260E0
5.818456875E0,6.161445606E0,-1.976486945E0,-1.754580871E0,6.704361762E0
5.828434875E0,5.193036182E0,-1.335312851E0,-1.773974185E0,5.647802193E0
5.838411875E0,4.479764750E0,-6.303555751E-1,-1.274525636E0,4.700005953E0
5.848389875E0,3.994262248E0,-1.518521905E-3,-4.047945535E-1,4.014721889E0
5.858367875E0,3.639724513E0,4.031432998E-1,6.867874919E-1,3.725828245E0
5.868344875E0,3.778521041E0,7.065868950E-1,1.738228694E0,4.218758738E0
5.878322875E0,4.408814051E0,6.836231250E-1,2.586365570E0,5.156963135E0
5.888300875E0,4.769960309E0,2.059354270E-1,3.020418714E0,5.649589362E0
5.898278875E0,5.312367328E0,-1.044350138E0,3.060045587E0,6.218986480E0
5.908255875E0,5.386492481E0,-1.774746310E0,2.983040096E0,6.408007017E0
5.918233875E0,5.212958230E0,-1.800157725E0,3.003617909E0,6.279906201E0
5.928211875E0,4.784812236E0,-1.280551922E0,3.159564905E0,5.875124829E0
5.938188875E0,4.551619429E0,-5.981637293E-1,3.777068592E0,5.944853777E0
5.948166875E0,4.215323545E0,-7.736316544E-1,4.567997188E0,6.263709511E0
5.958144875E0,3.724846525E0,-1.446331011E0,4.761866593E0,6.216247137E0
5.968121875E0,3.611898199E0,-1.827182971E0,4.239423429E0,5.861494453E0
5.978099875E0,3.448681068E0,-2.116775681E0,3.479855790E0,5.336996975E0
5.988077875E0,3.100420903E0,-2.497310722E0,2.984127970E0,4.975358315E0
5.998055875E0,2.908605040E0,-3.124100665E0,2.877249931E0,5.147674758E0
6.008032875E0,2.617940827E0,-3.516914274E0,3.074771507E0,5.355046219E0
6.018010875E0,2.064749788E0,-3.668793361E0,3.305585375E0,5.352581721E0
6.027988875E0,1.501257708E0,-4.083543969E0,3.327847479E0,5.477561035E0
6.037965875E0,9.919346733E-1,-4.563676972E0,2.886809252E0,5.490423441E0
6.047943875E0,5.557253690E-1,-4.607761470E0,2.345514665E0,5.200166872E0
6.057921875E0,1.735702112E-2,-4.553339680E0,2.229577827E0,5.069933017E0
6.067899875E0,-6.143502840E-1,-4.395098237E0,2.256458062E0,4.978545748E0
6.077876875E0,-1.175966869E0,-3.959707543E0,2.004872838E0,4.591480915E0
6.087854875E0,-1.320859996E0,-3.426458432E0,1.553342659E0,3.987249921E0
6.097832875E0,-7.546194327E-1,-3.259521595E0,1.153951517E0,3.539143345E0
6.107809875E0,3.581925371E-1,-3.659422613E0,1.159826800E0,3.855499185E0
6.117787875E0,8.967228529E-1,-4.228231566E0,1.141791648E0,4.470541602E0
6.127765875E0,3.265886289E-1,-4.275851290E0,4.873701024E-1,4.315911724E0
6.137743875E0,-7.968065089E-1,-3.822069349E0,-3.556340879E-1,3.920406908E0
6.147720875E0,-1.860175300E0,-3.624341658E0,-9.025639290E-1,4.172616236E0
6.157698875E0,-2.744034571E0,-3.677884027E0,-9.292050129E-1,4.681877679E0
6.167676875E0,-3.349821900E0,-3.610893647E0,-6.568534023E-1,4.969035730E0
6.177653875E0,-3.462514118E0,-3.310089485E0,-2.673914176E-1,4.797623848E0
6.187631875E0,-3.426934395E0,-3.024322023E0,-5.802192092E-2,4.570970312E0
6.197609875E0,-3.542338552E0,-2.937986714E0,-3.201713097E-1,4.613289284E0
6.207587875E0,-4.214378927E0,-2.913204753E0,-1.120907732E0,5.244443328E0
6.217564875E0,-5.113314659E0,-2.679064988E0,-2.101045502E0,6.143107375E0
6.227542875E0,-5.871254141E0,-2.474438461E0,-2.780023014E0,6.951474580E0
6.237520875E0,-6.688965030E0,-2.479696277E0,-3.126621400E0,7.788896467E0
6.247497875E0,-7.101177362E0,-2.412190465E0,-3.110491270E0,8.119146427E0
6.257475875E0,-7.165079827E0,-2.250458234E0,-2.813179066E0,8.019782269E0
6.267453875E0,-6.953281982E0,-2.270525001E0,-2.362082165E0,7.686536688E0
6.277431875E0,-7.014380123E0,-2.515849904E0,-2.210635772E0,7.772897771E0
6.287408875E0,-7.676874919E0,-2.763965683E0,-2.616169413E0,8.568445437E0
6.297386875E0,-8.666648315E0,-2.897466679E0,-3.432188703E0,9.761456114E0
6.307364875E0,-9.772818140E0,-2.923427440E0,-4.344515144E0,1.108734478E1
6.317341875E0,-1.104348418E1,-3.396305510E0,-5.025713428E0,1.259965195E1
6.327320000E0,-1.193939222E1,-3.772381172E0,-5.528165839E0,1.368724091E1
6.337298000E0,-1.229169515E1,-3.892317505E0,-5.891177943E0,1.417539709E1
6.347276000E0,-1.220122820E1,-4.045000877E0,-6.084574016E0,1.422160478E1
6.357253000E0,-1.176655554E1,-4.395311660E0,-6.038735354E0,1.393689056E1
6.367231000E0,-1.139410194E1,-4.771227985E0,-5.742647556E0,1.362234108E1
6.377209000E0,-1.133192732E1,-5.158110178E0,-5.220514587E0,1.350083146E1
6.387186000E0,-1.142946122E1,-5.503565433E0,-4.519892437E0,1.346667160E1
6.397164000E0,-1.134708798E1,-5.832711634E0,-3.595804907E0,1.325544204E1
6.407142000E0,-1.104554590E1,-6.206126520E0,-2.436650537E0,1.290183539E1
6.417120000E0,-1.062400609E1,-6.566863473E0,-1.171053454E0,1.254450348E1
6.427097000E0,-9.959675857E0,-7.042427462E0,1.049282849E-1,1.219843997E1
6.437075000E0,-9.072688326E0,-7.646975182E0,1.323210284E0,1.193904470E1
6.447053000E0,-8.238271356E0,-8.208541773E0,2.240822023E0,1.184358714E1
6.457030000E0,-7.435094306E0,-8.655467269E0,2.753930984E0,1.173805252E1
6.467008000E0,-6.641728299E0,-9.096743771E0,3.063438434E0,1.167253002E1
6.476986000E0,-6.186133136E0,-9.537361876E0,3.607826782E0,1.192668977E1
6.486964000E0,-6.195369397E0,-9.971136400E0,4.619219674E0,1.261520327E1
6.496941000E0,-6.359780238E0,-1.043677708E1,5.582741411E0,1.343652195E1
6.506919000E0,-6.142188386E0,-1.094870783E1,6.172222025E0,1.398917460E1
6.516897000E0,-5.446750377E0,-1.136991785E1,6.368619474E0,1.412449771E1
6.526874000E0,-4.604925570E0,-1.172349314E1,6.404402679E0,1.413018063E1
6.536852000E0,-3.943824751E0,-1.207880738E1,6.370726810E0,1.421398964E1
6.546830000E0,-3.598797804E0,-1.260413176E1,6.027466600E0,1.442726019E1
6.556808000E0,-3.426889372E0,-1.306516717E1,5.314510918E0,1.451503325E1
6.566785000E0,-3.394701912E0,-1.345782992E1,4.623405111E0,1.462918529E1
6.576763000E0,-3.311714426E0,-1.382380013E1,4.285608539E0,1.484693043E1
6.586741000E0,-2.339923557E0,-1.397778773E1,4.925932447E0,1.500395290E1
6.596718000E0,2.603671575E-1,-1.418350213E1,6.458699339E0,1.558699204E1
6.606696000E0,4.360906059E0,-1.401684713E1,8.499713232E0,1.696274241E1
6.616674000E0,9.132426404E0,-1.343286114E1,1.046110851E1,1.932039756E1
6.626652000E0,1.367176668E1,-1.282157334E1,1.120092864E1,2.183508071E1
6.636629000E0,1.662322596E1,-1.219229248E1,9.820320336E0,2.283467383E1
6.646607000E0,1.776795291E1,-1.133830079E1,6.969008068E0,2.219964615E1
6.656585000E0,1.830503955E1,-9.971993601E0,3.863977513E0,2.120012858E1
6.666562000E0,1.889223215E1,-8.422965018E0,1.117203521E0,2.071499262E1
6.676540000E0,1.919650254E1,-7.329863135E0,-1.044763536E0,2.057484227E1
6.686518000E0,1.875289300E1,-6.479440582E0,-2.648700982E0,2.001673707E1
6.696496000E0,1.757889840E1,-5.735999272E0,-3.513302448E0,1.882186629E1
6.706473000E0,1.576915943E1,-5.193346669E0,-3.701420825E0,1.700993106E1
6.716451000E0,1.356445624E1,-4.724166085E0,-3.533102875E0,1.479172181E1
6.726429000E0,1.136988394E1,-4.274025205E0,-3.402216461E0,1.261414401E1
6.736406000E0,9.488804843E0,-3.896414357E0,-3.429247554E0,1.081569235E1
6.746384000E0,8.015687152E0,-3.486391223E0,-3.660963939E0,9.476751619E0
6.756362000E0,6.903973582E0,-2.984759762E0,-3.898724007E0,8.471935489E0
6.766340000E0,6.004985810E0,-2.522395277E0,-4.008570385E0,7.647938875E0
6.776317000E0,5.271176033E0,-2.135799598E0,-3.870158020E0,6.879321172E0
6.786295000E0,4.724655497E0,-1.769807167E0,-3.524860055E0,6.154610092E0
6.796273000E0,4.268528822E0,-1.438913818E0,-3.065665346E0,5.448771907E0
6.806250000E0,3.892938772E0,-1.215913292E0,-2.444054866E0,4.754663143E0
6.816228000E0,3.706182797E0,-1.049546558E0,-1.634155272E0,4.184232589E0
6.826206000E0,3.559361551E0,-1.001770713E0,-6.716591370E-1,3.758154495E0
6.836183000E0,3.492844210E0,-1.017365237E0,3.976556879E-1,3.659661562E0
6.846161000E0,3.452613612E0,-1.062500480E0,1.410214514E0,3.877905750E0
6.856139000E0,3.377487416E0,-1.160167108E0,2.196915573E0,4.192832813E0
6.866117000E0,3.212414379E0,-1.273453987E0,2.576529969E0,4.310428967E0
6.876094000E0,3.096286922E0,-1.295766377E0,2.525597797E0,4.200553230E0
6.886072000E0,3.032367499E0,-1.382904509E0,2.291615031E0,4.044647943E0
6.896050000E0,2.927974819E0,-1.566900013E0,1.909759981E0,3.830847867E0
6.906027000E0,2.819706020E0,-1.725899840E0,1.499435716E0,3.630121178E0
6.916005000E0,2.757596603E0,-1.806626499E0,1.223315867E0,3.516353231E0
6.925983000E0,2.671386133E0,-1.878516846E0,1.210653722E0,3.482931502E0
6.935961000E0,2.564662168E0,-1.972390385E0,1.385098676E0,3.519419584E0
6.945938000E0,2.345376232E0,-2.089689040E0,1.675246580E0,3.560061945E0
6.955916000E0,2.057464596E0,-2.257909926E0,1.957744572E0,3.628233951E0
6.965894000E0,1.677621427E0,-2.450880321E0,2.190078716E0,3.690213108E0
6.975871000E0,1.216757045E0,-2.623840960E0,2.337680565E0,3.718842497E0
6.985849000E0,7.971678668E-1,-2.741585172E0,2.341626851E0,3.692557674E0
6.995827000E0,5.382376626E-1,-2.780189660E0,2.194274093E0,3.582456297E0
7.005805000E0,5.322646953E-1,-2.683791878E0,1.966899850E0,3.369679446E0
7.015782000E0,1.042271453E0,-2.544390748E0,1.839109536E0,3.307956763E0
7.025760000E0,1.740134156E0,-2.506190304E0,1.738567833E0,3.511648449E0
7.035738000E0,2.088115261E0,-2.735354379E0,1.701497947E0,3.838943109E0
7.045715000E0,1.989429026E0,-3.106468971E0,1.715012032E0,4.068076153E0
7.055693000E0,1.733310747E0,-3.084310362E0,1.544956582E0,3.860599357E0
7.065671000E0,1.281584833E0,-2.949480001E0,1.415496889E0,3.513619701E0
7.075649000E0,6.027235343E-1,-2.992759922E0,1.398207549E0,3.357807612E0
7.085626000E0,-1.230770190E-1,-3.187425426E0,1.717274027E0,3.622686694E0
7.095604000E0,-6.266541414E-1,-3.307669907E0,2.142630900E0,3.990519114E0
7.105582000E0,-8.484268981E-1,-3.210016728E0,2.282938932E0,4.029372875E0
7.115559000E0,-1.007983965E0,-2.941157075E0,2.057992161E0,3.728507522E0
7.125537000E0,-1.321238018E0,-2.700907847E0,1.553263137E0,3.384257595E0
7.135515000E0,-1.830029980E0,-2.681809087E0,9.341523421E-1,3.378424234E0
7.145493000E0,-2.305580813E0,-2.492523606E0,3.651027766E-1,3.414919743E0
7.155470000E0,-2.694806570E0,-2.096241429E0,-1.245877934E-1,3.416391766E0
7.165448000E0,-3.111778535E0,-1.743517501E0,-5.059116232E-1,3.602633134E0
7.175426000E0,-3.755565457E0,-1.584011305E0,-7.445768398E-1,4.143399375E0
7.185403000E0,-4.363698689E0,-1.480063013E0,-8.555809665E-1,4.686626885E0
7.195381000E0,-4.849342693E0,-1.192926133E0,-1.033386024E0,5.099714108E0
7.205359000E0,-5.145961418E0,-9.454386377E-1,-1.244205337E0,5.377994055E0
7.215337000E0,-5.125292680E0,-7.296699482E-1,-1.483725709E0,5.385395554E0
7.225314000E0,-4.966355419E0,-6.709791058E-1,-1.515093390E0,5.235494923E0
7.235292000E0,-4.817315154E0,-7.287794173E-1,-1.273899545E0,5.035917472E0
7.245270000E0,-4.642022061E0,-6.860573208E-1,-1.020624475E0,4.802157617E0
7.255247000E0,-4.603925697E0,-5.997085637E-1,-9.126170468E-1,4.731664829E0
7.265225000E0,-4.795151283E0,-5.478583789E-1,-9.846085507E-1,4.925756656E0
7.275203000E0,-5.055910204E0,-5.669857907E-1,-1.201181817E0,5.227479186E0
7.285180000E0,-5.278051774E0,-5.109384745E-1,-1.500587910E0,5.510957515E0
7.295158000E0,-5.401894047E0,-4.015972960E-1,-1.673670171E0,5.669471891E0
7.305136000E0,-5.489936158E0,-4.110095590E-1,-1.681354582E0,5.756325313E0
7.315114000E0,-5.657206287E0,-4.516319203E-1,-1.606539457E0,5.898213576E0
7.325091000E0,-5.938524018E0,-4.079654986E-1,-1.545900030E0,6.149984574E0
7.335068833E0,-6.336407747E0,-4.203528249E-1,-1.571016453E0,6.541777460E0
7.345046833E0,-6.943778502E0,-5.851244384E-1,-1.746559222E0,7.183933436E0
7.355023833E0,-7.765754351E0,-7.320953733E-1,-2.018231387E0,8.057056671E0
7.365001833E0,-8.533030667E0,-9.100173748E-1,-2.270862970E0,8.876799120E0
7.374979833E0,-9.121285120E0,-1.098995876E0,-2.467320353E0,9.512796849E0
7.384957833E0,-9.433579060E0,-1.322400445E0,-2.491024380E0,9.846134231E0
7.394934833E0,-9.413264664E0,-1.651292877E0,-2.276016414E0,9.824284733E0
7.404912833E0,-9.200074596E0,-1.906274164E0,-2.092752981E0,9.625739909E0
7.414890833E0,-8.984348007E0,-2.216642032E0,-2.094688994E0,9.487872943E0
7.424867833E0,-8.702263706E0,-2.577492421E0,-2.182944528E0,9.334779461E0
7.434845833E0,-8.431558086E0,-2.906404148E0,-2.287279905E0,9.207062843E0
7.444823833E0,-8.104175990E0,-3.230455086E0,-2.244164583E0,9.008317447E0
7.454801833E0,-7.682676526E0,-3.565216368E0,-1.978583171E0,8.697647827E0
7.464778833E0,-7.363974037E0,-3.885030413E0,-1.520714026E0,8.463695769E0
7.474756833E0,-7.117561845E0,-4.205046771E0,-8.144873196E-1,8.306954590E0
7.484734833E0,-6.943104318E0,-4.515880077E0,5.374585211E-2,8.282678254E0
7.494711833E0,-6.821809677E0,-4.817792287E0,9.643768921E-1,8.407034708E0
7.504689833E0,-6.628401909E0,-5.159204192E0,1.819755545E0,8.594452281E0
7.514667833E0,-6.309307657E0,-5.544206505E0,2.555315101E0,8.779249635E0
7.524645833E0,-5.936950532E0,-5.976418653E0,3.196536265E0,9.010150145E0
7.534622833E0,-5.623241565E0,-6.457517617E0,3.630126601E0,9.300440775E0
7.544600833E0,-5.251509508E0,-6.894054950E0,3.757671916E0,9.445975015E0
7.554578833E0,-4.685113994E0,-7.329553818E0,3.708443038E0,9.456489944E0
7.564555833E0,-4.077941751E0,-7.806428168E0,3.544553185E0,9.493881553E0
7.574533833E0,-3.491011985E0,-8.146760677E0,3.411750346E0,9.497205622E0
7.584511833E0,-3.028027696E0,-8.305088074E0,3.484109055E0,9.501708033E0
7.594489833E0,-2.617514273E0,-8.476560597E0,3.835599221E0,9.665158142E0
7.604466833E0,-2.375883056E0,-8.587593375E0,4.364258560E0,9.921609398E0
7.614444833E0,-2.161685806E0,-8.637511055E0,4.977781463E0,1.020087207E1
7.624422833E0,-1.681574729E0,-8.633916187E0,5.578289341E0,1.041582998E1
7.634399833E0,-7.389395392E-1,-8.400569013E0,5.900739895E0,1.029244007E1
7.644377833E0,5.211377728E-1,-8.124067048E0,5.767364906E0,9.976700253E0
7.654355833E0,1.971306019E0,-7.675221326E0,5.260638181E0,9.511539513E0
7.664333833E0,3.490029068E0,-7.218708150E0,4.498926953E0,9.194041222E0
7.674310833E0,4.826120184E0,-6.889459038E0,3.645370877E0,9.167595688E0
7.684288833E0,5.958663583E0,-6.289721823E0,2.872091810E0,9.127715140E0
7.694266833E0,6.951917827E0,-5.455357479E0,2.505603243E0,9.185212807E0
7.704243833E0,7.781455879E0,-4.712057671E0,2.615038562E0,9.465356294E0
7.714221833E0,8.786321524E0,-4.125587788E0,2.996288717E0,1.015862523E1
7.724199833E0,1.004082702E1,-3.592449190E0,3.245976520E0,1.114720871E1
7.734177833E0,1.127460122E1,-3.021631134E0,3.171575378E0,1.209569253E1
7.744154833E0,1.214631816E1,-2.604895982E0,2.890782727E0,1.275441699E1
7.754132833E0,1.261305929E1,-2.236077592E0,2.433743155E0,1.303888083E1
7.764110833E0,1.263512317E1,-1.822556654E0,1.961760586E0,1.291574833E1
7.774087833E0,1.238906766E1,-1.375311899E0,1.682644916E0,1.257822620E1
7.784065833E0,1.198346151E1,-9.877321333E-1,1.644001983E0,1.213596750E1
7.794043833E0,1.136790407E1,-7.267317224E-1,1.722676124E0,1.152063345E1
7.804021833E0,1.063381421E1,-6.493964481E-1,1.706250272E0,1.078939342E1
7.813998833E0,9.972278945E0,-5.329450554E-1,1.476370351E0,1.009505063E1
7.823976833E0,9.429295975E0,-4.264415306E-1,1.185782590E0,9.513125423E0
7.833954833E0,8.985489968E0,-3.513094872E-1,1.074835181E0,9.056363453E0
7.843931833E0,8.611286293E0,-2.215825760E-1,1.133755088E0,8.688426270E0
7.853909833E0,8.148862166E0,-1.238159609E-1,1.393838071E0,8.268135798E0
7.863887833E0,7.567572917E0,-1.017620176E-1,1.812569171E0,7.782282593E0
7.873865833E0,6.886872815E0,-1.766262585E-1,2.246531829E0,7.246179632E0
7.883842833E0,6.232396891E0,-3.066086930E-1,2.531126339E0,6.733749360E0
7.893820833E0,5.565234262E0,-4.784788263E-1,2.642247703E0,6.179178530E0
7.903798833E0,4.964386661E0,-6.931067240E-1,2.551452138E0,5.624539080E0
7.913775833E0,4.429217910E0,-7.666325372E-1,2.225841164E0,5.015981023E0
7.923753833E0,3.914674042E0,-7.906967533E-1,1.769685837E0,4.368256194E0
7.933731833E0,3.506576396E0,-8.011363721E-1,1.356243837E0,3.844124719E0
7.943709833E0,3.137249299E0,-8.939837247E-1,1.130462375E0,3.452460752E0
7.953686833E0,2.795281323E0,-1.060865598E0,1.067341682E0,3.174626239E0
7.963664833E0,2.497518006E0,-1.309161764E0,1.199626165E0,3.064409184E0
7.973642833E0,2.273222029E0,-1.556596050E0,1.582816426E0,3.177394765E0
7.983619833E0,2.080926695E0,-1.713410187E0,2.074393601E0,3.401343733E0
7.993597833E0,1.994579107E0,-1.805897352E0,2.598867795E0,3.740818743E0
8.003575833E0,1.853250443E0,-1.907867530E0,2.971395366E0,3.987942594E0
8.013553833E0,1.694687403E0,-2.179751363E0,3.044205187E0,4.109801287E0
8.023530833E0,1.318280789E0,-2.655393705E0,2.748042545E0,4.042365372E0
8.033508833E0,6.486990215E-1,-3.423550027E0,2.157669353E0,4.098419482E0
8.043486833E0,8.152170521E-1,-3.561679972E0,1.439274884E0,3.927041540E0
8.053463833E0,1.388398845E0,-3.216483749E0,1.161181599E0,3.690767097E0
8.063441833E0,1.790204740E0,-2.770201446E0,8.422469759E-1,3.404148797E0
8.073419833E0,1.601323595E0,-2.939847298E0,8.822571337E-1,3.461981664E0
8.083397833E0,1.375429136E0,-3.419869789E0,1.234722031E0,3.887396710E0
8.093374833E0,1.240976797E0,-3.596749232E0,1.677636630E0,4.158256018E0
8.103352833E0,1.027771527E0,-3.524885198E0,2.021920687E0,4.191574076E0
8.113330833E0,7.292064102E-1,-3.378589616E0,2.280142209E0,4.140731611E0
8.123307833E0,3.911709065E-1,-3.388125256E0,2.288183300E0,4.107090240E0
8.133285833E0,-5.252524585E-2,-3.619094952E0,2.026326272E0,4.148084538E0
8.143263833E0,-7.003701353E-1,-3.766790357E0,1.417705967E0,4.085231710E0
8.153240833E0,-1.456972797E0,-3.645655929E0,5.705332965E-1,3.967251583E0
8.163218833E0,-2.030145819E0,-3.418591003E0,-1.768490374E-1,3.979890963E0
8.173196833E0,-2.149230944E0,-3.074901023E0,-9.596643287E-1,3.872359174E0
8.183174833E0,-1.953486045E0,-2.634235556E0,-2.077854567E0,3.882368387E0
8.193151833E0,-2.308339237E0,-2.409645756E0,-2.326489287E0,4.067846495E0
8.203129833E0,-2.293056369E0,-2.321760936E0,-1.976972848E0,3.815377176E0
8.213107833E0,-1.938173649E0,-2.189898621E0,-1.176650116E0,3.152249762E0
8.223085833E0,-1.475808872E0,-2.065885025E0,-9.684100091E-2,2.540722523E0
8.233062833E0,-1.179694761E0,-2.141698853E0,7.709425199E-1,2.563767945E0
8.243040833E0,-1.248203956E0,-2.175567681E0,1.090434091E0,2.734987085E0
8.253018833E0,-1.728756205E0,-2.008080620E0,1.104150782E0,2.870563488E0
8.262995833E0,-2.395763882E0,-1.752828607E0,1.004172750E0,3.133760618E0
8.272973833E0,-2.928970308E0,-1.443485756E0,9.616994521E-1,3.404024681E0
8.282951833E0,-3.180097695E0,-1.092074527E0,9.940275380E-1,3.506242842E0
8.292928833E0,-3.057503217E0,-8.001686579E-1,1.115367788E0,3.351513256E0
8.302906833E0,-2.709396250E0,-6.563569736E-1,1.312152322E0,3.081132297E0
8.312884833E0,-2.354304784E0,-6.860742778E-1,1.387310678E0,2.817459822E0
8.322862833E0,-2.555779370E0,-6.446058244E-1,9.675434518E-1,2.807786528E0
8.332840875E0,-3.220152292E0,-3.901250589E-1,2.112426522E-1,3.250569458E0
8.342818875E0,-4.264357418E0,-1.052282470E-1,-4.463703033E-1,4.288946680E0
8.352796875E0,-5.356630166E0,1.968552858E-1,-8.895790172E-1,5.433561407E0
8.362773875E0,-6.043844066E0,3.994998997E-1,-1.027489399E0,6.143564579E0
8.372751875E0,-6.474603181E0,3.259530365E-1,-8.094844419E-1,6.533146010E0
8.382729875E0,-6.945372453E0,6.628169775E-2,-5.748146278E-1,6.969433523E0
8.392707875E0,-7.610669820E0,-1.044219160E-1,-5.138158894E-1,7.628709315E0
8.402684875E0,-8.412522476E0,-2.546444875E-1,-5.199803165E-1,8.432423006E0
8.412662875E0,-9.465099646E0,-3.822055900E-1,-3.740823457E-1,9.480196729E0
8.422640875E0,-1.062685369E1,-3.942262959E-1,-7.860470474E-2,1.063445402E1
8.432617875E0,-1.149870161E1,-5.206243873E-1,3.134341478E-1,1.151474834E1
8.442595875E0,-1.208935810E1,-7.479220319E-1,6.735431099E-1,1.213118407E1
8.452573875E0,-1.239750285E1,-1.061162637E0,9.483967441E-1,1.247892622E1
8.462551875E0,-1.239104519E1,-1.458874458E0,1.243416548E0,1.253843691E1
8.472528875E0,-1.230140737E1,-1.835839189E0,1.366031491E0,1.251243265E1
8.482506875E0,-1.211482038E1,-2.234578950E0,1.298352309E0,1.238741033E1
8.492484875E0,-1.175083004E1,-2.741396892E0,1.133395631E0,1.211948222E1
8.502461875E0,-1.139628646E1,-3.255797503E0,1.055620061E0,1.189915527E1
8.512439875E0,-1.081791614E1,-3.761439570E0,1.147967769E0,1.151058501E1
8.522417875E0,-1.000911407E1,-4.346419582E0,1.442654574E0,1.100704228E1
8.532395875E0,-9.198849605E0,-5.021111670E0,1.805647383E0,1.063441390E1
8.542372875E0,-8.485962920E0,-5.664496595E0,2.113575500E0,1.041946686E1
8.552350875E0,-7.809799672E0,-6.286388910E0,2.436294734E0,1.031732468E1
8.562328875E0,-7.313096244E0,-6.867255991E0,2.817120674E0,1.042001681E1
8.572305875E0,-6.950710377E0,-7.456753562E0,3.344797388E0,1.072861678E1
8.582283875E0,-6.471000127E0,-8.007257221E0,3.952240356E0,1.102770215E1
8.592261875E0,-6.055757768E0,-8.513348939E0,4.487120840E0,1.137029312E1
8.602239875E0,-5.621069325E0,-9.135038940E0,4.769240224E0,1.173844151E1
8.612216875E0,-5.023629481E0,-9.795118251E0,4.854040346E0,1.203091445E1
8.622194875E0,-4.403011566E0,-1.035269646E1,4.582163237E0,1.214747112E1
8.632172875E0,-3.883827056E0,-1.062108366E1,4.161699900E0,1.205036417E1
8.642149875E0,-3.340521904E0,-1.069449545E1,3.964077167E0,1.188466353E1
8.652127875E0,-2.774711403E0,-1.070079056E1,4.067437229E0,1.177921846E1
8.662105875E0,-2.284212602E0,-1.064079345E1,4.283045704E0,1.169566556E1
8.672083875E0,-1.687058248E0,-1.037367510E1,4.631486255E0,1.148520638E1
8.682060875E0,-8.685120839E-1,-1.010701049E1,5.278397929E0,1.143536003E1
8.692038875E0,-1.535031518E-1,-9.498170328E0,5.610951887E0,1.103275051E1
8.702016875E0,1.037464457E0,-8.937804170E0,5.563978280E0,1.057915546E1
8.711993875E0,2.577262625E0,-8.987434167E0,5.329351151E0,1.076188827E1
8.721971875E0,4.255008890E0,-8.480092315E0,4.864311565E0,1.066201638E1
8.731949875E0,5.507317007E0,-7.720396914E0,4.188139547E0,1.036704307E1
8.741927875E0,6.458848443E0,-7.155272877E0,3.652250126E0,1.030793792E1
8.751904875E0,7.345457659E0,-6.894181250E0,3.176808051E0,1.056302952E1
8.761882875E0,8.472593846E0,-6.633158619E0,2.643519472E0,1.108024526E1
8.771860875E0,9.937476318E0,-6.264224455E0,2.115222369E0,1.193600056E1
8.781837875E0,1.168422674E1,-5.734918706E0,1.615942950E0,1.311570504E1
8.791815875E0,1.325314463E1,-5.319399190E0,1.176149010E0,1.432917223E1
8.801793875E0,1.447470633E1,-5.023230700E0,5.982382813E-1,1.533322729E1
8.811771875E0,1.549128103E1,-4.615106158E0,-1.112195966E-1,1.616450935E1
8.821748875E0,1.600881341E1,-4.273924925E0,-6.062530598E-1,1.658059359E1
8.831726875E0,1.612090921E1,-3.982742649E0,-8.592807922E-1,1.662781754E1
8.841704875E0,1.594488229E1,-3.744987551E0,-9.222190520E-1,1.640471551E1
8.851681875E0,1.553547078E1,-3.577249645E0,-8.368257299E-1,1.596395454E1
8.861659875E0,1.490612443E1,-3.363874514E0,-7.688974562E-1,1.530030720E1
8.871637875E0,1.411467806E1,-3.061245435E0,-7.816554961E-1,1.446396715E1
8.881615875E0,1.307630846E1,-2.870375360E0,-7.355923006E-1,1.340783329E1
8.891592875E0,1.197830193E1,-2.696421279E0,-5.629898036E-1,1.229094636E1
8.901570875E0,1.088695187E1,-2.460020689E0,-9.466525197E-2,1.116182711E1
8.911548875E0,9.788703856E0,-2.345399475E0,8.756565043E-1,1.010378128E1
8.921525875E0,8.713772780E0,-2.175434364E0,1.987316573E0,9.198466062E0
8.931503875E0,7.730595043E0,-2.211335099E0,2.805778829E0,8.516131603E0
8.941481875E0,6.792242061E0,-2.387298868E0,2.937544665E0,7.775790427E0
8.951459875E0,6.249366680E0,-2.450938793E0,2.640625393E0,7.213500352E0
8.961436875E0,5.865101700E0,-2.645602543E0,2.329968672E0,6.843053762E0
8.971414875E0,5.512335672E0,-2.817673236E0,2.319160387E0,6.610872251E0
8.981392875E0,5.120295065E0,-3.017881899E0,2.355069600E0,6.393073246E0
8.991369875E0,4.649724306E0,-3.208626260E0,2.469969141E0,6.165708893E0
9.001347875E0,4.041656855E0,-3.558314899E0,2.596747302E0,5.978268278E0
9.011325875E0,3.444089249E0,-3.869425364E0,2.869937403E0,5.922055732E0
9.021302875E0,2.932353507E0,-4.214450848E0,3.233595333E0,6.067654556E0
9.031280875E0,2.461643583E0,-4.563846542E0,3.598681152E0,6.311805639E0
9.041258875E0,1.885552801E0,-4.983896481E0,3.784048414E0,6.535560871E0
9.051236875E0,1.368191160E0,-5.270499510E0,3.588630958E0,6.521379018E0
9.061213875E0,1.111811804E0,-5.209711272E0,3.303970959E0,6.268448063E0
9.071191875E0,9.617854062E-1,-5.104166690E0,3.123094944E0,6.060632871E0
9.081169875E0,8.029036199E-1,-4.893194472E0,2.885391594E0,5.737028064E0
9.091146875E0,7.497972339E-1,-4.669405156E0,2.556077286E0,5.375785663E0
9.101124875E0,8.999616987E-1,-4.607808248E0,2.229292483E0,5.197265904E0
9.111102875E0,7.852718528E-1,-4.929845404E0,1.771092385E0,5.296866605E0
9.121080875E0,2.549415991E-1,-5.358966129E0,1.184686529E0,5.494269320E0
9.131057875E0,-3.131619599E-1,-5.463158834E0,5.985367817E-1,5.504763495E0
9.141035875E0,-9.356406046E-1,-5.425364771E0,2.496895570E-1,5.511111604E0
9.151013875E0,-1.621698656E0,-5.277648316E0,1.142352980E-1,5.522366158E0
9.160990875E0,-2.200216911E0,-4.943754176E0,2.608442903E-1,5.417536299E0
9.170968875E0,-2.662209512E0,-4.540590411E0,7.010396415E-1,5.309969618E0
9.180946875E0,-2.918763993E0,-4.099427930E0,1.375426797E0,5.216923564E0
9.190924875E0,-2.954684316E0,-3.735312456E0,1.978031194E0,5.157065634E0
9.200901875E0,-2.750453060E0,-3.640251932E0,2.498727210E0,5.201928857E0
9.210879875E0,-2.190356458E0,-3.765951281E0,2.670147400E0,5.109768841E0
9.220857875E0,-1.804490219E0,-3.782438675E0,2.188522187E0,4.727859626E0
9.230834875E0,-2.287166469E0,-3.621832033E0,1.403602483E0,4.507648796E0
9.240812875E0,-3.105886003E0,-3.303314316E0,9.006030652E-1,4.622715568E0
9.250790875E0,-3.883867401E0,-2.919188501E0,8.101565793E-1,4.925691949E0
9.260768875E0,-4.661477501E0,-2.485942565E0,8.824334273E-1,5.356115354E0
9.270745875E0,-5.279958551E0,-2.019552273E0,9.835706699E-1,5.737940828E0
9.280723875E0,-5.313057300E0,-1.712024982E0,1.121205063E0,5.693567265E0
9.290701875E0,-4.947219821E0,-1.769579126E0,1.306577587E0,5.414197930E0
9.300678875E0,-4.742277251E0,-1.863824548E0,1.196030712E0,5.233882396E0
9.310656875E0,-5.152614380E0,-1.795883410E0,6.680920431E-1,5.497361108E0
9.320634875E0,-5.814491125E0,-1.610102166E0,9.557624817E-2,6.034059235E0
9.330612208E0,-6.656307746E0,-1.268249965E0,-2.624420419E-1,6.781133136E0
9.340589208E0,-7.740001459E0,-8.751820028E-1,-3.434034669E-1,7.796889897E0
9.350567208E0,-8.892499943E0,-6.789804357E-1,-1.689728379E-2,8.918399811E0
9.360545208E0,-9.607885144E0,-5.812144053E-1,4.727087939E-1,9.637049379E0
9.370522208E0,-9.671933205E0,-5.420421535E-1,9.227099258E-1,9.730955515E0
9.380500208E0,-9.618201386E0,-5.096018010E-1,1.224782349E0,9.709252479E0
9.390478208E0,-9.600607699E0,-4.436276668E-1,1.353233690E0,9.705653771E0
9.400456208E0,-9.479524142E0,-4.463097847E-1,1.440830097E0,9.598779180E0
9.410433208E0,-9.457929205E0,-5.464404291E-1,1.503978710E0,9.592339337E0
9.420411208E0,-9.526667903E0,-6.588677680E-1,1.568062293E0,9.677309927E0
9.430389208E0,-9.515425462E0,-8.313571215E-1,1.758239474E0,9.712151277E0
9.440366208E0,-9.439789388E0,-1.022486229E0,2.054595805E0,9.714755051E0
9.450344208E0,-9.333263059E0,-1.302142181E0,2.271355306E0,9.693525082E0
9.460322208E0,-9.281647933E0,-1.582336662E0,2.254004278E0,9.681596611E0
9.470299208E0,-9.299521117E0,-1.900715216E0,2.025741843E0,9.705536633E0
9.480277208E0,-9.157665326E0,-2.234008847E0,1.677356840E0,9.574296618E0
9.490255208E0,-8.796215597E0,-2.632083195E0,1.486078044E0,9.301059012E0
9.500233208E0,-8.451963115E0,-3.092745556E0,1.514091177E0,9.126512349E0
9.510210208E0,-8.093821156E0,-3.545663279E0,1.626375844E0,8.984807587E0
9.520188208E0,-7.617964221E0,-3.960133220E0,1.716375018E0,8.755682566E0
9.530166208E0,-7.097526360E0,-4.417480794E0,1.855854500E0,8.563481355E0
9.540143208E0,-6.562407310E0,-4.989872335E0,2.026192078E0,8.489373944E0
9.550121208E0,-6.088354826E0,-5.544876012E0,2.153469006E0,8.511823731E0
9.560099208E0,-5.735788772E0,-6.050097079E0,2.253183914E0,8.635958849E0
9.570077208E0,-5.436922962E0,-6.642970247E0,2.316964172E0,8.891428905E0
9.580054208E0,-5.043942708E0,-7.200160198E0,2.395340543E0,9.111603658E0
9.590032208E0,-4.702971683E0,-7.830348542E0,2.512136630E0,9.473285142E0
9.600010208E0,-4.240396698E0,-8.505880875E0,2.574062444E0,9.846662941E0
9.609987208E0,-3.735825257E0,-9.105082485E0,2.461549151E0,1.014485789E1
9.619965208E0,-3.220559550E0,-9.439652563E0,2.259952066E0,1.022675059E1
9.629943208E0,-2.500273214E0,-9.173903629E0,1.745077830E0,9.667324892E0
9.639921208E0,-2.066457321E0,-8.924618114E0,1.220746601E0,9.241713943E0
9.649898208E0,-1.950914585E0,-9.139423767E0,9.365207568E-1,9.392135308E0
9.659876208E0,-1.915984342E0,-9.397868360E0,8.905555022E-1,9.632445942E0
9.669854208E0,-2.059976852E0,-9.422412048E0,1.037707408E0,9.700628335E0
9.679831208E0,-2.188685763E0,-9.304965459E0,1.391072484E0,9.659596794E0
9.689809208E0,-1.620437120E0,-9.251503197E0,1.760147567E0,9.555848854E0
9.699787208E0,-3.374512938E-1,-9.001203191E0,2.245173228E0,9.283120977E0
9.709765208E0,1.256422217E0,-8.624861189E0,2.840930536E0,9.167208606E0
9.719742208E0,3.055326007E0,-8.321265566E0,3.386224618E0,9.489204118E0
9.729720208E0,4.949954563E0,-8.014189680E0,3.774772391E0,1.014781716E1
9.739698208E0,6.898090113E0,-7.531371050E0,4.088107136E0,1.100080984E1
9.749675208E0,8.532092773E0,-6.969259499E0,4.194941905E0,1.178832993E1
9.759653208E0,9.787450798E0,-6.291481251E0,3.900646279E0,1.227159203E1
9.769631208E0,1.098310115E1,-5.567456789E0,3.357170681E0,1.276305923E1
9.779609208E0,1.236784811E1,-5.060883261E0,2.727860003E0,1.363882057E1
9.789586208E0,1.359544531E1,-4.450836820E0,2.092374958E0,1.445766629E1
9.799564208E0,1.428949929E1,-3.807283494E0,1.621184101E0,1.487660698E1
9.809542208E0,1.467045825E1,-3.209420897E0,1.274039878E0,1.507136044E1
9.819519208E0,1.480282518E1,-2.632912915E0,1.047636273E0,1.507160925E1
9.829497208E0,1.460020512E1,-2.180782228E0,9.906665584E-1,1.479537837E1
9.839475208E0,1.406344944E1,-1.798348011E0,1.042257419E0,1.421622194E1
9.849453208E0,1.320195109E1,-1.572854233E0,9.709558868E-1,1.333072160E1
9.859430208E0,1.225101139E1,-1.331678807E0,6.180349070E-1,1.233866345E1
9.869408208E0,1.131780279E1,-9.693063873E-1,1.188911435E-1,1.135985695E1
9.879386208E0,1.040598330E1,-7.313849366E-1,-2.371177509E-1,1.043434891E1
9.889363208E0,9.531353862E0,-6.173361647E-1,-4.464314067E-1,9.561752526E0
9.899341208E0,8.688770671E0,-4.094840205E-1,-3.724807933E-1,8.706385868E0
9.909319208E0,7.849844913E0,-2.215071470E-1,1.670988053E-2,7.852987317E0
9.919296208E0,7.064020060E0,-1.276043719E-1,6.079592773E-1,7.091281744E0
9.929274208E0,6.319032161E0,-1.280522686E-1,1.253085504E0,6.443352242E0
9.939252208E0,5.671921390E0,-2.800418687E-1,1.810418711E0,5.960430489E0
9.949230208E0,5.163214797E0,-5.035435009E-1,2.160893801E0,5.619769134E0
9.959207208E0,4.820127665E0,-6.909689820E-1,2.311778277E0,5.390304967E0
9.969185208E0,4.642074101E0,-8.183932596E-1,2.276311406E0,5.234521287E0
9.979163208E0,4.419604502E0,-9.444609833E-1,2.201110657E0,5.026907462E0
9.989140208E0,4.148868185E0,-1.110987346E0,2.110449579E0,4.785540463E0
9.999118208E0,3.802479422E0,-1.409625115E0,2.059579387E0,4.548379928E0
1.000909621E1,3.430191295E0,-1.784869595E0,2.088100936E0,4.394557692E0
1.001907421E1,2.950650322E0,-2.157417338E0,2.165368382E0,4.248482920E0
1.002905121E1,2.399366644E0,-2.509873465E0,2.170789628E0,4.094966753E0
1.003902921E1,1.950209850E0,-2.843901506E0,2.002520795E0,3.987628840E0
1.004900721E1,1.790639042E0,-3.115532740E0,1.685940553E0,3.969298172E0
1.005898421E1,1.954399087E0,-3.388431065E0,1.291283902E0,4.119290593E0
1.006896221E1,2.276733721E0,-3.627709655E0,9.745995793E-1,4.392452403E0
1.007894021E1,2.223959822E0,-3.663099343E0,7.644345689E-1,4.353005203E0
1.008891821E1,1.917250118E0,-3.619370356E0,6.079034364E-1,4.140680666E0
1.009889521E1,1.622227391E0,-3.508241099E0,5.676015025E-1,3.906603228E0
1.010887321E1,1.151385467E0,-3.534175839E0,6.298097375E-1,3.769979795E0
1.011885121E1,6.427697986E-1,-3.805525237E0,5.379432553E-1,3.896736877E0
1.012882821E1,1.922321116E-1,-3.880215815E0,2.565705603E-1,3.893437608E0
1.013880621E1,-1.843221445E-1,-3.719470595E0,-2.898874104E-2,3.724147755E0
1.014878421E1,-5.645429702E-1,-3.744548133E0,-9.318795294E-2,3.788011811E0
1.015876121E1,-8.156905304E-1,-3.713928019E0,1.193258840E-1,3.804320049E0
1.016873921E1,-8.613821353E-1,-3.528758978E0,5.840634611E-1,3.679028301E0
1.017871721E1,-8.194229543E-1,-3.363323121E0,1.105922488E0,3.634069474E0
1.018869521E1,-7.492189443E-1,-3.305416975E0,1.419338509E0,3.674456723E0
1.019867221E1,-6.706507847E-1,-3.281605943E0,1.388321662E0,3.625761586E0
1.020865021E1,-8.027773932E-1,-3.380385296E0,1.007392519E0,3.617498581E0
1.021862821E1,-1.165189866E0,-3.473796905E0,5.190877390E-1,3.700592445E0
1.022860521E1,-1.708334219E0,-3.437440088E0,1.475892779E-1,3.841377716E0
1.023858321E1,-2.167624823E0,-3.264628553E0,-2.758540928E-2,3.918820985E0
1.024856121E1,-2.437670584E0,-2.963059575E0,-1.025835514E-1,3.838291717E0
1.025853921E1,-2.551248363E0,-2.650130042E0,-1.951470217E-1,3.683767067E0
1.026851621E1,-2.227795303E0,-2.600271419E0,-4.587593839E-1,3.454698762E0
1.027849421E1,-1.608756722E0,-2.804777786E0,-7.325882936E-1,3.315352504E0
1.028847221E1,-1.298796989E0,-2.902905174E0,-9.518771531E-1,3.319608740E0
1.029844921E1,-1.611168698E0,-2.667074103E0,-9.716677853E-1,3.263937366E0
1.030842721E1,-2.280183139E0,-2.221584098E0,-7.527284431E-1,3.271279744E0
1.031840521E1,-3.068713499E0,-1.827265416E0,-3.882656443E-1,3.592582867E0
1.032838321E1,-3.876199363E0,-1.490855804E0,-7.024874121E-2,4.153613778E0
1.033835983E1,-4.536788551E0,-1.247987609E0,1.593986070E-1,4.708007152E0
1.034833783E1,-4.808955390E0,-1.167759132E0,3.927796948E-1,4.964271268E0
1.035831583E1,-4.966102819E0,-1.048266603E0,4.204570515E-1,5.092919026E0
1.036829283E1,-5.209556905E0,-8.549395269E-1,2.837022257E-1,5.286860287E0
1.037827083E1,-5.533990250E0,-6.474043018E-1,2.708748963E-1,5.578311001E0
1.038824883E1,-6.084543611E0,-5.078336030E-1,3.648321967E-1,6.116589610E0
1.039822683E1,-6.790853932E0,-3.798941857E-1,5.284852378E-1,6.821972836E0
1.040820383E1,-7.645214000E0,-3.120413411E-1,6.769708939E-1,7.681468382E0
1.041818183E1,-8.621725911E0,-1.320482558E-1,1.077529578E0,8.689802324E0
1.042815983E1,-9.617029020E0,3.519146740E-2,1.770869168E0,9.778776161E0
1.043813683E1,-1.029107148E1,1.589717603E-1,2.497832294E0,1.059106182E1
1.044811483E1,-1.060516753E1,2.292892063E-1,3.101723371E0,1.105182518E1
1.045809283E1,-1.070973329E1,6.638168514E-2,3.514656079E0,1.127189430E1
1.046807083E1,-1.069952756E1,-2.253668940E-1,3.606674881E0,1.129330704E1
1.047804783E1,-1.069125492E1,-4.264988333E-1,3.563383266E0,1.127752337E1
1.048802583E1,-1.054373903E1,-6.273980534E-1,3.579090056E0,1.115230678E1
1.049800383E1,-1.014167278E1,-9.484464455E-1,3.725914811E0,1.084599090E1
1.050798083E1,-9.442879057E0,-1.314603767E0,3.968311136E0,1.032684082E1
1.051795883E1,-8.664462626E0,-1.704605450E0,4.127396332E0,9.747512135E0
1.052793683E1,-7.828509593E0,-2.179124542E0,4.232881272E0,9.162501300E0
1.053791383E1,-7.064600104E0,-2.708046713E0,4.198576535E0,8.652753120E0
1.054789183E1,-6.521359856E0,-3.206184463E0,4.003976520E0,8.296962164E0
1.055786983E1,-6.088785181E0,-3.708388951E0,3.800298411E0,8.078844076E0
1.056784783E1,-5.608600137E0,-4.360970378E0,3.717286952E0,8.018271660E0
1.057782483E1,-5.144196728E0,-5.040392863E0,3.668796870E0,8.082598015E0
1.058780283E1,-4.852234434E0,-5.629672918E0,3.605086485E0,8.260390107E0
1.059778083E1,-4.601742346E0,-6.179333408E0,3.558556974E0,8.486667292E0
1.060775783E1,-4.289714746E0,-6.678134817E0,3.486325150E0,8.669117619E0
1.061773583E1,-3.890916805E0,-7.192771071E0,3.383981042E0,8.850226944E0
1.062771383E1,-3.401724710E0,-7.687954223E0,3.194404370E0,8.993363688E0
1.063769183E1,-2.913338946E0,-8.005260397E0,2.921409273E0,9.005907505E0
1.064766883E1,-2.500086688E0,-8.234968264E0,2.603218123E0,8.991211284E0
1.065764683E1,-2.250624149E0,-8.210600578E0,2.249985487E0,8.805776831E0
1.066762483E1,-2.158177623E0,-8.091841289E0,1.926191534E0,8.593360223E0
1.067760183E1,-2.173007185E0,-7.933333213E0,1.758909419E0,8.411509878E0
1.068757983E1,-2.171345845E0,-7.840443760E0,1.671711938E0,8.305535620E0
1.069755783E1,-2.017591555E0,-7.886382995E0,1.612742769E0,8.298593354E0
1.070753583E1,-1.690030973E0,-7.766477652E0,1.452203370E0,8.079806584E0
1.071751283E1,-1.291615147E0,-7.525346079E0,1.417386416E0,7.765828195E0
1.072749083E1,-7.117865315E-1,-7.256033267E0,1.527208529E0,7.449095564E0
1.073746883E1,3.809814754E-1,-6.890168890E0,1.859463109E0,7.146829876E0
1.074744583E1,1.522137238E0,-6.658385847E0,2.341131007E0,7.220242257E0
1.075742383E1,2.664695456E0,-6.578627486E0,2.508398797E0,7.528014745E0
1.076740183E1,3.870494235E0,-6.312611334E0,1.983303044E0,7.665720999E0
1.077737983E1,5.040195227E0,-5.937984320E0,1.140341538E0,7.871696420E0
1.078735683E1,6.440408664E0,-5.584714261E0,2.768089432E-1,8.529039824E0
1.079733483E1,8.130482613E0,-5.178788272E0,-3.118571538E-1,9.644783584E0
1.080731283E1,9.638083674E0,-5.006620515E0,-3.033947709E-1,1.086512560E1
1.081728983E1,1.107403939E1,-4.948173501E0,2.337132096E-3,1.212925285E1
1.082726783E1,1.263813917E1,-4.656483979E0,3.026340482E-1,1.347208195E1
1.083724583E1,1.397149379E1,-4.455005300E0,6.033642429E-1,1.467698059E1
1.084722383E1,1.499383383E1,-4.222264482E0,7.657946312E-1,1.559580110E1
1.085720083E1,1.568778957E1,-3.934742271E0,7.044111460E-1,1.618904363E1
1.086717883E1,1.588711648E1,-3.733893921E0,4.134817618E-1,1.632523816E1
1.087715683E1,1.546710747E1,-3.496415982E0,-8.060445249E-2,1.585757974E1
1.088713383E1,1.461529796E1,-3.207026462E0,-6.569995826E-1,1.497743641E1
1.089711183E1,1.344639628E1,-3.056395755E0,-1.219079852E0,1.384316740E1
1.090708983E1,1.201494058E1,-2.964318480E0,-1.750406690E0,1.249839609E1
1.091706783E1,1.061639185E1,-2.715404264E0,-2.244777079E0,1.118571501E1
1.092704483E1,9.324149004E0,-2.383075424E0,-2.439309266E0,9.928193835E0
1.093702283E1,8.149768485E0,-2.139894403E0,-2.188607556E0,8.705623323E0
1.094700083E1,7.163823845E0,-1.978816475E0,-1.607868530E0,7.604033662E0
1.095697783E1,6.396408951E0,-1.846153092E0,-9.509993398E-1,6.725082040E0
1.096695583E1,5.760798483E0,-1.708656986E0,-2.661933231E-1,6.014745775E0
1.097693383E1,5.167580329E0,-1.699580353E0,5.207451323E-1,5.464763062E0
1.098691183E1,4.616960310E0,-1.758588699E0,1.259677362E0,5.098602139E0
1.099688883E1,4.184560466E0,-1.857601356E0,1.890189058E0,4.953185215E0
1.100686683E1,3.972106563E0,-1.914730992E0,2.437492536E0,5.038372276E0
1.101684483E1,3.928579890E0,-1.983617039E0,2.960563399E0,5.304093905E0
1.102682183E1,3.836057935E0,-2.195206724E0,3.392117735E0,5.571421342E0
1.103679983E1,3.752914329E0,-2.410981261E0,3.714512740E0,5.804722345E0
1.104677783E1,3.539601470E0,-2.648912652E0,3.924831825E0,5.911837418E0
1.105675583E1,3.193189903E0,-2.930517481E0,4.081101587E0,5.953132337E0
1.106673283E1,2.684682116E0,-3.274996251E0,4.110474198E0,5.901619832E0
1.107671083E1,2.148305915E0,-3.518220541E0,3.924713419E0,5.691789657E0
1.108668883E1,1.644618134E0,-3.593514553E0,3.669913103E0,5.393178824E0
1.109666583E1,1.105122735E0,-3.635710400E0,3.439031700E0,5.125097599E0
1.110664383E1,6.876137035E-1,-3.566491646E0,3.205978933E0,4.844685354E0
1.111662183E1,5.094812753E-1,-3.555453857E0,2.931106880E0,4.635969245E0
1.112659983E1,5.867633399E-1,-3.518248608E0,2.574297502E0,4.398792120E0
1.113657683E1,5.355969869E-1,-3.651263993E0,2.266006857E0,4.330517285E0
1.114655483E1,1.981954676E-1,-3.863235501E0,1.963219905E0,4.337983676E0
1.115653283E1,-4.084967181E-1,-3.943711315E0,1.600732003E0,4.275753904E0
1.116650983E1,-1.058769810E0,-3.949366742E0,1.262653010E0,4.279343851E0
1.117648783E1,-1.386769080E0,-3.879840424E0,1.026585712E0,4.246194581E0
1.118646583E1,-1.498672362E0,-3.877206838E0,8.530561388E-1,4.243401524E0
1.119644283E1,-1.497047859E0,-3.849471155E0,7.065026951E-1,4.190313416E0
1.120642083E1,-1.480502578E0,-3.791594245E0,7.082422417E-1,4.131547153E0
1.121639883E1,-1.541697929E0,-3.798897418E0,6.946141362E-1,4.158237955E0
1.122637683E1,-1.682206813E0,-3.938409644E0,5.578199878E-1,4.318802314E0
1.123635383E1,-1.895926639E0,-3.923802715E0,3.145468730E-1,4.369176730E0
1.124633183E1,-2.227808752E0,-3.872146658E0,-1.198094487E-2,4.467302891E0
1.125630983E1,-2.688098060E0,-3.790944620E0,-3.206232995E-1,4.658318537E0
1.126628683E1,-3.246802439E0,-3.617786345E0,-4.614412093E-1,4.882932736E0
1.127626483E1,-3.803789783E0,-3.390553020E0,-3.802140284E-1,5.109719092E0
1.128624283E1,-4.186233647E0,-3.013463743E0,-9.192758560E-2,5.158872606E0
1.129622083E1,-4.148046944E0,-2.621925997E0,2.892477250E-1,4.915735309E0
1.130619783E1,-3.943480642E0,-2.410339821E0,4.972440031E-1,4.648443742E0
1.131617583E1,-3.799127798E0,-2.279956852E0,4.641008154E-1,4.454993248E0
1.132615383E1,-3.777550403E0,-2.152627884E0,1.395894098E-1,4.350078052E0
1.133613358E1,-3.987019302E0,-1.859524505E0,-2.663450584E-1,4.407390837E0
1.134611158E1,-4.274495321E0,-1.436523476E0,-4.657152316E-1,4.533409382E0
1.135608958E1,-4.293702255E0,-1.124085109E0,-4.374264023E-1,4.459908995E0
1.136606758E1,-3.907856188E0,-9.434634483E-1,-2.518194053E-1,4.028011455E0
1.137604458E1,-3.391728895E0,-8.963097471E-1,7.379449278E-2,3.508937401E0
1.138602258E1,-2.979607780E0,-8.826202458E-1,3.568280894E-1,3.128003725E0
1.139600058E1,-2.926812100E0,-7.807032770E-1,4.577834836E-1,3.063542459E0
1.140597758E1,-3.365335148E0,-6.447724700E-1,2.977451912E-1,3.439456991E0
1.141595558E1,-4.132278172E0,-5.337800378E-1,-6.284061134E-2,4.167084468E0
1.142593358E1,-4.939168205E0,-2.943388957E-1,-3.182627785E-1,4.958155820E0
1.143591158E1,-5.493880105E0,-2.476763606E-2,-1.305157006E-1,5.495486001E0
1.144588858E1,-5.738920541E0,2.037047142E-1,3.786957988E-1,5.755007827E0
1.145586658E1,-5.854934562E0,3.649393469E-1,1.013243828E0,5.953159036E0
1.146584458E1,-5.883038034E0,3.524660665E-1,1.656220618E0,6.121881702E0
1.147582158E1,-5.963474672E0,2.896196079E-1,2.203504508E0,6.364145017E0
1.148579958E1,-6.246788058E0,2.831870860E-1,2.433566423E0,6.710052273E0
1.149577758E1,-6.648564863E0,2.862276381E-1,2.406600234E0,7.076515081E0
1.150575558E1,-7.024447274E0,2.612840009E-1,2.260733546E0,7.383904455E0
1.151573258E1,-7.403302994E0,1.970862508E-1,2.122140502E0,7.703974203E0
1.152571058E1,-7.654839687E0,8.096931875E-2,2.033559862E0,7.920763371E0
1.153568858E1,-7.547163795E0,-1.296117210E-1,2.052434382E0,7.822337722E0
1.154566558E1,-7.226179138E0,-4.206469399E-1,2.096662721E0,7.535954044E0
1.155564358E1,-6.876021552E0,-8.067245561E-1,2.127578705E0,7.242725180E0
1.156562158E1,-6.577201350E0,-1.246003649E0,2.060968978E0,7.004262690E0
1.157559958E1,-6.461100791E0,-1.654418213E0,1.849919284E0,6.921352787E0
1.158557658E1,-6.520174626E0,-1.965897637E0,1.647982475E0,7.006659468E0
1.159555458E1,-6.698890094E0,-2.235066608E0,1.591165081E0,7.238954175E0
1.160553258E1,-6.890709173E0,-2.544392502E0,1.714884270E0,7.542985760E0
1.161550958E1,-6.921308237E0,-2.895673923E0,2.014137459E0,7.768280690E0
1.162548758E1,-6.606022861E0,-3.398854312E0,2.542410589E0,7.852108015E0
1.163546558E1,-6.294288499E0,-3.982461398E0,3.082548012E0,8.061027771E0
1.164544358E1,-6.224937013E0,-4.650000002E0,3.465016434E0,8.507566028E0
1.165542058E1,-6.130293396E0,-5.286719686E0,3.677767375E0,8.891337077E0
1.166539858E1,-5.967834356E0,-5.939646099E0,3.700076550E0,9.197010881E0
1.167537658E1,-5.786163704E0,-6.586852180E0,3.634211758E0,9.490722162E0
1.168535358E1,-5.607824796E0,-6.988274644E0,3.598580580E0,9.655747700E0
1.169533158E1,-5.319842409E0,-7.187835436E0,3.655833885E0,9.660787903E0
1.170530958E1,-4.851429857E0,-7.548396973E0,3.770360667E0,9.732948581E0
1.171528758E1,-4.150951548E0,-8.018679757E0,3.853751610E0,9.817383830E0
1.172526458E1,-3.218417715E0,-8.378987525E0,3.819256838E0,9.754607492E0
1.173524258E1,-2.244037699E0,-8.767351987E0,3.652880749E0,9.759390545E0
1.174522058E1,-1.377147340E0,-8.944460056E0,3.421173719E0,9.674933080E0
1.175519758E1,-5.621938513E-1,-8.811875026E0,3.230922863E0,9.402343641E0
1.176517558E1,2.009804964E-1,-8.564184047E0,3.124373145E0,9.118516826E0
1.177515358E1,8.098399526E-1,-8.426173970E0,3.126735128E0,9.024008039E0
1.178513158E1,1.691995929E0,-8.392279415E0,2.958026292E0,9.057765925E0
1.179510858E1,2.976663707E0,-7.786100323E0,2.567210969E0,8.722067256E0
1.180508658E1,4.041868232E0,-6.863244801E0,2.215028785E0,8.267235361E0
1.181506458E1,4.977006122E0,-5.924304759E0,1.968109639E0,7.983823167E0
1.182504158E1,5.758794642E0,-5.237890173E0,1.884064685E0,8.009301401E0
1.183501958E1,6.236512746E0,-4.971450682E0,1.946624045E0,8.209674676E0
1.184499758E1,6.788760045E0,-4.816914035E0,1.941620582E0,8.547503393E0
1.185497558E1,7.594763054E0,-4.610752321E0,1.869038510E0,9.079249295E0
1.186495258E1,8.670884038E0,-4.631968943E0,1.780840278E0,9.990533439E0
1.187493058E1,1.027940278E1,-4.732385516E0,1.418006514E0,1.140492598E1
1.188490858E1,1.222084794E1,-4.500858580E0,6.822373348E-1,1.304117710E1
1.189488558E1,1.397515999E1,-4.070611974E0,-3.498055834E-1,1.456012852E1
1.190486358E1,1.495106145E1,-3.604247994E0,-1.505671479E0,1.545289257E1
1.191484158E1,1.507320511E1,-3.250505480E0,-2.554926846E0,1.562993760E1
1.192481958E1,1.472844392E1,-3.026906784E0,-3.227342028E0,1.537871781E1
1.193479658E1,1.403056002E1,-2.911930059E0,-3.307225519E0,1.470624669E1
1.194477458E1,1.320158388E1,-2.868508636E0,-2.925253817E0,1.382270844E1
1.195475258E1,1.231429464E1,-2.751417266E0,-2.469856583E0,1.285738468E1
1.196472958E1,1.126908145E1,-2.565634852E0,-2.177132688E0,1.176072216E1
1.197470758E1,1.016968328E1,-2.330408968E0,-1.933251463E0,1.061087769E1
1.198468558E1,9.112687958E0,-2.195509317E0,-1.625214295E0,9.513288837E0
1.199466358E1,8.080367882E0,-2.062702970E0,-1.307828014E0,8.441415922E0
1.200464058E1,7.115962046E0,-1.876578494E0,-9.323169011E-1,7.418064269E0
1.201461858E1,6.299571458E0,-1.713260499E0,-5.292718345E-1,6.549808453E0
1.202459658E1,5.613625234E0,-1.608538036E0,-7.571325660E-2,5.840027002E0
1.203457358E1,5.052078524E0,-1.568107463E0,4.851855826E-1,5.312048896E0
1.204455158E1,4.643811309E0,-1.585065558E0,1.085889342E0,5.025591702E0
1.205452958E1,4.210896910E0,-1.656039062E0,1.740133132E0,4.847904855E0
1.206450758E1,3.819004823E0,-1.762814482E0,2.350627470E0,4.818481321E0
1.207448458E1,3.529698041E0,-1.927565045E0,2.826055804E0,4.915370451E0
1.208446258E1,3.321354438E0,-2.105275962E0,3.145797343E0,5.035833904E0
1.209444058E1,3.066518162E0,-2.281772997E0,3.347763680E0,5.081096664E0
1.210441758E1,2.816041570E0,-2.478509585E0,3.463937915E0,5.106071461E0
1.211439558E1,2.581955893E0,-2.696001449E0,3.504439824E0,5.120158056E0
1.212437358E1,2.358027121E0,-2.949940762E0,3.464933111E0,5.125251591E0
1.213435058E1,2.162926000E0,-3.256661137E0,3.307075830E0,5.120628984E0
1.214432858E1,1.969310364E0,-3.526112528E0,2.997774494E0,5.029742021E0
1.215430658E1,1.756064018E0,-3.691969970E0,2.641629944E0,4.867505712E0
1.216428458E1,1.529703243E0,-3.789370549E0,2.332694060E0,4.705399319E0
1.217426158E1,1.294453970E0,-3.868482792E0,2.101914398E0,4.588988378E0
1.218423958E1,1.110456273E0,-3.909137898E0,1.844925177E0,4.462983436E0
1.219421758E1,9.635857639E-1,-4.036078611E0,1.703548858E0,4.485588790E0
1.220419458E1,9.693790390E-1,-4.193884436E0,1.632606637E0,4.603668843E0
1.221417258E1,9.092482466E-1,-4.330342662E0,1.505460979E0,4.673864858E0
1.222415058E1,8.416903210E-1,-4.316000027E0,1.379889100E0,4.608730059E0
1.223412858E1,1.000201321E0,-4.092246965E0,1.214016455E0,4.384144598E0
1.224410558E1,1.179892543E0,-4.093639187E0,8.915372497E-1,4.352570146E0
1.225408358E1,1.258507481E0,-4.474508688E0,5.521166137E-1,4.680801409E0
1.226406158E1,1.061574135E0,-4.738576548E0,1.726405039E-1,4.859099926E0
1.227403858E1,5.841660798E-1,-4.887588161E0,-7.251541436E-2,4.922908340E0
1.228401658E1,-5.822160333E-2,-4.923494743E0,-4.949843466E-2,4.924087767E0
1.229399458E1,-6.728186399E-1,-4.844780695E0,3.204677635E-1,4.901763407E0
1.230397258E1,-1.131153516E0,-4.574515371E0,8.706138656E-1,4.792042118E0
1.231394958E1,-1.494878981E0,-4.267604377E0,1.261133904E0,4.694418922E0
1.232392758E1,-1.566220567E0,-3.933469332E0,1.463411020E0,4.479598159E0
1.233390621E1,-1.350844225E0,-3.601568508E0,1.487107446E0,4.124022841E0
1.234388321E1,-1.063978948E0,-3.522378497E0,1.420215007E0,3.944136425E0
1.235386121E1,-9.466127586E-1,-3.524737263E0,1.362553567E0,3.895690018E0
1.236383921E1,-1.032217750E0,-3.464013929E0,1.234781380E0,3.819627081E0
1.237381721E1,-1.348229350E0,-3.386136618E0,9.852302559E-1,3.775489668E0
1.238379421E1,-2.079602008E0,-3.205131379E0,6.859552869E-1,3.881771030E0
1.239377221E1,-3.118114870E0,-2.817735801E0,4.222075617E-1,4.223805702E0
1.240375021E1,-4.162142242E0,-2.305338446E0,3.381643617E-1,4.769944290E0
1.241372721E1,-5.155721006E0,-1.733446257E0,5.857904363E-1,5.470781064E0
1.242370521E1,-5.815547717E0,-1.253401546E0,1.077341298E0,6.045847745E0
1.243368321E1,-6.184192445E0,-8.861320835E-1,1.604790701E0,6.450179800E0
1.244366121E1,-6.687025509E0,-7.411532950E-1,2.054206381E0,7.034584723E0
1.245363821E1,-7.554141862E0,-5.393097496E-1,2.199645491E0,7.886339745E0
1.246361621E1,-8.392920270E0,-1.956004733E-1,2.037428526E0,8.638893749E0
1.247359421E1,-8.910588890E0,7.227392435E-2,1.784410003E0,9.087790542E0
1.248357121E1,-9.171231451E0,2.588158911E-1,1.628416669E0,9.318273061E0
1.249354921E1,-9.172049477E0,4.366390747E-1,1.768195674E0,9.351131548E0
1.250352721E1,-8.889139549E0,5.038703603E-1,2.200972517E0,9.171421224E0
1.251350521E1,-8.536406264E0,4.972840565E-1,2.625445436E0,8.944858136E0
1.252348221E1,-8.131885360E0,4.126871252E-1,2.863636444E0,8.631238837E0
1.253346021E1,-7.675949889E0,3.110326964E-1,2.803536715E0,8.177821602E0
1.254343821E1,-7.329076100E0,1.995409119E-1,2.508902242E0,7.749178248E0
1.255341521E1,-7.102888842E0,1.080091828E-1,2.173403041E0,7.428753372E0
1.256339321E1,-6.928735371E0,-1.575239897E-3,2.029186145E0,7.219762650E0
1.257337121E1,-6.765114489E0,-1.823729020E-1,2.028854169E0,7.065145658E0
1.258334921E1,-6.591182043E0,-4.395030409E-1,2.163162228E0,6.950979389E0
1.259332621E1,-6.458456680E0,-6.478878665E-1,2.305038922E0,6.888005938E0
1.260330421E1,-6.346250365E0,-8.769654036E-1,2.321894398E0,6.814334569E0
1.261328221E1,-6.268781190E0,-1.117419868E0,2.286215419E0,6.765576525E0
1.262325921E1,-6.179629278E0,-1.421203771E0,2.205685519E0,6.713619499E0
1.263323721E1,-6.042538968E0,-1.720712190E0,2.167151345E0,6.646026826E0
1.264321521E1,-5.862026650E0,-2.049303491E0,2.199835964E0,6.588040643E0
1.265319321E1,-5.707732662E0,-2.455376830E0,2.323607194E0,6.633719764E0
1.266317021E1,-5.577978854E0,-2.906230486E0,2.385194747E0,6.726750903E0
1.267314821E1,-5.495843015E0,-3.402044553E0,2.361170438E0,6.881375112E0
1.268312621E1,-5.424505230E0,-3.859292139E0,2.199528109E0,7.011227903E0
1.269310321E1,-5.431064637E0,-4.307037415E0,1.983344267E0,7.209763440E0
1.270308121E1,-5.550353683E0,-4.752174833E0,1.766294745E0,7.517272695E0
1.271305921E1,-5.546802669E0,-5.276960099E0,1.643431588E0,7.830338123E0
1.272303721E1,-5.469112469E0,-5.737186257E0,1.590066097E0,8.084232031E0
1.273301421E1,-5.383924384E0,-6.082685366E0,1.635241393E0,8.286115944E0
1.274299221E1,-5.255217812E0,-6.420731614E0,1.880635000E0,8.507637552E0
1.275297021E1,-5.003306313E0,-6.751639581E0,2.324717580E0,8.719060897E0
1.276294721E1,-4.861920931E0,-7.027467361E0,2.898591099E0,9.023602552E0
1.277292521E1,-4.679891261E0,-7.361870794E0,3.555295689E0,9.420119491E0
1.278290321E1,-4.407227993E0,-7.684550559E0,4.085246093E0,9.755265835E0
1.279288121E1,-4.249067242E0,-8.112467342E0,4.346165520E0,1.013685620E1
1.280285821E1,-4.014484844E0,-8.614007587E0,4.320449758E0,1.043951634E1
1.281283621E1,-3.178901062E0,-8.952729773E0,4.132539835E0,1.036024458E1
1.282281421E1,-2.165368382E0,-9.339417838E0,3.852147426E0,1.033211428E1
1.283279121E1,-9.609390217E-1,-9.558956228E0,3.590080775E0,1.025600936E1
1.284276921E1,6.038270500E-1,-9.247098489E0,3.499492787E0,9.905548311E0
1.285274721E1,2.335121531E0,-8.678198905E0,3.612911229E0,9.685920521E0
1.286272521E1,4.149849932E0,-7.836443680E0,3.785344449E0,9.641573347E0
1.287270221E1,5.386794198E0,-7.083835105E0,3.779201072E0,9.668538269E0
1.288268021E1,5.577773032E0,-6.690111085E0,3.340920391E0,9.329034643E0
1.289265821E1,5.497252779E0,-6.475926406E0,2.615072476E0,8.887970240E0
1.290263621E1,6.462959036E0,-6.387028263E0,1.891560523E0,9.281269888E0
1.291261321E1,8.810548877E0,-6.289750475E0,1.516101158E0,1.093093296E1
1.292259121E1,1.140769554E1,-6.046994546E0,1.308833735E0,1.297746918E1
1.293256921E1,1.358493202E1,-5.618538065E0,8.371657455E-1,1.472478164E1
1.294254621E1,1.505600143E1,-5.017535512E0,-2.401001233E-1,1.587187732E1
1.295252421E1,1.556213291E1,-4.421934033E0,-1.683010806E0,1.626548513E1
1.296250221E1,1.542683653E1,-3.908962189E0,-2.885769032E0,1.617389667E1
1.297247921E1,1.527845173E1,-3.638749198E0,-3.413154262E0,1.607237397E1
1.298245721E1,1.537796199E1,-3.547811546E0,-3.207703570E0,1.610459698E1
1.299243521E1,1.543744805E1,-3.532781278E0,-2.550536464E0,1.604059170E1
1.300241321E1,1.519380978E1,-3.456744086E0,-2.053830113E0,1.571684298E1
1.301239021E1,1.440464500E1,-3.214419681E0,-1.976113307E0,1.489064522E1
1.302236821E1,1.319306566E1,-2.971582476E0,-1.958901151E0,1.366472018E1
1.303234621E1,1.183339155E1,-2.823464318E0,-1.612036133E0,1.227190967E1
1.304232421E1,1.036695431E1,-2.753663766E0,-1.009970849E0,1.077387799E1
1.305230121E1,8.903516098E0,-2.703605753E0,-2.937758088E-1,9.309585769E0
1.306227921E1,7.479686927E0,-2.650607175E0,3.754140490E-1,7.944329463E0
1.307225721E1,6.169259825E0,-2.602446583E0,8.788675028E-1,6.753140240E0
1.308223421E1,5.109870649E0,-2.554933863E0,1.216947665E0,5.841183674E0
1.309221221E1,4.440791888E0,-2.496614318E0,1.467659607E0,5.301673356E0
1.310219021E1,4.008695515E0,-2.459517244E0,1.739263067E0,5.014369434E0
1.311216721E1,3.698252218E0,-2.466474261E0,2.032499762E0,4.887905485E0
1.312214521E1,3.581526591E0,-2.526633339E0,2.273961702E0,4.937824478E0
1.313212321E1,3.501378806E0,-2.676274697E0,2.483384408E0,5.058586553E0
1.314210121E1,3.286996784E0,-2.894510327E0,2.690841281E0,5.140346748E0
1.315207821E1,2.951395549E0,-3.150647609E0,2.867927130E0,5.182887426E0
1.316205621E1,2.566340026E0,-3.414292715E0,3.031859668E0,5.237906922E0
1.317203421E1,2.087161581E0,-3.667973582E0,3.136530968E0,5.258146078E0
1.318201221E1,1.683439991E0,-3.870306539E0,3.127977954E0,5.253331228E0
1.319198921E1,1.366486404E0,-3.960530246E0,2.956898364E0,5.127995013E0
1.320196721E1,1.073190359E0,-4.048732570E0,2.670035133E0,4.967198465E0
1.321194521E1,8.385790175E-1,-4.115185007E0,2.283405540E0,4.780366437E0
1.322192221E1,5.452335638E-1,-4.272259346E0,1.823038464E0,4.676852446E0
1.323190021E1,2.869089118E-1,-4.402529463E0,1.390663764E0,4.625854310E0
1.324187821E1,1.460539453E-2,-4.424443658E0,1.107713490E0,4.561024466E0
1.325185621E1,-2.667489548E-1,-4.414685825E0,9.542907375E-1,4.524519504E0
1.326183321E1,-4.297937393E-1,-4.378927762E0,8.660796422E-1,4.484397947E0
1.327181121E1,-6.855353107E-1,-4.420680975E0,7.730773383E-1,4.539826815E0
1.328178921E1,-1.169333203E0,-4.528884870E0,5.595595345E-1,4.710758450E0
1.329176621E1,-1.763733957E0,-4.358088870E0,2.260612509E-1,4.706888543E0
1.330174421E1,-2.352818422E0,-3.802764181E0,2.365023315E-2,4.471837349E0
1.331172221E1,-2.746309430E0,-3.237683414E0,3.290871441E-2,4.245691034E0
1.332170021E1,-2.577324898E0,-3.017795945E0,4.021378711E-1,3.988910987E0
1.333167721E1,-1.518245624E0,-3.011913062E0,1.040981849E0,3.529919727E0
1.334165196E1,-1.027934664E-1,-3.130354262E0,1.652407648E0,3.541205351E0
1.335162996E1,8.494627324E-1,-3.422885199E0,2.028873319E0,4.068667713E0
1.336160696E1,6.868221366E-1,-3.728628504E0,1.730862080E0,4.167766633E0
1.337158496E1,-1.097843975E-1,-3.560728630E0,8.114131460E-1,3.653660121E0
1.338156296E1,-1.246383718E0,-3.209731384E0,-1.426194370E-1,3.446184591E0
1.339154096E1,-2.656391240E0,-2.898577650E0,-7.124472669E-1,3.995716197E0
1.340151796E1,-3.795418324E0,-2.494397054E0,-8.995488122E-1,4.629946543E0
1.341149596E1,-4.318129583E0,-2.212515067E0,-8.331191799E-1,4.922961871E0
1.342147396E1,-4.085454839E0,-2.100581818E0,-5.478127706E-1,4.626389958E0
1.343145096E1,-3.395040758E0,-2.086509324E0,-5.960066915E-2,3.985395231E0
1.344142896E1,-2.647297651E0,-2.080156909E0,6.725800735E-1,3.433307672E0
1.345140696E1,-2.298246358E0,-2.052787846E0,1.247892592E0,3.324621811E0
1.346138496E1,-2.518755385E0,-1.983814090E0,1.315431733E0,3.465545798E0
1.347136196E1,-3.163441316E0,-1.724943820E0,1.154526883E0,3.783612622E0
1.348133996E1,-4.035169369E0,-1.467452908E0,8.907918759E-1,4.385147665E0
1.349131796E1,-5.019670916E0,-1.245917110E0,6.766792640E-1,5.216061768E0
1.350129496E1,-5.965311282E0,-1.047079033E0,6.730990139E-1,6.093798116E0
1.351127296E1,-6.728768197E0,-7.772504961E-1,7.886361945E-1,6.819265857E0
1.352125096E1,-7.166600688E0,-5.932327724E-1,9.913734868E-1,7.259126114E0
1.353122896E1,-7.506009922E0,-6.164514810E-1,1.181953979E0,7.623464605E0
1.354120596E1,-7.819197317E0,-5.587786388E-1,1.273851890E0,7.941963164E0
1.355118396E1,-8.222951651E0,-4.542543966E-1,1.447756270E0,8.361774879E0
1.356116196E1,-8.730684682E0,-4.739963508E-1,1.690779709E0,8.905518715E0
1.357113896E1,-9.113326474E0,-3.800766188E-1,1.905682572E0,9.318197451E0
1.358111696E1,-9.172978599E0,-3.166436845E-1,2.043815586E0,9.403243151E0
1.359109496E1,-8.896154453E0,-4.618072450E-1,2.067430151E0,9.144894609E0
1.360107296E1,-8.525757315E0,-7.079411101E-1,1.971509502E0,8.779326177E0
1.361104996E1,-8.264053484E0,-9.925081390E-1,1.802144608E0,8.516300698E0
1.362102796E1,-8.114120350E0,-1.338964437E0,1.700269886E0,8.397779022E0
1.363100596E1,-8.131491258E0,-1.710499443E0,1.732812126E0,8.488203361E0
1.364098296E1,-8.356330733E0,-2.000274003E0,1.760121839E0,8.770825976E0
1.365096096E1,-8.681417212E0,-2.218235398E0,1.825490202E0,9.144396512E0
1.366093896E1,-8.818837305E0,-2.571638773E0,1.972336299E0,9.395495084E0
1.367091696E1,-8.631621739E0,-3.089069996E0,2.137647610E0,9.413648846E0
1.368089396E1,-8.235587484E0,-3.665951614E0,2.277680824E0,9.297953129E0
1.369087196E1,-7.717456350E0,-4.314824152E0,2.398025000E0,9.161187907E0
1.370084996E1,-7.130468988E0,-5.004930085E0,2.507056276E0,9.065221692E0
1.371082696E1,-6.617525504E0,-5.634580486E0,2.551287247E0,9.058101769E0
1.372080496E1,-6.079612069E0,-6.226133938E0,2.538193577E0,9.064703710E0
1.373078296E1,-5.624784061E0,-6.847397677E0,2.535330780E0,9.216992614E0
1.374076096E1,-5.110272353E0,-7.547104738E0,2.556498578E0,9.466221972E0
1.375073796E1,-4.651288436E0,-8.091993316E0,2.544772864E0,9.674229110E0
1.376071596E1,-4.322836299E0,-8.400802901E0,2.514365880E0,9.776627171E0
1.377069396E1,-3.839933470E0,-8.670551332E0,2.562189965E0,9.822849223E0
1.378067096E1,-3.215471888E0,-9.005629533E0,2.727523496E0,9.943842676E0
1.379064896E1,-2.591390083E0,-9.225332814E0,2.910598648E0,1.001467187E1
1.380062696E1,-2.148758928E0,-9.200676860E0,3.031834233E0,9.922783804E0
1.381060496E1,-1.860145772E0,-9.174378422E0,3.091515886E0,9.858338207E0
1.382058196E1,-1.721847427E0,-9.122155770E0,3.008310007E0,9.758504678E0
1.383055996E1,-1.659348439E0,-8.890572116E0,2.848454441E0,9.482056871E0
1.384053796E1,-1.645008289E0,-8.674817460E0,2.638797553E0,9.215300471E0
1.385051496E1,-1.695262477E0,-8.604569596E0,2.457155553E0,9.107697086E0
1.386049296E1,-1.635131173E0,-8.604357927E0,2.261150452E0,9.045519922E0
1.387047096E1,-1.174938636E0,-8.530146235E0,2.173874912E0,8.880856250E0
1.388044896E1,-2.393367693E-1,-8.417921795E0,2.261573499E0,8.719713534E0
1.389042596E1,1.365807250E0,-8.193975189E0,2.488580244E0,8.671775509E0
1.390040396E1,3.502835348E0,-7.810535837E0,2.763188880E0,8.994972947E0
1.391038196E1,5.648965221E0,-7.424046577E0,2.888622181E0,9.765828882E0
1.392035896E1,7.754910105E0,-7.132538903E0,2.619088928E0,1.085685814E1
1.393033696E1,1.014399881E1,-6.751145491E0,1.888790404E0,1.233070178E1
1.394031496E1,1.272286064E1,-6.320311532E0,9.563635755E-1,1.423840413E1
1.395029296E1,1.499249482E1,-5.920665452E0,4.958234221E-2,1.611929399E1
1.396026996E1,1.656871237E1,-5.353257492E0,-8.013448253E-1,1.743048333E1
1.397024796E1,1.724721626E1,-4.778501337E0,-1.652627796E0,1.797308327E1
1.398022596E1,1.713339904E1,-4.182040901E0,-2.466740601E0,1.780807788E1
1.399020296E1,1.640717953E1,-3.695780016E0,-2.875666213E0,1.706234996E1
1.400018096E1,1.527264428E1,-3.412883536E0,-2.719968893E0,1.588394372E1
1.401015896E1,1.396739138E1,-3.133118826E0,-2.226470324E0,1.448660159E1
1.402013696E1,1.280896674E1,-2.732682787E0,-1.665042312E0,1.320263421E1
1.403011396E1,1.186645405E1,-2.260610170E0,-1.178911819E0,1.213725353E1
1.404009196E1,1.094253317E1,-1.951787136E0,-8.025639698E-1,1.114417400E1
1.405006996E1,1.009225913E1,-1.648545270E0,-7.360504299E-1,1.025247122E1
1.406004796E1,9.245133825E0,-1.370388544E0,-8.713681564E-1,9.386679214E0
1.407002496E1,8.487186157E0,-1.139635779E0,-8.628920326E-1,8.606723025E0
1.408000296E1,7.859874642E0,-9.764803362E-1,-6.933993772E-1,7.950594062E0
1.408998096E1,7.261020942E0,-9.540825766E-1,-4.100661108E-1,7.334906468E0
1.409995796E1,6.707841597E0,-9.676522100E-1,-9.975759208E-2,6.778011601E0
1.410993596E1,6.187654581E0,-1.018883175E0,2.484952632E-1,6.275901691E0
1.411991396E1,5.712759513E0,-1.191342123E0,6.507895473E-1,5.871834836E0
1.412989196E1,5.317671338E0,-1.475684618E0,1.112771916E0,5.629701137E0
1.413986896E1,5.014289138E0,-1.836674171E0,1.632891397E0,5.584156327E0
1.414984696E1,4.735895307E0,-2.151354361E0,2.084899878E0,5.603912691E0
1.415982496E1,4.505995652E0,-2.474442261E0,2.406741444E0,5.676201697E0
1.416980196E1,4.166557182E0,-2.840651039E0,2.623463815E0,5.684369751E0
1.417977996E1,3.688007312E0,-3.245781807E0,2.756605500E0,5.633415603E0
1.418975796E1,3.229462228E0,-3.660147083E0,2.788973932E0,5.621786064E0
1.419973596E1,2.854754231E0,-3.937211550E0,2.758849077E0,5.591288289E0
1.420971296E1,2.468760814E0,-4.147885560E0,2.662657994E0,5.512665614E0
1.421969096E1,2.134929532E0,-4.379641707E0,2.496792074E0,5.474774538E0
1.422966896E1,1.838502157E0,-4.557403495E0,2.218119623E0,5.391666853E0
1.423964596E1,1.631903509E0,-4.671984948E0,1.925540447E0,5.310203238E0
1.424962396E1,1.446109402E0,-4.816461461E0,1.698396292E0,5.307926466E0
1.425960196E1,1.409392542E0,-5.041534240E0,1.586997770E0,5.470102079E0
1.426957996E1,1.494834834E0,-5.242672026E0,1.578213206E0,5.675464569E0
1.427955696E1,1.547986609E0,-5.553626955E0,1.645670779E0,5.995603990E0
1.428953496E1,1.450533697E0,-5.901446239E0,1.528962401E0,6.266485597E0
1.429951296E1,1.048027305E0,-6.009234982E0,1.224541151E0,6.221637030E0
1.430948996E1,3.552980192E-1,-6.031432766E0,9.207490620E-1,6.111644356E0
1.431946796E1,-4.346913671E-1,-5.927821274E0,7.244013146E-1,5.987719007E0
1.432944596E1,-1.165996197E0,-5.649980882E0,5.828630278E-1,5.798410162E0
1.433942771E1,-1.532867464E0,-5.354369633E0,5.008157748E-1,5.591938239E0
1.434940471E1,-1.576524530E0,-5.187450922E0,5.094746241E-1,5.445607501E0
1.435938271E1,-1.466008061E0,-5.110568807E0,5.508778811E-1,5.345143553E0
1.436936071E1,-1.276926064E0,-4.942922702E0,7.513639954E-1,5.160191165E0
1.437933771E1,-1.243072439E0,-4.825079672E0,9.571903718E-1,5.073739877E0
1.438931571E1,-1.576595866E0,-4.863370163E0,8.110453561E-1,5.176467757E0
1.439929371E1,-2.086578321E0,-4.796705473E0,3.125333843E-1,5.240216560E0
1.440927171E1,-2.268503911E0,-4.505980157E0,-1.641102934E-1,5.047464646E0
1.441924871E1,-2.433155656E0,-4.254559239E0,-4.873958302E-1,4.925350288E0
1.442922671E1,-2.991395767E0,-3.991853195E0,-7.010389106E-1,5.037340183E0
1.443920471E1,-3.480552194E0,-3.683887948E0,-7.446451060E-1,5.122476971E0
1.444918171E1,-4.017954581E0,-3.365483667E0,-5.337116253E-1,5.268328713E0
1.445915971E1,-4.861444675E0,-3.166052683E0,-1.918379362E-1,5.804682224E0
1.446913771E1,-5.755007985E0,-2.877045863E0,2.644040751E-1,6.439520116E0
1.447911571E1,-6.703557342E0,-2.292723663E0,5.966104165E-1,7.109866863E0
1.448909271E1,-7.394852598E0,-1.829051741E0,7.209372047E-1,7.651733508E0
1.449907071E1,-7.721835914E0,-1.646727371E0,8.306087510E-1,7.939040988E0
1.450904871E1,-7.951939638E0,-1.648076908E0,1.229179455E0,8.213427033E0
1.451902671E1,-8.613960224E0,-1.517127344E0,1.707653604E0,8.911681489E0
1.452900371E1,-9.304976569E0,-1.264135864E0,2.055243677E0,9.612734002E0
1.453898171E1,-9.844231939E0,-1.003254152E0,2.118786539E0,1.011951964E1
1.454895971E1,-1.019610451E1,-7.516619110E-1,1.988642721E0,1.041538491E1
1.455893671E1,-1.030859910E1,-6.208936107E-1,1.836853681E0,1.048936393E1
1.456891471E1,-1.037782779E1,-6.789517844E-1,1.754572831E0,1.054698113E1
1.457889271E1,-1.029746834E1,-9.349592578E-1,1.782770444E0,1.049239121E1
1.458887071E1,-9.977702823E0,-1.301407771E0,1.992880783E0,1.025766979E1
1.459884771E1,-9.624401189E0,-1.593345800E0,2.189273554E0,9.998038197E0
1.460882571E1,-9.186444737E0,-1.809928422E0,2.386427633E0,9.662382969E0
1.461880371E1,-8.664702947E0,-2.063674192E0,2.587320421E0,9.275238826E0
1.462878071E1,-8.252790577E0,-2.307106059E0,2.741892736E0,8.997181028E0
1.463875871E1,-7.891403999E0,-2.480067283E0,2.915779574E0,8.770790234E0
1.464873671E1,-7.635993526E0,-2.714490345E0,3.094578073E0,8.674864172E0
1.465871471E1,-7.412204211E0,-3.053211946E0,3.216686647E0,8.637704986E0
1.466869171E1,-7.181388881E0,-3.549017826E0,3.170538082E0,8.615113785E0
1.467866971E1,-6.929653968E0,-4.118041372E0,3.003630481E0,8.602334853E0
1.468864771E1,-6.640515001E0,-4.646281757E0,2.778484612E0,8.567633885E0
1.469862471E1,-6.186149508E0,-5.220858988E0,2.679073759E0,8.526620111E0
1.470860271E1,-5.621323678E0,-5.851954236E0,2.681996490E0,8.546212813E0
1.471858071E1,-5.060787951E0,-6.417293451E0,2.724616553E0,8.614915280E0
1.472855871E1,-4.470328806E0,-6.944833925E0,2.817174468E0,8.726455744E0
1.473853571E1,-3.850301460E0,-7.526782156E0,2.881717496E0,8.932052770E0
1.474851371E1,-3.300792412E0,-7.959089613E0,2.854300194E0,9.076858907E0
1.475849171E1,-2.910501000E0,-8.224126357E0,2.665088097E0,9.121949625E0
1.476846871E1,-2.591981821E0,-8.394775591E0,2.359709365E0,9.097189417E0
1.477844671E1,-2.357250465E0,-8.481171126E0,2.228337340E0,9.080329329E0
1.478842471E1,-2.097066618E0,-8.543664413E0,2.344087652E0,9.104209846E0
1.479840271E1,-1.840487140E0,-8.676119050E0,2.519113820E0,9.219998326E0
1.480837971E1,-1.707545138E0,-8.778299144E0,2.544755614E0,9.297850687E0
1.481835771E1,-1.760471795E0,-8.708811418E0,2.390518345E0,9.200936648E0
1.482833571E1,-1.968074117E0,-8.535017551E0,2.170777349E0,9.023974436E0
1.483831271E1,-2.220064699E0,-8.410677094E0,2.150334021E0,8.960586636E0
1.484829071E1,-2.528797978E0,-8.437840335E0,2.274459300E0,9.097534492E0
1.485826871E1,-2.560734301E0,-8.518834212E0,2.313989986E0,9.191433302E0
1.486824671E1,-2.127046316E0,-8.329093233E0,2.286049359E0,8.895175197E0
1.487822371E1,-1.406455632E0,-8.184407975E0,2.516786043E0,8.677376524E0
1.488820171E1,-4.174634233E-1,-8.448614414E0,3.056665019E0,8.994251624E0
1.489817971E1,1.980485855E0,-8.612886676E0,3.610992757E0,9.546905771E0
1.490815671E1,6.228158244E0,-8.226426067E0,4.111315027E0,1.110706767E1
1.491813471E1,1.117260941E1,-7.676808261E0,4.459851180E0,1.427062923E1
1.492811271E1,1.533620117E1,-7.156420101E0,4.108197292E0,1.741524333E1
1.493809071E1,1.744955799E1,-6.332333407E0,2.486471446E0,1.872880297E1
1.494806771E1,1.741653525E1,-5.299919191E0,-2.922292203E-2,1.820510087E1
1.495804571E1,1.656479708E1,-4.372132128E0,-2.254826689E0,1.727982306E1
1.496802371E1,1.575247849E1,-3.934045867E0,-3.326334512E0,1.657352699E1
1.497800171E1,1.550502900E1,-3.613099217E0,-3.478091978E0,1.629593612E1
1.498797871E1,1.548514145E1,-3.155094416E0,-3.384496766E0,1.616165353E1
1.499795671E1,1.493484361E1,-2.637421119E0,-3.414166415E0,1.554548411E1
1.500793471E1,1.393554276E1,-2.201660880E0,-3.504685991E0,1.453717602E1
1.501791171E1,1.276193876E1,-1.913266264E0,-3.569228727E0,1.338906503E1
1.502788971E1,1.149447992E1,-1.671745268E0,-3.501793374E0,1.213179120E1
1.503786771E1,1.033005604E1,-1.489825525E0,-3.273054683E0,1.093812254E1
1.504784571E1,9.364608228E0,-1.358217564E0,-3.064348553E0,9.946400066E0
1.505782271E1,8.563831460E0,-1.303417459E0,-2.959573757E0,9.154080138E0
1.506780071E1,7.904628062E0,-1.341048385E0,-2.866212727E0,8.514501216E0
1.507777871E1,7.388138241E0,-1.428138569E0,-2.714666346E0,7.999598728E0
1.508775571E1,7.033284171E0,-1.502553159E0,-2.413765120E0,7.586238480E0
1.509773371E1,6.791755573E0,-1.579090873E0,-1.859540293E0,7.216603207E0
1.510771171E1,6.592391247E0,-1.708848774E0,-1.143853961E0,6.905663500E0
1.511768971E1,6.436140781E0,-1.902123810E0,-4.096261078E-1,6.723821584E0
1.512766671E1,6.136042378E0,-2.228488491E0,3.569397712E-1,6.537934155E0
1.513764471E1,5.709890869E0,-2.621931844E0,1.040408530E0,6.368660004E0
1.514762271E1,5.179772358E0,-3.044399607E0,1.656568235E0,6.232385495E0
1.515759971E1,4.690174759E0,-3.478442518E0,2.141369070E0,6.219546858E0
1.516757771E1,4.363562741E0,-3.803672254E0,2.446788147E0,6.284534561E0
1.517755571E1,4.147261662E0,-4.014556180E0,2.655233199E0,6.353479673E0
1.518753371E1,3.840876041E0,-4.227880148E0,2.712239459E0,6.323254082E0
1.519751071E1,3.409654119E0,-4.487597680E0,2.594817136E0,6.204623286E0
1.520748871E1,2.939169606E0,-4.738325703E0,2.365776436E0,6.057008055E0
1.521746671E1,2.472350712E0,-4.967800850E0,2.142908350E0,5.948413194E0
1.522744371E1,2.109210115E0,-5.196245719E0,2.001509227E0,5.954475297E0
1.523742171E1,1.842100241E0,-5.321385489E0,1.904704771E0,5.944609078E0
1.524739971E1,1.577953736E0,-5.433808735E0,1.720467192E0,5.914069895E0
1.525737771E1,1.220277362E0,-5.568319253E0,1.470046148E0,5.886959472E0
1.526735471E1,7.995580624E-1,-5.640023659E0,1.215845172E0,5.824726556E0
1.527733271E1,2.776429023E-1,-5.609215264E0,9.810829720E-1,5.701131928E0
1.528731071E1,-2.736581710E-1,-5.432373828E0,7.516049007E-1,5.490945650E0
1.529728871E1,-8.720151508E-1,-5.179871176E0,6.453750256E-1,5.292257056E0
1.530726571E1,-1.246970193E0,-4.888285149E0,6.974558830E-1,5.092809742E0
1.531724371E1,-1.345908298E0,-4.683454261E0,9.248365581E-1,4.959993511E0
1.532722171E1,-1.647733969E0,-4.618724415E0,1.225113447E0,5.054556896E0
1.533719875E1,-2.181879165E0,-4.472494322E0,1.442168232E0,5.181085925E0
1.534717675E1,-2.665440099E0,-4.117436770E0,1.568642337E0,5.149611175E0
1.535715475E1,-2.995106995E0,-3.736865476E0,1.633859111E0,5.060071649E0
1.536713275E1,-3.123632303E0,-3.539327821E0,1.597750654E0,4.983645988E0
1.537710975E1,-2.776484279E0,-3.543800356E0,1.519605979E0,4.751482742E0
1.538708775E1,-2.231553016E0,-3.519583527E0,1.407510323E0,4.398679618E0
1.539706575E1,-1.904259213E0,-3.470517787E0,1.249471486E0,4.151129467E0
1.540704275E1,-2.072383620E0,-3.343498136E0,9.013306050E-1,4.035610303E0
1.541702075E1,-2.697971960E0,-3.079229717E0,5.128185005E-1,4.125977601E0
1.542699875E1,-3.149610313E0,-2.712174262E0,1.867144597E-1,4.160624549E0
1.543697675E1,-3.203725709E0,-2.487986167E0,8.763879910E-3,4.056354323E0
1.544695375E1,-2.840894868E0,-2.469738761E0,-3.880680084E-2,3.764545014E0
1.545693175E1,-2.212956532E0,-2.503093033E0,-6.133970417E-2,3.341618456E0
1.546690975E1,-1.670548342E0,-2.434532091E0,-4.198527418E-2,2.952869965E0
1.547688675E1,-1.556911215E0,-2.312929886E0,5.473110795E-2,2.788657864E0
1.548686475E1,-2.275045191E0,-2.237089745E0,-9.391794126E-2,3.192056034E0
1.549684275E1,-3.300512331E0,-2.010729409E0,-3.687055385E-1,3.882313508E0
1.550682075E1,-4.393270982E0,-1.804070681E0,-5.806472254E-1,4.784626646E0
1.551679775E1,-5.202006395E0,-1.745935324E0,-5.657613838E-1,5.516271081E0
1.552677575E1,-5.579638878E0,-1.792100261E0,-3.562053609E-1,5.871190307E0
1.553675375E1,-5.644116710E0,-1.797868540E0,8.080442727E-2,5.924096056E0
1.554673075E1,-5.488890091E0,-1.649507137E0,7.719330382E-1,5.783136592E0
1.555670875E1,-5.513306310E0,-1.453840005E0,1.506381331E0,5.897404678E0
1.556668675E1,-6.131592647E0,-1.325960814E0,2.225952553E0,6.656535528E0
1.557666475E1,-7.294493912E0,-1.169204564E0,2.664232941E0,7.853331644E0
1.558664175E1,-8.457229702E0,-1.042457979E0,2.716580139E0,8.943783345E0
1.559661975E1,-9.211055083E0,-9.595058692E-1,2.642177829E0,9.630435656E0
1.560659775E1,-9.635312093E0,-7.936449194E-1,2.681859373E0,1.003301954E1
1.561657575E1,-9.826528909E0,-6.477463639E-1,2.984591947E0,1.029019120E1
1.562655275E1,-9.853713784E0,-6.617118537E-1,3.468987570E0,1.046744538E1
1.563653075E1,-9.773433267E0,-7.715950692E-1,3.947051244E0,1.056856520E1
1.564650875E1,-9.788033180E0,-8.228997087E-1,4.266536676E0,1.070915929E1
1.565648575E1,-9.861628575E0,-9.690678209E-1,4.439119585E0,1.085801977E1
1.566646375E1,-9.691952317E0,-1.261501109E0,4.616263322E0,1.080903381E1
1.567644175E1,-9.249304059E0,-1.550723106E0,4.728930981E0,1.050319742E1
1.568641975E1,-8.770359794E0,-1.718551059E0,4.733522215E0,1.011330120E1
1.569639675E1,-8.247250341E0,-1.868265508E0,4.770558479E0,9.709056720E0
1.570637475E1,-7.697956470E0,-2.100685313E0,4.898058186E0,9.362819372E0
1.571635275E1,-7.298161871E0,-2.438500596E0,4.995347668E0,9.174036744E0
1.572632975E1,-6.907649142E0,-2.859145782E0,5.009193875E0,8.999019643E0
1.573630775E1,-6.456129488E0,-3.411788353E0,4.895076106E0,8.791113570E0
1.574628575E1,-6.012579004E0,-4.052580623E0,4.611500180E0,8.593046601E0
1.575626375E1,-5.649355815E0,-4.761984122E0,4.185998297E0,8.492013639E0
1.576624075E1,-5.328409749E0,-5.296417294E0,3.731827515E0,8.388714038E0
1.577621875E1,-4.860310608E0,-5.923482056E0,3.459051982E0,8.406860263E0
1.578619675E1,-4.257006299E0,-6.729466939E0,3.328915765E0,8.630730449E0
1.579617375E1,-3.799261115E0,-7.391582835E0,3.144719701E0,8.885895781E0
1.580615175E1,-3.578987145E0,-7.955130463E0,3.012443404E0,9.228654557E0
1.581612975E1,-3.459713302E0,-8.460832756E0,2.944540274E0,9.603417333E0
1.582610775E1,-3.353600371E0,-9.056254141E0,2.836774335E0,1.006527015E1
1.583608475E1,-2.888260238E0,-9.737064171E0,2.706194607E0,1.051075426E1
1.584606275E1,-2.267725939E0,-1.004077908E1,2.732409429E0,1.065015900E1
1.585604075E1,-1.977743365E0,-1.001634824E1,2.881886773E0,1.060867439E1
1.586601875E1,-1.907062368E0,-1.000137703E1,3.264275089E0,1.069204944E1
1.587599575E1,-1.912131904E0,-9.980008965E0,3.770275882E0,1.083844120E1
1.588597375E1,-1.705542466E0,-9.986660757E0,4.165857270E0,1.095429756E1
1.589595175E1,-1.082987954E0,-1.001105885E1,4.245949799E0,1.092804886E1
1.590592875E1,-1.545419097E-1,-1.025798910E1,3.897314828E0,1.097448343E1
1.591590675E1,1.016858869E0,-1.026156175E1,3.261687403E0,1.081537130E1
1.592588475E1,2.497429420E0,-9.928458742E0,2.555508644E0,1.055187524E1
1.593586275E1,4.259875528E0,-9.587690615E0,1.696828653E0,1.062777391E1
1.594583975E1,6.123894203E0,-9.351252018E0,5.760995534E-1,1.119284974E1
1.595581775E1,7.985333671E0,-9.031689988E0,-6.424639893E-1,1.207268561E1
1.596579575E1,9.679425243E0,-8.320829948E0,-1.614892205E0,1.286605460E1
1.597577275E1,1.103124946E1,-7.237484729E0,-2.040411045E0,1.335039052E1
1.598575075E1,1.258770108E1,-6.138060837E0,-1.997759115E0,1.414627339E1
1.599572875E1,1.418031423E1,-5.426560526E0,-1.879289848E0,1.529903922E1
1.600570675E1,1.520282852E1,-5.011136904E0,-1.941467385E0,1.612472585E1
1.601568375E1,1.543747495E1,-4.682359955E0,-2.161476183E0,1.627612076E1
1.602566175E1,1.510109867E1,-4.301927241E0,-2.396061213E0,1.588366671E1
1.603563975E1,1.449752568E1,-3.957546996E0,-2.560555376E0,1.524456863E1
1.604561675E1,1.377137634E1,-3.583732746E0,-2.692710343E0,1.448256316E1
1.605559475E1,1.281974199E1,-3.243934380E0,-2.713145485E0,1.349926122E1
1.606557275E1,1.177935393E1,-3.054777538E0,-2.513880269E0,1.242595826E1
1.607555075E1,1.058284520E1,-2.960740862E0,-2.078907359E0,1.118411619E1
1.608552775E1,9.325488601E0,-2.834129055E0,-1.413132275E0,9.848551567E0
1.609550575E1,8.252428635E0,-2.692684323E0,-7.432892829E-1,8.712382349E0
1.610548375E1,7.500894778E0,-2.498524019E0,-2.532540196E-1,7.910131626E0
1.611546175E1,6.934095513E0,-2.381576782E0,9.141244590E-2,7.332253732E0
1.612543875E1,6.517129980E0,-2.337840194E0,3.055573636E-1,6.930501083E0
1.613541675E1,6.206923496E0,-2.376708975E0,4.278688359E-1,6.660158900E0
1.614539475E1,5.992206720E0,-2.582135110E0,4.958930039E-1,6.543689554E0
1.615537175E1,5.751456971E0,-2.942834056E0,6.496198118E-1,6.493191470E0
1.616534975E1,5.490409783E0,-3.293443047E0,1.075803188E0,6.492204493E0
1.617532775E1,5.173788902E0,-3.554744589E0,1.710159720E0,6.506070009E0
1.618530575E1,4.753856492E0,-3.703870223E0,2.298634613E0,6.449924593E0
1.619528275E1,4.318495034E0,-3.847091923E0,2.800382142E0,6.425858368E0
1.620526075E1,3.839056972E0,-4.049149477E0,3.144494291E0,6.404827419E0
1.621523875E1,3.476555329E0,-4.250218266E0,3.337065907E0,6.425480615E0
1.622521575E1,3.139690219E0,-4.490197352E0,3.362085266E0,6.428308041E0
1.623519375E1,2.793885593E0,-4.675559351E0,3.212908761E0,6.323720001E0
1.624517175E1,2.387763429E0,-4.829691371E0,3.007979932E0,6.170516688E0
1.625514975E1,1.982901779E0,-4.954082113E0,2.753339830E0,6.004640644E0
1.626512675E1,1.665854929E0,-5.008252473E0,2.460190843E0,5.823246900E0
1.627510475E1,1.387536527E0,-5.016383611E0,2.125163805E0,5.621893217E0
1.628508275E1,1.171633205E0,-4.959387876E0,1.775475458E0,5.396347429E0
1.629505975E1,1.045175399E0,-4.926865663E0,1.454402800E0,5.242297624E0
